System_Time,Timestamp,Gyro_X,Gyro_Y,Gyro_Z,Acc_X,Acc_Y,Acc_Z,Mag_X,Mag_Y,Mag_Z,Quat_W,Quat_X,Quat_Y,Quat_Z,Linear_Acc_X,Linear_Acc_Y,Linear_Acc_Z
2025-10-29 18:01:15.558,0.005,-0.216,1.07,-0.643,-0.014,0.024,-1.002,-20.92,10.61,-112.56,0.9997,0.0155,0.009600000000000001,0.0091,-0.01,0.015,0.0
2025-10-29 18:01:15.559,0.01,-1.484,4.258,-2.6630000000000003,-0.013000000000000001,0.023,-1.002,-14.200000000000001,9.44,-112.68,0.9997,0.0165,0.005,0.0158,0.004,0.001,0.0
2025-10-29 18:01:15.559,0.015,-0.88,2.773,-1.795,-0.014,0.024,-1.004,-14.200000000000001,9.44,-112.68,0.9996,0.016900000000000002,0.0047,0.019200000000000002,0.01,0.003,0.001
2025-10-29 18:01:15.560,0.02,0.369,-0.306,0.048,-0.013000000000000001,0.023,-1.004,-14.41,10.11,-112.59,0.9996,0.0155,0.0071,0.0184,0.004,0.001,0.001
2025-10-29 18:01:15.561,0.025,0.027,-0.021,0.004,-0.014,0.023,-1.0050000000000001,-14.41,10.11,-112.59,0.9996,0.015300000000000001,0.008,0.018000000000000002,0.002,0.0,0.002
2025-10-29 18:01:15.561,0.03,0.0,0.0,0.0,-0.013000000000000001,0.023,-1.006,-14.41,10.11,-112.59,0.9996,0.0152,0.0083,0.0179,0.001,0.0,0.003
2025-10-29 18:01:15.562,0.035,0.002,0.0,0.001,-0.015,0.023,-1.006,-14.11,9.93,-112.51,0.9996,0.0151,0.0086,0.0179,0.001,0.0,0.003
2025-10-29 18:01:15.562,0.04,-0.001,0.0,0.0,-0.015,0.023,-1.0070000000000001,-14.11,9.93,-112.51,0.9996,0.0151,0.0088,0.0173,0.001,0.0,0.004
2025-10-29 18:01:15.563,0.045,-0.001,0.0,0.001,-0.015,0.023,-1.006,-14.67,9.82,-112.54,0.9996,0.0151,0.009000000000000001,0.0175,0.001,0.0,0.003
2025-10-29 18:01:15.563,0.05,0.0,-0.001,0.0,-0.016,0.022,-1.0050000000000001,-14.67,9.82,-112.54,0.9996,0.015000000000000001,0.0092,0.0176,0.001,0.0,0.002
2025-10-29 18:01:15.563,0.055,0.0,0.0,0.0,-0.014,0.023,-1.004,-14.26,10.64,-113.53,0.9996,0.015000000000000001,0.0092,0.0175,0.0,0.0,0.001
2025-10-29 18:01:15.564,0.06,-0.003,0.0,0.0,-0.014,0.024,-1.0030000000000001,-14.26,10.64,-113.53,0.9997,0.0151,0.0092,0.0166,0.0,-0.001,0.0
2025-10-29 18:01:15.564,0.065,-0.002,0.0,0.0,-0.014,0.023,-1.004,-14.26,10.64,-113.53,0.9996,0.0151,0.0092,0.016900000000000002,0.0,0.0,0.001
2025-10-29 18:01:15.564,0.07,0.0,0.0,0.0,-0.015,0.023,-1.0050000000000001,-14.76,10.84,-112.77,0.9997,0.0151,0.009300000000000001,0.016800000000000002,0.001,0.0,0.002
2025-10-29 18:01:15.565,0.075,0.0,0.0,0.0,-0.015,0.023,-1.0050000000000001,-14.76,10.84,-112.77,0.9997,0.0151,0.009300000000000001,0.0165,0.0,0.0,0.002
2025-10-29 18:01:15.565,0.08,0.0,0.0,0.001,-0.014,0.024,-1.0070000000000001,-14.26,10.84,-112.89,0.9997,0.0152,0.009300000000000001,0.016,0.0,-0.001,0.004
2025-10-29 18:01:15.566,0.085,-0.001,0.0,0.001,-0.014,0.025,-1.0050000000000001,-14.26,10.84,-112.89,0.9997,0.015300000000000001,0.009300000000000001,0.0154,0.0,-0.001,0.002
2025-10-29 18:01:15.566,0.09,0.001,0.0,0.001,-0.014,0.023,-1.004,-14.26,10.84,-112.89,0.9997,0.015300000000000001,0.009300000000000001,0.0154,0.0,0.0,0.001
2025-10-29 18:01:15.566,0.095,0.0,0.0,0.001,-0.014,0.023,-1.0030000000000001,-14.44,10.78,-113.47,0.9997,0.015300000000000001,0.0092,0.0155,0.0,0.0,0.0
2025-10-29 18:01:15.567,0.1,-0.001,0.0,0.0,-0.014,0.024,-1.006,-14.44,10.78,-113.47,0.9997,0.015300000000000001,0.0092,0.0154,0.0,0.0,0.003
2025-10-29 18:01:15.567,0.105,0.0,0.0,0.0,-0.014,0.024,-1.0050000000000001,-14.84,8.09,-113.7,0.9997,0.015300000000000001,0.0092,0.0154,0.0,0.0,0.002
2025-10-29 18:01:15.567,0.11,0.001,-0.001,0.0,-0.014,0.022,-1.004,-14.84,8.09,-113.7,0.9997,0.0152,0.0092,0.0159,0.0,0.001,0.001
2025-10-29 18:01:15.568,0.115,0.0,0.0,0.001,-0.015,0.023,-1.006,-14.84,8.09,-113.7,0.9997,0.0152,0.0092,0.016,0.001,0.0,0.003
2025-10-29 18:01:15.568,0.12,0.001,0.0,0.0,-0.015,0.022,-1.0070000000000001,-14.64,10.870000000000001,-112.59,0.9997,0.0151,0.009300000000000001,0.016300000000000002,0.0,0.0,0.004
2025-10-29 18:01:15.569,0.125,-0.003,0.0,0.0,-0.014,0.024,-1.006,-14.64,10.870000000000001,-112.59,0.9997,0.0151,0.009300000000000001,0.0162,0.0,0.0,0.003
2025-10-29 18:01:15.569,0.13,0.0,0.0,0.001,-0.013000000000000001,0.024,-1.0070000000000001,-14.44,10.64,-112.21000000000001,0.9997,0.0152,0.0092,0.0161,0.0,0.0,0.004
2025-10-29 18:01:15.569,0.135,0.0,0.0,0.001,-0.014,0.024,-1.008,-14.44,10.64,-112.21000000000001,0.9997,0.0152,0.0092,0.0159,0.0,0.0,0.005
2025-10-29 18:01:15.570,0.14,0.0,0.0,0.0,-0.014,0.023,-1.006,-14.870000000000001,10.64,-112.71000000000001,0.9997,0.0152,0.0092,0.0159,0.0,0.0,0.003
2025-10-29 18:01:15.570,0.145,-0.001,0.002,0.0,-0.015,0.023,-1.006,-14.870000000000001,10.64,-112.71000000000001,0.9997,0.0152,0.009300000000000001,0.0159,0.0,0.0,0.003
2025-10-29 18:01:15.571,0.15,-0.001,0.0,0.001,-0.015,0.023,-1.004,-14.870000000000001,10.64,-112.71000000000001,0.9997,0.0152,0.009300000000000001,0.0158,0.001,0.0,0.001
2025-10-29 18:01:15.571,0.155,-0.001,0.0,0.0,-0.014,0.024,-1.006,-14.790000000000001,10.55,-113.03,0.9997,0.0152,0.009300000000000001,0.015700000000000002,0.0,0.0,0.003
2025-10-29 18:01:15.571,0.16,0.0,-0.002,0.0,-0.014,0.024,-1.0070000000000001,-14.790000000000001,10.55,-113.03,0.9997,0.0152,0.009300000000000001,0.015700000000000002,0.0,0.0,0.004
2025-10-29 18:01:15.572,0.165,0.0,0.0,0.0,-0.014,0.024,-1.004,-14.49,11.25,-112.77,0.9997,0.015300000000000001,0.009300000000000001,0.015600000000000001,0.0,0.0,0.001
2025-10-29 18:01:15.572,0.17,-0.003,0.0,0.0,-0.014,0.024,-1.0030000000000001,-14.49,11.25,-112.77,0.9997,0.015300000000000001,0.009300000000000001,0.0155,0.0,0.0,0.0
2025-10-29 18:01:15.572,0.175,0.001,0.0,0.001,-0.015,0.023,-1.0030000000000001,-14.49,11.25,-112.77,0.9997,0.015300000000000001,0.009300000000000001,0.0155,0.0,0.0,0.0
2025-10-29 18:01:15.573,0.18,0.0,0.0,0.0,-0.015,0.023,-1.0030000000000001,-14.61,10.93,-112.65,0.9997,0.015300000000000001,0.0094,0.015600000000000001,0.0,0.0,0.0
2025-10-29 18:01:15.573,0.185,0.001,0.0,0.0,-0.015,0.023,-1.004,-14.61,10.93,-112.65,0.9997,0.015300000000000001,0.0094,0.015600000000000001,0.0,0.0,0.001
2025-10-29 18:01:15.574,0.19,0.0,0.002,0.001,-0.014,0.024,-1.0030000000000001,-14.49,10.43,-113.06,0.9997,0.015300000000000001,0.0094,0.0155,0.0,0.0,0.0
2025-10-29 18:01:15.574,0.195,0.0,0.0,0.001,-0.015,0.024,-1.004,-14.49,10.43,-113.06,0.9997,0.015300000000000001,0.0094,0.0155,0.0,0.0,0.001
2025-10-29 18:01:15.574,0.2,0.0,0.001,0.0,-0.015,0.024,-1.004,-14.49,10.43,-113.06,0.9997,0.015300000000000001,0.0094,0.0154,0.0,0.0,0.001
2025-10-29 18:01:15.575,0.205,0.001,0.0,-0.002,-0.014,0.023,-1.006,-14.700000000000001,10.78,-112.77,0.9997,0.015300000000000001,0.0094,0.0155,0.0,0.0,0.003
2025-10-29 18:01:15.575,0.21,0.001,0.0,-0.001,-0.014,0.023,-1.0050000000000001,-14.700000000000001,10.78,-112.77,0.9997,0.015300000000000001,0.0094,0.0155,0.0,0.0,0.002
2025-10-29 18:01:15.576,0.215,0.0,0.0,0.0,-0.014,0.023,-1.006,-14.73,10.72,-112.21000000000001,0.9997,0.015300000000000001,0.0094,0.0155,0.0,0.0,0.003
2025-10-29 18:01:15.576,0.22,0.0,0.001,0.002,-0.014,0.023,-1.006,-14.73,10.72,-112.21000000000001,0.9997,0.015300000000000001,0.0094,0.0155,0.0,0.0,0.003
2025-10-29 18:01:15.576,0.225,0.002,0.001,0.001,-0.015,0.024,-1.0070000000000001,-14.44,10.58,-111.98,0.9997,0.015300000000000001,0.0094,0.0154,0.0,0.0,0.004
2025-10-29 18:01:15.577,0.23,0.0,0.002,0.001,-0.015,0.023,-1.006,-14.44,10.58,-111.98,0.9997,0.015300000000000001,0.0094,0.0155,0.0,0.0,0.003
2025-10-29 18:01:15.577,0.235,0.0,0.0,0.001,-0.014,0.023,-1.006,-14.44,10.58,-111.98,0.9997,0.0152,0.0094,0.015600000000000001,0.0,0.0,0.003
2025-10-29 18:01:15.578,0.24,0.0,0.003,0.0,-0.013000000000000001,0.023,-1.0050000000000001,-14.82,10.49,-112.07000000000001,0.9997,0.0152,0.0094,0.015600000000000001,0.0,0.0,0.002
2025-10-29 18:01:15.578,0.245,0.0,0.002,0.001,-0.014,0.024,-1.0050000000000001,-14.82,10.49,-112.07000000000001,0.9997,0.0152,0.0094,0.0155,0.0,0.0,0.002
2025-10-29 18:01:15.578,0.25,0.001,0.0,0.0,-0.015,0.025,-1.0050000000000001,-14.55,10.49,-112.33,0.9997,0.015300000000000001,0.0094,0.0154,0.001,-0.001,0.002
2025-10-29 18:01:15.579,0.255,0.0,0.001,0.0,-0.015,0.023,-1.0030000000000001,-14.55,10.49,-112.33,0.9997,0.015300000000000001,0.0094,0.0155,0.0,0.0,0.001
2025-10-29 18:01:15.579,0.26,0.001,0.0,0.0,-0.014,0.024,-1.004,-14.55,10.49,-112.33,0.9997,0.015300000000000001,0.0094,0.0154,0.0,0.0,0.002
2025-10-29 18:01:15.580,0.265,-0.001,0.003,0.0,-0.014,0.024,-1.0030000000000001,-14.96,10.9,-112.27,0.9997,0.015300000000000001,0.0094,0.0154,0.0,0.0,0.001
2025-10-29 18:01:15.580,0.27,0.0,0.0,0.0,-0.014,0.024,-1.0050000000000001,-14.96,10.9,-112.27,0.9997,0.015300000000000001,0.0094,0.0154,0.0,0.0,0.002
2025-10-29 18:01:15.580,0.275,0.0,0.0,0.0,-0.015,0.022,-1.0050000000000001,-14.84,9.64,-111.98,0.9997,0.015300000000000001,0.0094,0.0155,0.0,0.001,0.003
2025-10-29 18:01:15.581,0.28,0.0,0.0,0.0,-0.014,0.023,-1.0050000000000001,-14.84,9.64,-111.98,0.9997,0.0152,0.0094,0.0155,0.0,0.0,0.002
2025-10-29 18:01:15.581,0.285,0.004,0.0,0.0,-0.015,0.023,-1.006,-14.84,9.64,-111.98,0.9997,0.0152,0.0094,0.015600000000000001,0.0,0.0,0.003
2025-10-29 18:01:15.581,0.29,0.002,0.0,0.0,-0.015,0.023,-1.006,-14.96,10.84,-112.36,0.9997,0.0152,0.0094,0.015600000000000001,0.0,0.0,0.003
2025-10-29 18:01:15.582,0.295,0.0,0.0,-0.001,-0.016,0.022,-1.0050000000000001,-14.96,10.84,-112.36,0.9997,0.0151,0.0095,0.015600000000000001,0.001,0.001,0.002
2025-10-29 18:01:15.582,0.3,-0.002,0.002,-0.001,-0.014,0.023,-1.0050000000000001,-14.030000000000001,10.81,-112.21000000000001,0.9997,0.0151,0.0095,0.015600000000000001,0.0,0.0,0.003
2025-10-29 18:01:15.583,0.305,0.0,0.0,0.001,-0.014,0.023,-1.0070000000000001,-14.030000000000001,10.81,-112.21000000000001,0.9997,0.0151,0.0094,0.015700000000000002,0.0,0.0,0.004
2025-10-29 18:01:15.583,0.31,-0.001,0.0,0.0,-0.016,0.022,-1.0070000000000001,-14.030000000000001,10.81,-112.21000000000001,0.9997,0.0151,0.0095,0.015700000000000002,0.001,0.0,0.004
2025-10-29 18:01:15.583,0.315,-0.001,-0.001,0.002,-0.014,0.024,-1.008,-14.9,9.99,-112.39,0.9997,0.0151,0.0095,0.015700000000000002,0.0,0.0,0.006
2025-10-29 18:01:15.584,0.32,0.0,0.0,0.0,-0.014,0.023,-1.0050000000000001,-14.9,9.99,-112.39,0.9997,0.0151,0.0095,0.015700000000000002,0.0,0.0,0.002
2025-10-29 18:01:15.584,0.325,-0.004,-0.002,0.0,-0.014,0.023,-1.004,-14.52,9.85,-112.51,0.9997,0.0151,0.0094,0.015700000000000002,0.0,0.0,0.001
2025-10-29 18:01:15.585,0.33,-0.002,0.0,0.001,-0.014,0.025,-1.002,-14.52,9.85,-112.51,0.9997,0.0152,0.0094,0.015600000000000001,0.0,-0.001,0.0
2025-10-29 18:01:15.585,0.335,-0.001,0.002,0.0,-0.014,0.025,-1.002,-14.73,10.870000000000001,-112.07000000000001,0.9997,0.015300000000000001,0.0094,0.0155,0.0,-0.001,0.0
2025-10-29 18:01:15.586,0.34,0.0,0.0,0.001,-0.015,0.025,-1.0010000000000001,-14.73,10.870000000000001,-112.07000000000001,0.9997,0.0154,0.0094,0.0154,0.0,-0.001,-0.001
2025-10-29 18:01:15.586,0.345,0.0,0.0,0.002,-0.014,0.024,-1.0010000000000001,-14.73,10.870000000000001,-112.07000000000001,0.9997,0.0154,0.0094,0.0154,0.0,0.0,0.0
2025-10-29 18:01:15.587,0.35,0.001,0.0,0.0,-0.015,0.023,-1.0030000000000001,-14.35,10.72,-112.36,0.9997,0.015300000000000001,0.0094,0.0155,0.0,0.0,0.0
2025-10-29 18:01:15.587,0.355,0.0,0.0,0.0,-0.014,0.024,-1.002,-14.35,10.72,-112.36,0.9997,0.0154,0.0094,0.0154,0.0,0.0,0.0
2025-10-29 18:01:15.587,0.36,0.004,0.0,0.0,-0.015,0.023,-1.002,-14.93,10.61,-113.15,0.9997,0.015300000000000001,0.0094,0.0154,0.0,0.0,0.0
2025-10-29 18:01:15.588,0.365,0.0,0.001,0.0,-0.014,0.024,-1.004,-14.93,10.61,-113.15,0.9997,0.0154,0.0094,0.0154,0.0,0.0,0.001
2025-10-29 18:01:15.588,0.37,0.001,0.0,0.002,-0.014,0.023,-1.0050000000000001,-14.93,10.61,-113.15,0.9997,0.015300000000000001,0.0094,0.0154,0.0,0.0,0.002
2025-10-29 18:01:15.588,0.375,0.002,0.002,0.001,-0.014,0.023,-1.0070000000000001,-14.700000000000001,10.43,-112.56,0.9997,0.015300000000000001,0.0094,0.0154,0.0,0.0,0.004
2025-10-29 18:01:15.589,0.38,0.0,0.0,0.001,-0.015,0.023,-1.0070000000000001,-14.700000000000001,10.43,-112.56,0.9997,0.015300000000000001,0.0094,0.0154,0.0,0.0,0.005
2025-10-29 18:01:15.589,0.385,0.0,0.0,0.002,-0.015,0.023,-1.0070000000000001,-14.61,10.55,-112.54,0.9997,0.0152,0.0094,0.0154,0.0,0.0,0.004
2025-10-29 18:01:15.590,0.39,0.0,0.0,0.001,-0.015,0.022,-1.008,-14.61,10.55,-112.54,0.9997,0.0152,0.0094,0.0155,0.0,0.0,0.005
2025-10-29 18:01:15.590,0.395,0.0,0.001,0.001,-0.014,0.022,-1.008,-14.61,10.55,-112.54,0.9997,0.0151,0.0094,0.0155,0.0,0.001,0.005
2025-10-29 18:01:15.590,0.4,-0.002,0.0,0.0,-0.015,0.022,-1.008,-14.82,10.69,-112.86,0.9997,0.0151,0.0094,0.0155,0.0,0.0,0.005
2025-10-29 18:01:15.591,0.405,-0.001,-0.001,0.0,-0.014,0.023,-1.0090000000000001,-14.82,10.69,-112.86,0.9997,0.0151,0.0094,0.015600000000000001,0.0,0.0,0.006
2025-10-29 18:01:15.591,0.41,-0.001,0.0,0.0,-0.015,0.023,-1.006,-14.46,10.4,-112.33,0.9997,0.0151,0.0094,0.0155,0.0,0.0,0.003
2025-10-29 18:01:15.592,0.415,0.0,0.0,-0.001,-0.015,0.022,-1.004,-14.46,10.4,-112.33,0.9997,0.015000000000000001,0.0095,0.015600000000000001,0.0,0.0,0.001
2025-10-29 18:01:15.592,0.42,-0.001,0.001,0.0,-0.015,0.022,-1.0030000000000001,-14.84,10.49,-112.68,0.9997,0.015000000000000001,0.0095,0.015600000000000001,0.0,0.0,0.0
2025-10-29 18:01:15.592,0.425,0.0,0.0,0.001,-0.013000000000000001,0.023,-1.004,-14.84,10.49,-112.68,0.9997,0.015000000000000001,0.0094,0.015600000000000001,-0.001,0.0,0.001
2025-10-29 18:01:15.593,0.43,-0.003,0.002,0.0,-0.014,0.023,-1.002,-14.84,10.49,-112.68,0.9997,0.015000000000000001,0.0094,0.015600000000000001,0.0,0.0,0.0
2025-10-29 18:01:15.593,0.435,0.0,0.0,0.0,-0.015,0.021,-1.0,-13.790000000000001,10.58,-112.18,0.9997,0.015000000000000001,0.0094,0.015600000000000001,0.0,0.001,-0.001
2025-10-29 18:01:15.594,0.44,0.0,0.0,0.0,-0.015,0.023,-1.0010000000000001,-13.790000000000001,10.58,-112.18,0.9997,0.015000000000000001,0.0094,0.015600000000000001,0.0,0.0,-0.001
2025-10-29 18:01:15.594,0.445,0.0,0.0,0.0,-0.015,0.024,-1.002,-14.700000000000001,8.24,-112.33,0.9997,0.015000000000000001,0.0095,0.0155,0.0,-0.001,0.0
2025-10-29 18:01:15.594,0.45,0.002,0.0,0.0,-0.014,0.025,-1.002,-14.700000000000001,8.24,-112.33,0.9997,0.0151,0.0095,0.0155,0.0,-0.001,0.0
2025-10-29 18:01:15.595,0.455,0.0,0.0,0.0,-0.014,0.024,-1.004,-14.700000000000001,8.24,-112.33,0.9997,0.0152,0.0094,0.0155,0.0,-0.001,0.001
2025-10-29 18:01:15.595,0.46,0.0,0.0,0.0,-0.013000000000000001,0.024,-1.004,-15.02,11.02,-112.68,0.9997,0.0152,0.0094,0.0155,-0.001,0.0,0.001
2025-10-29 18:01:15.596,0.465,0.0,0.001,0.0,-0.014,0.024,-1.0050000000000001,-15.02,11.02,-112.68,0.9997,0.0152,0.0094,0.0155,0.0,0.0,0.002
2025-10-29 18:01:15.596,0.47,0.001,-0.001,0.001,-0.014,0.022,-1.006,-14.61,9.76,-112.59,0.9997,0.0151,0.0094,0.0155,0.0,0.0,0.003
2025-10-29 18:01:15.596,0.475,0.001,0.0,-0.001,-0.015,0.023,-1.0070000000000001,-14.61,9.76,-112.59,0.9997,0.0151,0.0094,0.0155,0.0,0.0,0.004
2025-10-29 18:01:15.597,0.48,-0.001,0.002,0.0,-0.014,0.022,-1.008,-14.61,9.76,-112.59,0.9997,0.0151,0.0094,0.0155,0.0,0.0,0.005
2025-10-29 18:01:15.597,0.485,-0.003,0.0,0.0,-0.015,0.022,-1.0050000000000001,-15.05,10.26,-112.45,0.9997,0.015000000000000001,0.0094,0.0155,0.0,0.001,0.002
2025-10-29 18:01:15.598,0.49,-0.002,0.002,0.0,-0.014,0.023,-1.004,-15.05,10.26,-112.45,0.9997,0.015000000000000001,0.0094,0.0155,0.0,0.0,0.001
2025-10-29 18:01:15.598,0.495,0.0,0.0,0.003,-0.014,0.022,-1.0050000000000001,-13.94,9.790000000000001,-113.06,0.9997,0.015000000000000001,0.0094,0.0155,0.0,0.0,0.002
2025-10-29 18:01:15.598,0.5,0.0,0.0,0.001,-0.015,0.023,-1.004,-13.94,9.790000000000001,-113.06,0.9997,0.015000000000000001,0.0094,0.0155,0.0,0.0,0.001
2025-10-29 18:01:15.599,0.505,0.0,0.001,0.0,-0.014,0.021,-1.002,-13.94,9.790000000000001,-113.06,0.9997,0.0149,0.0094,0.0155,0.0,0.001,0.0
2025-10-29 18:01:15.599,0.51,0.0,0.0,0.001,-0.014,0.023,-1.002,-14.9,10.14,-112.16,0.9997,0.0149,0.0094,0.0155,0.0,0.0,0.0
2025-10-29 18:01:15.600,0.515,0.0,0.0,0.0,-0.013000000000000001,0.024,-1.002,-14.9,10.14,-112.16,0.9997,0.015000000000000001,0.009300000000000001,0.0155,0.0,-0.001,0.0
2025-10-29 18:01:15.600,0.52,0.0,0.0,-0.001,-0.015,0.024,-1.0050000000000001,-14.08,10.31,-113.03,0.9997,0.0151,0.0094,0.0155,0.0,-0.001,0.002
2025-10-29 18:01:15.600,0.525,-0.001,0.0,0.001,-0.014,0.023,-1.006,-14.08,10.31,-113.03,0.9997,0.0151,0.009300000000000001,0.0155,0.0,0.0,0.003
2025-10-29 18:01:15.601,0.53,-0.001,0.0,0.0,-0.015,0.024,-1.0050000000000001,-14.790000000000001,10.9,-112.8,0.9997,0.0151,0.0094,0.0155,0.0,-0.001,0.002
2025-10-29 18:01:15.601,0.535,0.0,-0.002,0.0,-0.014,0.024,-1.004,-14.790000000000001,10.9,-112.8,0.9997,0.0152,0.009300000000000001,0.0155,0.0,0.0,0.001
2025-10-29 18:01:15.601,0.54,-0.001,0.002,0.001,-0.014,0.023,-1.004,-14.790000000000001,10.9,-112.8,0.9997,0.0152,0.009300000000000001,0.0155,0.0,0.0,0.001
2025-10-29 18:01:15.602,0.545,0.0,0.0,0.0,-0.012,0.024,-1.004,-14.55,10.66,-112.65,0.9997,0.0152,0.009300000000000001,0.0155,-0.001,0.0,0.001
2025-10-29 18:01:15.602,0.55,0.001,0.0,0.0,-0.014,0.023,-1.0030000000000001,-14.55,10.66,-112.65,0.9997,0.0152,0.0092,0.0155,0.0,0.0,0.0
2025-10-29 18:01:15.603,0.555,0.001,0.0,0.001,-0.014,0.023,-1.002,-14.700000000000001,10.4,-112.27,0.9997,0.0152,0.0092,0.0155,0.0,0.0,0.0
2025-10-29 18:01:15.603,0.56,-0.001,-0.002,0.002,-0.014,0.023,-1.002,-14.700000000000001,10.4,-112.27,0.9997,0.0152,0.0092,0.0155,0.0,0.0,0.0
2025-10-29 18:01:15.603,0.565,0.0,0.002,0.001,-0.015,0.025,-1.0010000000000001,-14.700000000000001,10.4,-112.27,0.9997,0.015300000000000001,0.009300000000000001,0.0155,0.0,-0.001,-0.001
2025-10-29 18:01:15.604,0.57,0.0,0.0,0.0,-0.015,0.025,-1.0010000000000001,-14.44,10.26,-112.54,0.9997,0.0154,0.009300000000000001,0.0155,0.0,-0.001,-0.001
2025-10-29 18:01:15.604,0.575,0.002,-0.002,0.001,-0.014,0.024,-1.002,-14.44,10.26,-112.54,0.9997,0.0154,0.009300000000000001,0.0155,0.0,0.0,0.0
2025-10-29 18:01:15.604,0.58,0.002,0.0,0.0,-0.015,0.024,-1.0010000000000001,-14.55,10.78,-112.86,0.9997,0.0154,0.009300000000000001,0.0155,0.0,0.0,0.0
2025-10-29 18:01:15.605,0.585,0.002,0.0,0.0,-0.013000000000000001,0.023,-1.006,-14.55,10.78,-112.86,0.9997,0.015300000000000001,0.009300000000000001,0.0155,0.0,0.0,0.003
2025-10-29 18:01:15.605,0.59,-0.001,0.002,-0.001,-0.014,0.024,-1.0070000000000001,-14.55,10.78,-112.86,0.9997,0.0154,0.009300000000000001,0.0155,0.0,0.0,0.005
2025-10-29 18:01:15.605,0.595,0.0,0.002,0.0,-0.015,0.023,-1.008,-14.06,9.41,-113.09,0.9997,0.015300000000000001,0.009300000000000001,0.0155,0.001,0.0,0.005
2025-10-29 18:01:15.606,0.6,0.001,0.0,0.0,-0.014,0.023,-1.008,-14.06,9.41,-113.09,0.9997,0.015300000000000001,0.009300000000000001,0.0155,0.0,0.0,0.006
2025-10-29 18:01:15.606,0.605,0.002,0.0,0.0,-0.013000000000000001,0.023,-1.004,-14.93,10.370000000000001,-113.38,0.9997,0.015300000000000001,0.009300000000000001,0.0155,-0.001,0.0,0.001
2025-10-29 18:01:15.607,0.61,0.0,0.0,0.0,-0.015,0.023,-1.0030000000000001,-14.93,10.370000000000001,-113.38,0.9997,0.015300000000000001,0.009300000000000001,0.0155,0.0,0.0,0.0
2025-10-29 18:01:15.607,0.615,0.0,0.001,0.0,-0.015,0.024,-1.0030000000000001,-14.290000000000001,10.17,-112.8,0.9997,0.015300000000000001,0.009300000000000001,0.0155,0.001,0.0,0.0
2025-10-29 18:01:15.607,0.62,0.0,0.0,0.0,-0.015,0.023,-1.004,-14.290000000000001,10.17,-112.8,0.9997,0.015300000000000001,0.0094,0.0155,0.0,0.0,0.001
2025-10-29 18:01:15.608,0.625,-0.001,-0.001,0.001,-0.015,0.023,-1.004,-14.290000000000001,10.17,-112.8,0.9997,0.0152,0.0094,0.0155,0.0,0.0,0.001
2025-10-29 18:01:15.608,0.63,0.0,0.0,0.001,-0.014,0.024,-1.004,-14.46,10.64,-112.71000000000001,0.9997,0.015300000000000001,0.0094,0.0155,0.0,0.0,0.001
2025-10-29 18:01:15.608,0.635,0.0,0.0,0.0,-0.014,0.024,-1.0030000000000001,-14.46,10.64,-112.71000000000001,0.9997,0.015300000000000001,0.0094,0.0155,0.0,0.0,0.0
2025-10-29 18:01:15.609,0.64,-0.001,0.0,0.0,-0.014,0.024,-1.0010000000000001,-14.52,10.31,-112.74000000000001,0.9997,0.015300000000000001,0.0094,0.0155,0.0,0.0,-0.001
2025-10-29 18:01:15.609,0.645,0.0,0.0,0.0,-0.014,0.022,-1.002,-14.52,10.31,-112.74000000000001,0.9997,0.015300000000000001,0.0094,0.0155,0.0,0.001,0.0
2025-10-29 18:01:15.610,0.65,0.001,0.0,0.0,-0.015,0.024,-1.002,-14.52,10.31,-112.74000000000001,0.9997,0.015300000000000001,0.0094,0.0155,0.0,0.0,0.0
2025-10-29 18:01:15.610,0.655,0.001,0.0,0.001,-0.014,0.023,-1.002,-14.64,10.49,-112.94,0.9997,0.0152,0.0094,0.0155,0.0,0.0,0.0
2025-10-29 18:01:15.610,0.66,-0.001,0.0,-0.001,-0.014,0.023,-1.0030000000000001,-14.64,10.49,-112.94,0.9997,0.0152,0.0094,0.0155,0.0,0.0,0.001
2025-10-29 18:01:15.611,0.665,-0.002,0.0,-0.001,-0.014,0.023,-1.0050000000000001,-14.84,10.43,-111.89,0.9997,0.0152,0.0094,0.0155,0.0,0.0,0.002
2025-10-29 18:01:15.611,0.67,0.001,0.0,0.0,-0.014,0.023,-1.004,-14.84,10.43,-111.89,0.9997,0.0152,0.0094,0.0155,0.0,0.0,0.001
2025-10-29 18:01:15.612,0.675,0.001,0.0,0.001,-0.015,0.023,-1.0010000000000001,-14.84,10.43,-111.89,0.9997,0.0152,0.0094,0.0155,0.0,0.0,0.0
2025-10-29 18:01:15.612,0.68,0.002,0.0,0.001,-0.014,0.022,-1.002,-14.52,10.99,-112.3,0.9997,0.0151,0.0094,0.0155,0.0,0.0,0.0
2025-10-29 18:01:15.612,0.685,0.001,0.0,0.003,-0.015,0.023,-1.0050000000000001,-14.52,10.99,-112.3,0.9997,0.0151,0.0094,0.0155,0.0,0.0,0.002
2025-10-29 18:01:15.613,0.69,0.0,0.0,0.0,-0.015,0.023,-1.004,-14.58,10.58,-112.39,0.9997,0.0151,0.0094,0.0155,0.0,0.0,0.001
2025-10-29 18:01:15.613,0.695,0.001,0.0,0.0,-0.015,0.022,-1.006,-14.58,10.58,-112.39,0.9997,0.0151,0.0094,0.0155,0.001,0.0,0.003
2025-10-29 18:01:15.613,0.7,0.001,0.0,0.001,-0.014,0.023,-1.0070000000000001,-14.44,10.58,-112.92,0.9997,0.0151,0.0094,0.0155,0.0,0.0,0.004
2025-10-29 18:01:15.614,0.705,0.001,0.0,0.0,-0.015,0.023,-1.0070000000000001,-14.44,10.58,-112.92,0.9997,0.0151,0.0094,0.0155,0.0,0.0,0.004
2025-10-29 18:01:15.614,0.71,-0.001,0.0,0.0,-0.015,0.022,-1.0050000000000001,-14.44,10.58,-112.92,0.9997,0.015000000000000001,0.0095,0.0155,0.0,0.0,0.002
2025-10-29 18:01:15.615,0.715,-0.003,0.001,-0.001,-0.014,0.023,-1.004,-14.52,10.96,-112.86,0.9997,0.0151,0.0094,0.0155,0.0,0.0,0.001
2025-10-29 18:01:15.615,0.72,-0.003,-0.002,0.001,-0.014,0.024,-1.004,-14.52,10.96,-112.86,0.9997,0.0151,0.0094,0.0155,0.0,0.0,0.001
2025-10-29 18:01:15.615,0.725,-0.001,0.002,0.0,-0.014,0.023,-1.0030000000000001,-14.82,10.870000000000001,-112.94,0.9997,0.0151,0.0094,0.0155,0.0,0.0,0.0
2025-10-29 18:01:15.616,0.73,-0.001,0.0,0.001,-0.014,0.022,-1.0010000000000001,-14.82,10.870000000000001,-112.94,0.9997,0.015000000000000001,0.0094,0.0155,0.0,0.001,-0.001
2025-10-29 18:01:15.616,0.735,0.0,0.002,0.0,-0.016,0.023,-1.002,-14.82,10.870000000000001,-112.94,0.9997,0.015000000000000001,0.0095,0.0155,0.001,0.0,0.0
2025-10-29 18:01:15.616,0.74,0.0,0.0,0.0,-0.014,0.024,-1.0,-14.790000000000001,10.99,-112.21000000000001,0.9997,0.0151,0.0095,0.0155,0.0,-0.001,-0.002
2025-10-29 18:01:15.617,0.745,0.0,-0.002,0.001,-0.014,0.023,-1.002,-14.790000000000001,10.99,-112.21000000000001,0.9997,0.0151,0.0095,0.0155,0.0,0.0,0.0
2025-10-29 18:01:15.617,0.75,0.0,0.0,0.0,-0.015,0.023,-1.002,-14.49,9.76,-112.65,0.9997,0.0151,0.0095,0.0155,0.0,0.0,0.0
2025-10-29 18:01:15.617,0.755,0.001,0.0,0.0,-0.014,0.023,-1.0010000000000001,-14.49,9.76,-112.65,0.9997,0.0151,0.0095,0.0155,0.0,0.0,-0.001
2025-10-29 18:01:15.618,0.76,0.0,0.0,0.0,-0.013000000000000001,0.023,-1.002,-14.49,9.76,-112.65,0.9997,0.0151,0.0094,0.0155,-0.001,0.0,0.0
2025-10-29 18:01:15.618,0.765,-0.001,0.0,0.0,-0.015,0.023,-1.004,-15.22,11.1,-112.51,0.9997,0.0151,0.0094,0.0155,0.0,0.0,0.001
2025-10-29 18:01:15.619,0.77,0.0,0.0,0.0,-0.014,0.022,-1.0050000000000001,-15.22,11.1,-112.51,0.9997,0.015000000000000001,0.0094,0.0155,0.0,0.0,0.002
2025-10-29 18:01:15.619,0.775,0.002,0.0,0.001,-0.014,0.023,-1.0050000000000001,-15.11,11.31,-112.33,0.9997,0.0151,0.0094,0.0155,0.0,0.0,0.003
2025-10-29 18:01:15.619,0.78,0.0,0.0,0.001,-0.013000000000000001,0.023,-1.0050000000000001,-15.11,11.31,-112.33,0.9997,0.015000000000000001,0.0094,0.0155,0.0,0.0,0.002
2025-10-29 18:01:15.620,0.785,-0.001,0.0,0.0,-0.015,0.024,-1.0050000000000001,-15.11,11.31,-112.33,0.9997,0.0151,0.0094,0.0155,0.0,-0.001,0.003
2025-10-29 18:01:15.620,0.79,0.0,0.001,0.001,-0.015,0.024,-1.004,-15.11,10.9,-112.3,0.9997,0.0151,0.0094,0.0155,0.0,0.0,0.001
2025-10-29 18:01:15.620,0.795,-0.001,0.0,0.001,-0.014,0.023,-1.002,-15.11,10.9,-112.3,0.9997,0.0151,0.0094,0.0155,0.0,0.0,0.0
2025-10-29 18:01:15.621,0.8,0.001,0.0,0.002,-0.013000000000000001,0.021,-1.0010000000000001,-14.790000000000001,9.52,-112.71000000000001,0.9997,0.015000000000000001,0.009300000000000001,0.0155,-0.001,0.001,-0.001
2025-10-29 18:01:15.621,0.805,-0.001,0.001,0.0,-0.015,0.024,-1.0030000000000001,-14.790000000000001,9.52,-112.71000000000001,0.9997,0.0151,0.0094,0.0155,0.001,-0.001,0.0
2025-10-29 18:01:15.622,0.81,-0.002,-0.002,0.0,-0.014,0.023,-1.004,-14.84,10.69,-113.5,0.9997,0.0151,0.0094,0.0155,0.0,0.0,0.001
2025-10-29 18:01:15.622,0.815,-0.003,0.0,-0.001,-0.013000000000000001,0.024,-1.0050000000000001,-14.84,10.69,-113.5,0.9997,0.0151,0.009300000000000001,0.0155,0.0,-0.001,0.002
2025-10-29 18:01:15.622,0.82,-0.001,0.0,0.0,-0.014,0.024,-1.0050000000000001,-14.84,10.69,-113.5,0.9997,0.0152,0.009300000000000001,0.0155,0.0,0.0,0.002
2025-10-29 18:01:15.623,0.825,0.0,0.0,0.0,-0.014,0.023,-1.01,-14.49,9.93,-112.3,0.9997,0.0152,0.009300000000000001,0.0155,0.0,0.0,0.007
2025-10-29 18:01:15.623,0.83,-0.002,0.0,-0.001,-0.013000000000000001,0.025,-1.008,-14.49,9.93,-112.3,0.9997,0.015300000000000001,0.009300000000000001,0.0155,-0.001,-0.002,0.005
2025-10-29 18:01:15.624,0.835,-0.001,0.0,0.0,-0.014,0.023,-1.002,-15.02,11.42,-112.39,0.9997,0.015300000000000001,0.0092,0.0155,0.0,0.0,0.0
2025-10-29 18:01:15.624,0.84,-0.001,0.0,0.0,-0.015,0.023,-1.0030000000000001,-15.02,11.42,-112.39,0.9997,0.015300000000000001,0.009300000000000001,0.0155,0.0,0.0,0.0
2025-10-29 18:01:15.624,0.845,-0.001,-0.002,0.0,-0.015,0.023,-1.002,-15.02,11.42,-112.39,0.9997,0.0152,0.009300000000000001,0.0155,0.0,0.0,0.0
2025-10-29 18:01:15.625,0.85,0.0,-0.001,0.001,-0.014,0.022,-1.0,-14.26,9.120000000000001,-112.13,0.9997,0.0152,0.009300000000000001,0.0155,0.0,0.0,-0.002
2025-10-29 18:01:15.625,0.855,-0.001,0.0,0.0,-0.014,0.023,-1.0010000000000001,-14.26,9.120000000000001,-112.13,0.9997,0.0152,0.009300000000000001,0.0155,0.0,0.0,-0.001
2025-10-29 18:01:15.626,0.86,0.0,0.0,0.0,-0.015,0.024,-1.0,-14.64,10.72,-111.95,0.9997,0.0152,0.009300000000000001,0.0155,0.0,0.0,-0.002
2025-10-29 18:01:15.626,0.905,0.0,0.0,0.0,-0.013000000000000001,0.023,-1.0070000000000001,-15.31,10.4,-113.06,0.9997,0.0152,0.009300000000000001,0.0155,0.0,0.0,0.005
2025-10-29 18:01:15.626,0.91,-0.003,0.0,0.001,-0.014,0.023,-1.004,-14.67,9.85,-112.56,0.9997,0.0152,0.009300000000000001,0.0155,0.0,0.0,0.001
2025-10-29 18:01:15.627,0.915,-0.001,0.0,0.0,-0.015,0.024,-1.0030000000000001,-14.67,9.85,-112.56,0.9997,0.0152,0.009300000000000001,0.0155,0.001,-0.001,0.0
2025-10-29 18:01:15.627,0.92,0.0,0.0,0.0,-0.013000000000000001,0.025,-1.0010000000000001,-14.73,10.81,-113.3,0.9997,0.015300000000000001,0.009300000000000001,0.0155,0.0,-0.001,-0.001
2025-10-29 18:01:15.627,0.925,0.0,0.0,0.0,-0.014,0.023,-0.999,-14.73,10.81,-113.3,0.9997,0.015300000000000001,0.009300000000000001,0.0155,0.0,0.0,-0.002
2025-10-29 18:01:15.628,0.93,0.002,0.0,0.003,-0.015,0.024,-0.999,-14.73,10.81,-113.3,0.9997,0.015300000000000001,0.009300000000000001,0.0155,0.0,0.0,-0.003
2025-10-29 18:01:15.628,0.935,0.0,0.0,0.001,-0.014,0.026000000000000002,-1.0,-14.700000000000001,10.69,-113.24000000000001,0.9997,0.0154,0.009300000000000001,0.0155,0.0,-0.001,-0.002
2025-10-29 18:01:15.628,0.94,0.001,-0.002,0.001,-0.014,0.024,-0.999,-14.700000000000001,10.69,-113.24000000000001,0.9997,0.0154,0.0094,0.0155,0.0,0.0,-0.003
2025-10-29 18:01:15.629,0.945,0.002,0.001,0.0,-0.015,0.024,-1.0,-14.76,10.72,-113.3,0.9997,0.0154,0.0094,0.0155,0.0,0.0,-0.002
2025-10-29 18:01:15.629,0.95,0.004,-0.001,0.001,-0.014,0.024,-1.002,-14.76,10.72,-113.3,0.9997,0.0154,0.009300000000000001,0.0155,0.0,0.0,0.0
2025-10-29 18:01:15.630,0.955,0.004,0.0,-0.001,-0.014,0.024,-1.004,-14.76,10.72,-113.3,0.9997,0.0154,0.009300000000000001,0.0155,0.0,0.0,0.002
2025-10-29 18:01:15.630,0.96,0.002,0.002,0.0,-0.014,0.023,-1.008,-14.93,10.9,-113.0,0.9997,0.0154,0.009300000000000001,0.0155,0.0,0.0,0.005
2025-10-29 18:01:15.630,0.965,0.001,-0.003,0.0,-0.014,0.023,-1.01,-14.93,10.9,-113.0,0.9997,0.015300000000000001,0.009300000000000001,0.0155,0.0,0.0,0.007
2025-10-29 18:01:15.631,0.97,0.0,0.0,0.0,-0.015,0.022,-1.012,-14.76,10.52,-112.45,0.9997,0.0152,0.009300000000000001,0.0155,0.0,0.001,0.009000000000000001
2025-10-29 18:01:15.631,0.975,-0.002,-0.001,0.001,-0.014,0.022,-1.0090000000000001,-14.76,10.52,-112.45,0.9997,0.0152,0.009300000000000001,0.0154,0.0,0.001,0.006
2025-10-29 18:01:15.631,0.98,-0.003,0.002,-0.001,-0.013000000000000001,0.023,-1.0070000000000001,-14.23,10.52,-113.41,0.9997,0.0152,0.009300000000000001,0.0155,0.0,0.0,0.004
2025-10-29 18:01:15.632,0.985,-0.001,0.0,0.0,-0.014,0.023,-1.0030000000000001,-14.23,10.02,-113.41,0.9997,0.0152,0.009300000000000001,0.0155,0.0,0.0,0.0
2025-10-29 18:01:15.632,0.99,-0.002,-0.001,0.001,-0.016,0.023,-1.002,-14.23,10.02,-113.41,0.9997,0.0152,0.009300000000000001,0.0154,0.001,0.0,0.0
2025-10-29 18:01:15.632,0.995,-0.001,-0.001,0.0,-0.013000000000000001,0.023,-0.999,-15.14,10.72,-112.97,0.9997,0.0152,0.009300000000000001,0.0155,0.0,0.0,-0.003
2025-10-29 18:01:15.633,1.0,-0.001,0.0,0.0,-0.013000000000000001,0.023,-1.0,-15.14,10.72,-112.97,0.9997,0.0152,0.009300000000000001,0.0155,0.0,0.0,-0.002
2025-10-29 18:01:15.633,1.005,0.001,-0.001,0.0,-0.014,0.023,-0.997,-14.61,8.41,-112.42,0.9997,0.0152,0.009300000000000001,0.0155,0.0,0.0,-0.005
2025-10-29 18:01:15.633,1.01,0.0,0.0,-0.001,-0.015,0.023,-0.999,-14.61,8.41,-112.42,0.9997,0.0152,0.009300000000000001,0.0155,0.001,0.0,-0.003
2025-10-29 18:01:15.634,1.015,0.0,0.0,-0.001,-0.015,0.023,-0.997,-14.61,8.41,-112.42,0.9997,0.0152,0.0094,0.0155,0.0,0.0,-0.005
2025-10-29 18:01:15.634,1.02,0.001,0.0,0.0,-0.014,0.023,-1.0010000000000001,-14.790000000000001,10.78,-113.18,0.9997,0.0152,0.0094,0.0155,0.0,0.0,-0.001
2025-10-29 18:01:15.635,1.04,0.001,0.0,0.0,-0.015,0.024,-1.008,-14.870000000000001,10.75,-113.18,0.9997,0.0152,0.009300000000000001,0.0155,0.0,-0.001,0.005
2025-10-29 18:01:15.635,1.045,0.0,0.002,0.0,-0.014,0.024,-1.0090000000000001,-14.790000000000001,10.4,-112.97,0.9997,0.0152,0.009300000000000001,0.0155,0.0,0.0,0.006
2025-10-29 18:01:15.635,1.05,0.001,0.0,0.001,-0.013000000000000001,0.022,-1.0070000000000001,-14.790000000000001,10.4,-112.97,0.9997,0.0152,0.0092,0.0154,-0.001,0.001,0.004
2025-10-29 18:01:15.636,1.055,-0.001,0.0,0.0,-0.015,0.022,-1.006,-14.790000000000001,11.370000000000001,-112.21000000000001,0.9997,0.0151,0.009300000000000001,0.0154,0.001,0.0,0.003
2025-10-29 18:01:15.636,1.06,0.0,0.0,0.0,-0.015,0.022,-1.004,-14.790000000000001,11.370000000000001,-112.21000000000001,0.9997,0.0151,0.009300000000000001,0.0154,0.0,0.0,0.001
2025-10-29 18:01:15.636,1.065,0.0,-0.002,0.001,-0.015,0.022,-1.002,-14.790000000000001,11.370000000000001,-112.21000000000001,0.9997,0.0151,0.0094,0.0154,0.0,0.0,0.0
2025-10-29 18:01:15.637,1.07,0.0,0.001,0.0,-0.014,0.023,-1.0010000000000001,-14.870000000000001,9.82,-112.92,0.9997,0.0151,0.009300000000000001,0.0154,0.0,0.0,-0.001
2025-10-29 18:01:15.637,1.075,0.0,0.0,0.001,-0.015,0.022,-1.0,-14.870000000000001,9.82,-112.92,0.9997,0.015000000000000001,0.0094,0.0154,0.0,0.0,-0.002
2025-10-29 18:01:15.638,1.08,-0.001,-0.001,0.001,-0.015,0.023,-1.0,-14.67,11.25,-113.41,0.9997,0.0151,0.0094,0.015300000000000001,0.0,0.0,-0.002
2025-10-29 18:01:15.638,1.085,-0.001,-0.001,-0.001,-0.013000000000000001,0.023,-1.0,-14.67,11.25,-113.41,0.9997,0.0151,0.0094,0.0154,-0.001,0.0,-0.002
2025-10-29 18:01:15.638,1.09,0.0,0.0,-0.001,-0.014,0.023,-1.0,-13.65,10.43,-113.38,0.9997,0.0151,0.009300000000000001,0.0154,0.0,0.0,-0.002
2025-10-29 18:01:15.639,1.095,-0.003,0.002,0.0,-0.014,0.023,-1.0010000000000001,-13.65,10.43,-113.38,0.9997,0.0151,0.009300000000000001,0.0154,0.0,0.0,-0.001
2025-10-29 18:01:15.639,1.1,0.001,0.0,0.0,-0.013000000000000001,0.024,-1.0010000000000001,-13.65,10.43,-113.38,0.9997,0.0151,0.009300000000000001,0.0154,0.0,0.0,-0.001
2025-10-29 18:01:15.640,1.105,0.0,0.0,0.001,-0.014,0.023,-1.0030000000000001,-14.84,11.48,-112.86,0.9997,0.0151,0.009300000000000001,0.0154,0.0,0.0,0.0
2025-10-29 18:01:15.640,1.11,0.001,0.0,0.0,-0.014,0.023,-1.0030000000000001,-14.84,11.48,-112.86,0.9997,0.0151,0.009300000000000001,0.0154,0.0,0.0,0.0
2025-10-29 18:01:15.640,1.115,0.001,0.0,0.001,-0.015,0.023,-1.002,-14.76,11.19,-113.18,0.9997,0.0151,0.009300000000000001,0.0154,0.0,0.0,0.0
2025-10-29 18:01:15.641,1.12,0.002,0.0,0.0,-0.015,0.023,-1.0030000000000001,-14.76,11.19,-113.18,0.9997,0.0151,0.009300000000000001,0.0154,0.0,0.0,0.0
2025-10-29 18:01:15.641,1.125,0.001,0.0,0.0,-0.014,0.024,-1.002,-14.76,11.19,-113.18,0.9997,0.0152,0.009300000000000001,0.015300000000000001,0.0,-0.001,0.0
2025-10-29 18:01:15.641,1.13,0.0,0.0,0.0,-0.016,0.023,-1.006,-14.41,10.61,-113.0,0.9997,0.0152,0.0094,0.0154,0.001,0.0,0.003
2025-10-29 18:01:15.642,1.135,0.0,0.0,0.001,-0.014,0.023,-1.006,-14.41,10.61,-113.0,0.9997,0.0151,0.0094,0.0154,0.0,0.0,0.003
2025-10-29 18:01:15.642,1.14,0.0,0.0,0.001,-0.014,0.022,-1.004,-14.290000000000001,10.75,-112.71000000000001,0.9997,0.0151,0.0094,0.0154,0.0,0.0,0.001
2025-10-29 18:01:15.643,1.145,0.0,0.001,0.0,-0.015,0.023,-1.0050000000000001,-14.290000000000001,10.75,-112.71000000000001,0.9997,0.0151,0.0094,0.015300000000000001,0.0,0.0,0.002
2025-10-29 18:01:15.643,1.15,-0.003,0.002,0.0,-0.014,0.023,-1.0030000000000001,-14.290000000000001,10.75,-112.71000000000001,0.9997,0.0151,0.0094,0.015300000000000001,0.0,0.0,0.0
2025-10-29 18:01:15.643,1.155,-0.003,0.0,0.0,-0.015,0.023,-1.006,-14.700000000000001,11.02,-113.27,0.9997,0.0151,0.0094,0.015300000000000001,0.0,0.0,0.003
2025-10-29 18:01:15.644,1.16,-0.001,0.001,0.0,-0.014,0.023,-1.0050000000000001,-14.700000000000001,11.02,-113.27,0.9997,0.0151,0.0094,0.0154,0.0,0.0,0.002
2025-10-29 18:01:15.644,1.165,-0.003,0.0,0.0,-0.014,0.022,-1.0050000000000001,-14.84,11.28,-112.59,0.9997,0.0151,0.0094,0.0154,0.0,0.001,0.002
2025-10-29 18:01:15.644,1.17,-0.004,0.0,0.001,-0.014,0.023,-1.004,-14.84,11.28,-112.59,0.9997,0.0151,0.0094,0.0154,0.0,0.0,0.001
2025-10-29 18:01:15.645,1.175,-0.001,-0.001,0.0,-0.014,0.024,-1.0030000000000001,-14.55,9.96,-112.18,0.9997,0.0151,0.0094,0.0154,0.0,0.0,0.0
2025-10-29 18:01:15.645,1.18,-0.003,-0.001,0.0,-0.015,0.023,-1.002,-14.55,9.96,-112.18,0.9997,0.0151,0.0094,0.015300000000000001,0.0,0.0,0.0
2025-10-29 18:01:15.645,1.185,-0.001,0.0,-0.001,-0.013000000000000001,0.024,-0.999,-14.55,9.96,-112.18,0.9997,0.0152,0.009300000000000001,0.0154,0.0,0.0,-0.002
2025-10-29 18:01:15.646,1.19,0.0,0.0,0.001,-0.015,0.023,-1.0,-14.44,10.81,-112.01,0.9997,0.0151,0.0094,0.0154,0.001,0.0,-0.001
2025-10-29 18:01:15.646,1.195,0.0,-0.002,0.0,-0.013000000000000001,0.023,-1.0,-14.44,10.81,-112.01,0.9997,0.0152,0.009300000000000001,0.0154,-0.001,0.0,-0.002
2025-10-29 18:01:15.647,1.2,0.0,-0.002,0.0,-0.014,0.024,-1.0,-14.84,11.02,-111.98,0.9997,0.0152,0.009300000000000001,0.0154,0.0,0.0,-0.002
2025-10-29 18:01:15.647,1.205,-0.001,0.0,0.0,-0.014,0.023,-1.002,-14.84,11.02,-111.98,0.9997,0.0152,0.009300000000000001,0.0154,0.0,0.0,0.0
2025-10-29 18:01:15.647,1.21,0.001,0.001,0.0,-0.014,0.023,-1.0010000000000001,-14.84,11.02,-111.98,0.9997,0.0152,0.009300000000000001,0.0154,0.0,0.0,-0.001
2025-10-29 18:01:15.648,1.215,0.0,0.0,0.0,-0.014,0.025,-1.002,-14.64,10.64,-111.98,0.9997,0.015300000000000001,0.009300000000000001,0.0154,0.0,-0.001,0.0
2025-10-29 18:01:15.648,1.22,0.0,-0.001,0.0,-0.014,0.023,-1.0,-14.64,10.64,-111.98,0.9997,0.015300000000000001,0.009300000000000001,0.0154,0.0,0.0,-0.002
2025-10-29 18:01:15.648,1.225,0.0,0.001,0.001,-0.015,0.023,-1.0030000000000001,-14.96,10.34,-112.51,0.9997,0.0152,0.009300000000000001,0.0154,0.0,0.0,0.0
2025-10-29 18:01:15.649,1.23,0.001,0.001,0.001,-0.013000000000000001,0.022,-1.0030000000000001,-14.96,10.34,-112.51,0.9997,0.0152,0.009300000000000001,0.015300000000000001,0.0,0.0,0.0
2025-10-29 18:01:15.649,1.235,0.0,0.0,0.0,-0.015,0.024,-1.0030000000000001,-14.96,10.34,-112.51,0.9997,0.0152,0.009300000000000001,0.015300000000000001,0.0,0.0,0.0
2025-10-29 18:01:15.650,1.24,0.0,0.0,0.0,-0.014,0.023,-1.006,-14.44,10.9,-112.92,0.9997,0.0152,0.009300000000000001,0.015300000000000001,0.0,0.0,0.003
2025-10-29 18:01:15.650,1.245,0.0,-0.001,0.003,-0.014,0.023,-1.0050000000000001,-14.44,10.9,-112.92,0.9997,0.0152,0.009300000000000001,0.015300000000000001,0.0,0.0,0.002
2025-10-29 18:01:15.650,1.25,0.0,0.0,0.001,-0.014,0.022,-1.004,-14.17,7.54,-112.36,0.9997,0.0151,0.0092,0.015300000000000001,0.0,0.001,0.001
2025-10-29 18:01:15.651,1.255,0.0,0.0,0.0,-0.014,0.022,-1.0030000000000001,-14.17,7.54,-112.36,0.9997,0.0151,0.0092,0.015300000000000001,0.0,0.0,0.0
2025-10-29 18:01:15.651,1.26,0.001,0.0,0.0,-0.015,0.023,-1.0030000000000001,-14.17,7.54,-112.01,0.9997,0.0151,0.009300000000000001,0.015300000000000001,0.0,0.0,0.0
2025-10-29 18:01:15.651,1.265,0.003,0.0,0.001,-0.014,0.023,-1.002,-14.58,10.61,-112.01,0.9997,0.015000000000000001,0.009300000000000001,0.015300000000000001,0.0,0.0,0.0
2025-10-29 18:01:15.652,1.27,0.0,0.0,0.0,-0.015,0.023,-1.0,-14.58,10.61,-112.01,0.9997,0.015000000000000001,0.009300000000000001,0.015300000000000001,0.0,0.0,-0.002
2025-10-29 18:01:15.652,1.275,0.001,0.0,0.001,-0.014,0.022,-1.0010000000000001,-14.58,8.97,-112.13,0.9997,0.015000000000000001,0.009300000000000001,0.015300000000000001,0.0,0.0,-0.001
2025-10-29 18:01:15.652,1.28,0.0,0.001,0.001,-0.015,0.024,-1.002,-14.58,8.97,-112.13,0.9997,0.0151,0.009300000000000001,0.0152,0.0,-0.001,0.0
2025-10-29 18:01:15.653,1.285,-0.002,0.0,0.0,-0.014,0.026000000000000002,-1.0010000000000001,-14.38,10.75,-112.71000000000001,0.9997,0.0152,0.009300000000000001,0.0152,0.0,-0.002,-0.001
2025-10-29 18:01:15.653,1.29,0.001,0.0,0.0,-0.014,0.025,-1.0,-14.38,10.75,-112.71000000000001,0.9997,0.015300000000000001,0.009300000000000001,0.0152,0.0,-0.001,-0.001
2025-10-29 18:01:15.654,1.295,0.0,0.0,0.0,-0.014,0.023,-1.0010000000000001,-14.38,10.75,-112.71000000000001,0.9997,0.015300000000000001,0.009300000000000001,0.0152,0.0,0.0,-0.001
2025-10-29 18:01:15.654,1.3,0.001,-0.002,0.0,-0.013000000000000001,0.024,-1.002,-14.64,10.58,-112.51,0.9997,0.015300000000000001,0.009300000000000001,0.0152,0.0,0.0,0.0
2025-10-29 18:01:15.654,1.305,0.0,0.0,0.0,-0.015,0.023,-1.0010000000000001,-14.64,10.58,-112.51,0.9997,0.015300000000000001,0.009300000000000001,0.0152,0.0,0.0,-0.001
2025-10-29 18:01:15.655,1.31,0.001,0.0,-0.001,-0.014,0.023,-1.0010000000000001,-14.49,11.13,-112.62,0.9997,0.0152,0.009300000000000001,0.0152,0.0,0.0,0.0
2025-10-29 18:01:15.655,1.315,0.002,0.0,0.0,-0.014,0.023,-1.0010000000000001,-14.49,11.13,-112.62,0.9997,0.0152,0.009300000000000001,0.0152,0.0,0.0,0.0
2025-10-29 18:01:15.656,1.32,0.004,0.002,0.001,-0.014,0.023,-1.0050000000000001,-14.49,11.13,-112.62,0.9997,0.0152,0.009300000000000001,0.0152,0.0,0.0,0.002
2025-10-29 18:01:15.656,1.325,0.002,0.002,0.0,-0.014,0.023,-1.0070000000000001,-14.73,10.75,-112.74000000000001,0.9997,0.0151,0.0092,0.0152,0.0,0.0,0.005
2025-10-29 18:01:15.656,1.33,0.0,0.0,0.0,-0.014,0.024,-1.006,-14.73,10.75,-112.74000000000001,0.9997,0.0151,0.0092,0.0152,0.0,0.0,0.004
2025-10-29 18:01:15.657,1.335,-0.001,0.0,0.0,-0.015,0.022,-1.008,-14.14,9.99,-113.0,0.9997,0.0151,0.009300000000000001,0.0152,0.0,0.0,0.005
2025-10-29 18:01:15.657,1.34,0.001,-0.002,0.0,-0.015,0.023,-1.0070000000000001,-14.14,9.99,-113.0,0.9997,0.0151,0.009300000000000001,0.0152,0.0,0.0,0.004
2025-10-29 18:01:15.658,1.345,0.001,-0.001,0.0,-0.015,0.023,-1.006,-14.14,9.99,-113.0,0.9997,0.0151,0.0094,0.0152,0.001,0.0,0.003
2025-10-29 18:01:15.658,1.35,-0.001,0.0,0.0,-0.015,0.023,-1.004,-14.73,10.870000000000001,-113.09,0.9997,0.0151,0.0094,0.0152,0.0,0.0,0.001
2025-10-29 18:01:15.658,1.355,-0.001,0.0,-0.001,-0.014,0.025,-1.002,-14.73,10.870000000000001,-113.09,0.9997,0.0152,0.0094,0.0152,0.0,-0.001,0.0
2025-10-29 18:01:15.659,1.36,-0.002,0.0,0.0,-0.014,0.024,-1.0010000000000001,-15.22,8.3,-113.06,0.9997,0.0152,0.009300000000000001,0.0152,0.0,0.0,-0.001
2025-10-29 18:01:15.659,1.365,0.0,0.0,0.0,-0.014,0.023,-1.002,-15.22,8.3,-113.06,0.9997,0.0152,0.009300000000000001,0.0152,0.0,0.0,0.0
2025-10-29 18:01:15.659,1.37,0.0,0.002,0.0,-0.014,0.024,-1.0010000000000001,-14.82,10.4,-112.8,0.9997,0.0152,0.009300000000000001,0.0152,0.0,0.0,-0.001
2025-10-29 18:01:15.660,1.375,0.0,0.002,0.001,-0.013000000000000001,0.024,-1.0,-14.82,10.4,-112.8,0.9997,0.015300000000000001,0.009300000000000001,0.0152,-0.001,0.0,-0.002
2025-10-29 18:01:15.660,1.38,0.001,0.0,0.001,-0.014,0.024,-1.0,-14.82,10.4,-112.8,0.9997,0.015300000000000001,0.009300000000000001,0.0151,0.0,0.0,-0.002
2025-10-29 18:01:15.660,1.385,-0.001,0.0,0.0,-0.014,0.024,-1.0,-14.17,9.73,-112.68,0.9997,0.015300000000000001,0.009300000000000001,0.0152,0.0,0.0,-0.002
2025-10-29 18:01:15.661,1.39,-0.001,0.0,0.0,-0.014,0.025,-1.002,-14.17,9.73,-112.68,0.9997,0.0154,0.009300000000000001,0.0151,0.0,-0.001,0.0
2025-10-29 18:01:15.661,1.395,0.002,0.001,0.002,-0.015,0.025,-1.0050000000000001,-15.05,10.78,-112.59,0.9997,0.0154,0.009300000000000001,0.0152,0.0,-0.001,0.002
2025-10-29 18:01:15.662,1.4,0.001,0.0,-0.001,-0.013000000000000001,0.022,-1.0050000000000001,-15.05,10.78,-112.59,0.9997,0.0154,0.009300000000000001,0.0151,0.0,0.001,0.002
2025-10-29 18:01:15.662,1.405,-0.001,0.0,0.0,-0.014,0.023,-1.0050000000000001,-15.05,10.78,-112.59,0.9997,0.015300000000000001,0.0092,0.0151,0.0,0.0,0.003
2025-10-29 18:01:15.662,1.41,0.0,0.0,0.0,-0.013000000000000001,0.025,-1.004,-15.17,10.72,-113.21000000000001,0.9997,0.0154,0.0092,0.0151,0.0,-0.001,0.001
2025-10-29 18:01:15.663,1.415,0.001,0.0,0.001,-0.015,0.024,-1.002,-15.17,10.72,-113.21000000000001,0.9997,0.0154,0.0092,0.0151,0.0,0.0,0.0
2025-10-29 18:01:15.663,1.42,0.0,0.0,0.0,-0.014,0.022,-1.0030000000000001,-15.08,11.040000000000001,-113.15,0.9997,0.015300000000000001,0.0092,0.0151,0.0,0.001,0.0
2025-10-29 18:01:15.663,1.425,0.0,0.0,0.001,-0.014,0.023,-1.0010000000000001,-15.08,11.040000000000001,-113.15,0.9997,0.015300000000000001,0.0092,0.0151,0.0,0.0,-0.001
2025-10-29 18:01:15.664,1.43,0.0,0.003,0.0,-0.014,0.023,-1.002,-15.08,11.040000000000001,-113.15,0.9997,0.015300000000000001,0.0092,0.0151,0.0,0.0,0.0
2025-10-29 18:01:15.664,1.435,0.002,0.0,0.0,-0.014,0.024,-1.0010000000000001,-14.030000000000001,10.84,-112.77,0.9997,0.015300000000000001,0.0092,0.0151,0.0,0.0,-0.001
2025-10-29 18:01:15.664,1.44,0.001,0.001,0.001,-0.014,0.023,-1.0010000000000001,-14.030000000000001,10.84,-112.77,0.9997,0.015300000000000001,0.009300000000000001,0.0151,0.0,0.0,-0.001
2025-10-29 18:01:15.665,1.445,0.0,0.0,0.0,-0.015,0.024,-1.002,-14.64,10.55,-112.89,0.9997,0.015300000000000001,0.009300000000000001,0.0151,0.0,0.0,0.0
2025-10-29 18:01:15.665,1.45,0.0,0.002,0.0,-0.014,0.024,-1.0010000000000001,-14.64,10.55,-112.89,0.9997,0.015300000000000001,0.009300000000000001,0.0151,0.0,0.0,-0.001
2025-10-29 18:01:15.665,1.455,0.0,0.002,0.0,-0.013000000000000001,0.023,-1.0010000000000001,-14.84,10.31,-113.24000000000001,0.9997,0.015300000000000001,0.0092,0.0151,0.0,0.0,-0.001
2025-10-29 18:01:15.666,1.46,0.002,0.0,0.0,-0.015,0.023,-1.004,-14.84,10.31,-113.24000000000001,0.9997,0.015300000000000001,0.009300000000000001,0.0151,0.0,0.0,0.001
2025-10-29 18:01:15.666,1.465,0.0,0.0,0.0,-0.014,0.024,-1.004,-14.84,10.31,-113.24000000000001,0.9997,0.015300000000000001,0.009300000000000001,0.0151,0.0,0.0,0.001
2025-10-29 18:01:15.666,1.47,0.0,0.0,0.001,-0.014,0.024,-1.008,-14.61,11.13,-112.48,0.9997,0.015300000000000001,0.0092,0.0151,0.0,0.0,0.005
2025-10-29 18:01:15.667,1.475,0.0,0.0,0.0,-0.013000000000000001,0.025,-1.0090000000000001,-14.61,11.13,-112.48,0.9997,0.0154,0.0092,0.0151,0.0,0.0,0.006
2025-10-29 18:01:15.667,1.48,-0.001,0.0,0.0,-0.014,0.024,-1.008,-15.05,11.42,-112.71000000000001,0.9997,0.0154,0.0092,0.0151,0.0,0.0,0.005
2025-10-29 18:01:15.668,1.485,-0.001,0.0,0.0,-0.014,0.023,-1.0070000000000001,-15.05,11.42,-112.71000000000001,0.9997,0.015300000000000001,0.0092,0.0151,0.0,0.0,0.004
2025-10-29 18:01:15.668,1.49,-0.003,0.0,0.0,-0.014,0.023,-1.0050000000000001,-15.05,11.42,-112.71000000000001,0.9997,0.015300000000000001,0.0092,0.0151,0.0,0.0,0.002
2025-10-29 18:01:15.668,1.495,-0.003,-0.002,0.001,-0.015,0.024,-1.0030000000000001,-15.11,11.13,-112.59,0.9997,0.015300000000000001,0.009300000000000001,0.0151,0.0,0.0,0.0
2025-10-29 18:01:15.669,1.5,-0.002,0.0,0.001,-0.015,0.023,-1.0010000000000001,-15.11,11.13,-112.59,0.9997,0.015300000000000001,0.009300000000000001,0.0151,0.001,0.0,-0.001
2025-10-29 18:01:15.669,1.505,-0.003,0.0,0.001,-0.015,0.023,-0.996,-14.790000000000001,9.88,-113.21000000000001,0.9997,0.015300000000000001,0.009300000000000001,0.0151,0.0,0.0,-0.006
2025-10-29 18:01:15.669,1.51,0.0,0.0,0.001,-0.014,0.024,-0.997,-14.790000000000001,9.88,-113.21000000000001,0.9997,0.015300000000000001,0.009300000000000001,0.0151,0.0,0.0,-0.005
2025-10-29 18:01:15.670,1.515,0.0,0.0,0.0,-0.014,0.025,-0.997,-14.790000000000001,9.88,-113.21000000000001,0.9997,0.0154,0.009300000000000001,0.0151,0.0,-0.001,-0.005
2025-10-29 18:01:15.670,1.52,0.0,0.0,0.0,-0.014,0.026000000000000002,-0.996,-14.99,10.93,-112.33,0.9997,0.0155,0.009300000000000001,0.015000000000000001,0.0,-0.001,-0.006
2025-10-29 18:01:15.670,1.525,0.001,0.0,0.0,-0.014,0.024,-0.997,-14.99,10.93,-112.33,0.9997,0.0155,0.009300000000000001,0.015000000000000001,0.0,0.0,-0.005
2025-10-29 18:01:15.671,1.53,0.004,0.0,0.0,-0.014,0.024,-1.0010000000000001,-14.73,10.75,-112.3,0.9997,0.0155,0.009300000000000001,0.015000000000000001,0.0,0.0,-0.001
2025-10-29 18:01:15.671,1.535,0.003,0.0,0.001,-0.014,0.023,-1.004,-14.73,10.75,-112.3,0.9997,0.0154,0.009300000000000001,0.015000000000000001,0.0,0.0,0.001
2025-10-29 18:01:15.672,1.54,0.0,-0.001,0.0,-0.014,0.024,-1.006,-14.73,10.75,-112.45,0.9997,0.0154,0.009300000000000001,0.015000000000000001,0.0,0.0,0.003
2025-10-29 18:01:15.672,1.545,0.0,0.0,0.0,-0.014,0.023,-1.008,-14.76,10.99,-112.45,0.9997,0.0154,0.009300000000000001,0.015000000000000001,0.0,0.0,0.005
2025-10-29 18:01:15.673,1.55,0.0,0.0,0.0,-0.013000000000000001,0.022,-1.022,-14.76,10.99,-112.45,0.9997,0.015300000000000001,0.009300000000000001,0.015000000000000001,0.0,0.001,0.019
2025-10-29 18:01:15.673,1.555,-0.004,0.0,0.0,-0.014,0.024,-1.012,-14.96,10.9,-112.83,0.9997,0.015300000000000001,0.009300000000000001,0.015000000000000001,0.0,0.0,0.009000000000000001
2025-10-29 18:01:15.673,1.56,-0.001,-0.004,0.0,-0.016,0.023,-0.987,-14.96,10.9,-112.83,0.9997,0.015300000000000001,0.0094,0.015000000000000001,0.001,0.0,-0.015
2025-10-29 18:01:15.674,1.565,-0.003,0.0,0.0,-0.014,0.023,-1.0030000000000001,-14.46,11.540000000000001,-112.51,0.9997,0.015300000000000001,0.0094,0.015000000000000001,0.0,0.0,0.0
2025-10-29 18:01:15.674,1.57,-0.003,0.002,0.001,-0.014,0.022,-1.0030000000000001,-14.46,11.540000000000001,-112.51,0.9997,0.015300000000000001,0.0094,0.015000000000000001,0.0,0.001,0.0
2025-10-29 18:01:15.674,1.575,-0.003,0.0,0.001,-0.013000000000000001,0.026000000000000002,-1.0050000000000001,-14.46,11.540000000000001,-112.51,0.9997,0.0154,0.009300000000000001,0.015000000000000001,-0.001,-0.002,0.002
2025-10-29 18:01:15.675,1.58,-0.003,-0.001,0.001,-0.015,0.023,-1.0090000000000001,-14.93,11.31,-113.59,0.9997,0.0154,0.009300000000000001,0.015000000000000001,0.0,0.0,0.006
2025-10-29 18:01:15.675,1.585,-0.001,-0.002,0.0,-0.016,0.024,-1.0,-14.93,11.31,-113.59,0.9997,0.0154,0.0094,0.015000000000000001,0.001,0.0,-0.002
2025-10-29 18:01:15.675,1.59,-0.002,0.0,0.001,-0.015,0.023,-0.999,-14.67,11.69,-113.12,0.9997,0.0154,0.0094,0.015000000000000001,0.0,0.0,-0.003
2025-10-29 18:01:15.676,1.595,0.0,-0.002,0.001,-0.014,0.024,-1.0,-14.67,11.69,-113.12,0.9997,0.0154,0.0094,0.015000000000000001,0.0,0.0,-0.002
2025-10-29 18:01:15.676,1.6,0.0,0.0,0.0,-0.014,0.025,-0.999,-14.67,11.69,-113.12,0.9997,0.0155,0.0094,0.015000000000000001,0.0,-0.001,-0.003
2025-10-29 18:01:15.677,1.605,0.0,0.0,0.0,-0.014,0.024,-0.998,-14.73,10.72,-113.59,0.9997,0.0155,0.0094,0.015000000000000001,0.0,0.0,-0.004
2025-10-29 18:01:15.677,1.61,0.0,-0.001,-0.001,-0.013000000000000001,0.023,-1.0,-14.73,10.72,-113.59,0.9997,0.0155,0.009300000000000001,0.015000000000000001,0.0,0.0,-0.002
2025-10-29 18:01:15.677,1.615,0.001,0.0,0.001,-0.015,0.024,-1.0010000000000001,-14.96,11.16,-113.44,0.9997,0.0155,0.0094,0.015000000000000001,0.0,0.0,-0.001
2025-10-29 18:01:15.678,1.62,0.0,0.0,0.0,-0.013000000000000001,0.024,-1.0050000000000001,-14.96,11.16,-113.44,0.9997,0.0155,0.009300000000000001,0.0149,0.0,0.0,0.002
2025-10-29 18:01:15.678,1.625,0.0,0.0,0.0,-0.013000000000000001,0.023,-1.004,-14.96,11.16,-113.44,0.9997,0.0154,0.009300000000000001,0.0149,-0.001,0.0,0.002
2025-10-29 18:01:15.678,1.63,-0.001,0.0,0.001,-0.014,0.024,-1.002,-15.34,11.6,-113.41,0.9997,0.0155,0.009300000000000001,0.0149,0.0,0.0,0.0
2025-10-29 18:01:15.679,1.635,0.0,0.0,0.0,-0.015,0.024,-1.002,-15.34,11.6,-113.41,0.9997,0.0155,0.009300000000000001,0.0149,0.001,0.0,0.0
2025-10-29 18:01:15.679,1.64,0.001,0.0,0.0,-0.016,0.023,-1.0030000000000001,-15.200000000000001,10.52,-113.09,0.9997,0.0154,0.0094,0.015000000000000001,0.001,0.0,0.001
2025-10-29 18:01:15.679,1.645,0.001,0.0,0.0,-0.014,0.024,-1.0030000000000001,-15.200000000000001,10.52,-113.09,0.9997,0.0154,0.009300000000000001,0.0149,0.0,0.0,0.0
2025-10-29 18:01:15.680,1.65,0.0,0.0,0.0,-0.015,0.023,-1.0030000000000001,-15.34,10.99,-113.12,0.9997,0.0154,0.0094,0.015000000000000001,0.001,0.0,0.001
2025-10-29 18:01:15.680,1.655,-0.001,0.0,0.0,-0.014,0.022,-1.0030000000000001,-15.34,10.99,-113.12,0.9997,0.015300000000000001,0.0094,0.015000000000000001,0.0,0.001,0.0
2025-10-29 18:01:15.680,1.66,-0.001,0.0,0.0,-0.014,0.023,-1.0010000000000001,-15.34,10.99,-113.12,0.9997,0.015300000000000001,0.0094,0.015000000000000001,0.0,0.0,-0.001
2025-10-29 18:01:15.681,1.665,0.0,0.002,-0.001,-0.013000000000000001,0.023,-1.0010000000000001,-15.02,11.25,-112.97,0.9997,0.015300000000000001,0.009300000000000001,0.015000000000000001,0.0,0.0,-0.001
2025-10-29 18:01:15.681,1.67,-0.001,0.002,0.0,-0.014,0.023,-1.0010000000000001,-15.02,11.25,-112.97,0.9997,0.015300000000000001,0.009300000000000001,0.015000000000000001,0.0,0.0,-0.001
2025-10-29 18:01:15.682,1.675,-0.001,0.0,0.0,-0.014,0.023,-1.002,-14.84,11.25,-113.32000000000001,0.9997,0.015300000000000001,0.009300000000000001,0.015000000000000001,0.0,0.0,0.0
2025-10-29 18:01:15.682,1.68,0.001,0.0,0.001,-0.013000000000000001,0.024,-1.0030000000000001,-14.84,11.25,-113.32000000000001,0.9997,0.015300000000000001,0.009300000000000001,0.015000000000000001,0.0,0.0,0.0
2025-10-29 18:01:15.682,1.685,0.0,0.001,0.0,-0.014,0.023,-1.002,-14.84,11.25,-113.32000000000001,0.9997,0.015300000000000001,0.009300000000000001,0.015000000000000001,0.0,0.0,0.0
2025-10-29 18:01:15.683,1.69,0.001,0.0,-0.001,-0.014,0.024,-1.0010000000000001,-15.46,9.06,-113.24000000000001,0.9997,0.015300000000000001,0.009300000000000001,0.015000000000000001,0.0,0.0,-0.001
2025-10-29 18:01:15.683,1.695,0.0,0.002,0.0,-0.014,0.024,-1.0,-15.46,9.06,-113.24000000000001,0.9997,0.015300000000000001,0.0092,0.015000000000000001,0.0,0.0,-0.002
2025-10-29 18:01:15.683,1.7,0.0,0.0,0.0,-0.014,0.023,-1.0,-15.280000000000001,10.99,-113.41,0.9997,0.015300000000000001,0.0092,0.015000000000000001,0.0,0.0,-0.002
2025-10-29 18:01:15.684,1.705,0.003,0.0,0.0,-0.014,0.023,-1.002,-15.280000000000001,10.99,-113.41,0.9997,0.015300000000000001,0.009300000000000001,0.015000000000000001,0.0,0.0,0.0
2025-10-29 18:01:15.684,1.71,0.002,-0.002,0.001,-0.014,0.023,-1.0030000000000001,-15.280000000000001,10.99,-113.41,0.9997,0.015300000000000001,0.009300000000000001,0.015000000000000001,0.0,0.0,0.0
2025-10-29 18:01:15.684,1.715,0.0,0.0,0.0,-0.014,0.024,-0.999,-14.55,10.11,-114.11,0.9997,0.015300000000000001,0.009300000000000001,0.015000000000000001,0.0,0.0,-0.003
2025-10-29 18:01:15.685,1.72,0.0,0.0,0.0,-0.015,0.023,-1.0010000000000001,-14.55,10.11,-114.11,0.9997,0.015300000000000001,0.009300000000000001,0.015000000000000001,0.0,0.0,-0.001
2025-10-29 18:01:15.685,1.725,0.0,0.0,0.001,-0.016,0.023,-1.0030000000000001,-14.46,11.28,-113.56,0.9997,0.015300000000000001,0.0094,0.015000000000000001,0.001,0.0,0.0
2025-10-29 18:01:15.686,1.73,-0.001,0.0,0.0,-0.014,0.023,-1.004,-14.46,11.28,-113.56,0.9997,0.0152,0.0094,0.015000000000000001,0.0,0.0,0.001
2025-10-29 18:01:15.686,1.735,-0.001,0.001,0.0,-0.014,0.023,-1.0030000000000001,-13.85,8.65,-113.35000000000001,0.9997,0.0152,0.009300000000000001,0.015000000000000001,0.0,0.0,0.0
2025-10-29 18:01:15.686,1.74,0.003,0.0,0.0,-0.014,0.022,-1.0070000000000001,-13.85,8.65,-113.35000000000001,0.9997,0.0151,0.009300000000000001,0.015000000000000001,0.0,0.001,0.004
2025-10-29 18:01:15.687,1.745,0.003,0.0,0.0,-0.015,0.022,-1.0070000000000001,-13.85,8.65,-113.35000000000001,0.9997,0.0151,0.0094,0.015000000000000001,0.0,0.001,0.004
2025-10-29 18:01:15.687,1.75,0.002,0.0,0.0,-0.013000000000000001,0.023,-1.0010000000000001,-14.26,11.28,-113.12,0.9997,0.015000000000000001,0.009300000000000001,0.015000000000000001,0.0,0.0,-0.001
2025-10-29 18:01:15.688,1.755,0.001,0.0,0.001,-0.014,0.022,-1.0030000000000001,-14.26,11.28,-113.12,0.9997,0.015000000000000001,0.009300000000000001,0.0151,0.0,0.0,0.0
2025-10-29 18:01:15.688,1.76,0.001,0.0,0.0,-0.014,0.022,-1.0030000000000001,-14.030000000000001,10.61,-112.68,0.9997,0.015000000000000001,0.009300000000000001,0.0151,0.0,0.0,0.001
2025-10-29 18:01:15.688,1.765,0.0,0.0,0.0,-0.013000000000000001,0.023,-1.0090000000000001,-14.030000000000001,10.61,-112.68,0.9997,0.0149,0.0092,0.0151,0.0,0.0,0.007
2025-10-29 18:01:15.689,1.77,0.0,0.0,0.0,-0.013000000000000001,0.023,-1.0090000000000001,-14.030000000000001,10.61,-112.68,0.9997,0.0149,0.0092,0.0152,-0.001,0.0,0.006
2025-10-29 18:01:15.689,1.775,-0.001,0.0,0.001,-0.014,0.024,-1.0090000000000001,-14.49,11.13,-112.74000000000001,0.9997,0.015000000000000001,0.0092,0.0152,0.0,0.0,0.006
2025-10-29 18:01:15.689,1.78,0.0,0.0,0.001,-0.014,0.023,-1.006,-14.49,11.13,-112.74000000000001,0.9997,0.015000000000000001,0.0092,0.0152,0.0,0.0,0.004
2025-10-29 18:01:15.690,1.785,-0.002,0.0,0.0,-0.014,0.022,-1.008,-14.44,10.49,-112.62,0.9997,0.0149,0.0092,0.0152,0.0,0.0,0.005
2025-10-29 18:01:15.690,1.79,-0.002,0.001,0.001,-0.015,0.023,-1.0030000000000001,-14.44,10.49,-112.62,0.9997,0.015000000000000001,0.0092,0.0152,0.0,0.0,0.0
2025-10-29 18:01:15.691,1.795,-0.003,-0.001,0.0,-0.015,0.023,-1.0,-14.44,10.49,-112.62,0.9997,0.015000000000000001,0.0092,0.0152,0.0,0.0,-0.002
2025-10-29 18:01:15.691,1.8,-0.001,-0.002,0.001,-0.015,0.023,-0.997,-14.38,10.72,-112.36,0.9997,0.015000000000000001,0.009300000000000001,0.0151,0.0,0.0,-0.005
2025-10-29 18:01:15.692,1.805,-0.001,0.0,0.001,-0.014,0.022,-1.0,-14.38,10.72,-112.36,0.9997,0.015000000000000001,0.009300000000000001,0.0151,0.0,0.001,-0.002
2025-10-29 18:01:15.692,1.81,0.0,0.0,0.001,-0.013000000000000001,0.023,-0.998,-14.55,10.9,-112.89,0.9997,0.015000000000000001,0.0092,0.0152,-0.001,0.0,-0.004
2025-10-29 18:01:15.692,1.815,-0.001,0.0,0.0,-0.014,0.024,-0.997,-14.55,10.9,-112.89,0.9997,0.0151,0.0092,0.0152,0.0,-0.001,-0.004
2025-10-29 18:01:15.693,1.82,0.001,0.0,0.0,-0.014,0.025,-0.996,-14.55,10.9,-112.89,0.9997,0.0152,0.0092,0.0152,0.0,-0.001,-0.006
2025-10-29 18:01:15.693,1.825,0.002,0.0,0.0,-0.014,0.025,-0.997,-14.49,11.22,-112.8,0.9997,0.0152,0.0092,0.0152,0.0,-0.001,-0.005
2025-10-29 18:01:15.693,1.83,0.001,0.0,0.001,-0.014,0.023,-0.999,-14.49,11.22,-112.8,0.9997,0.0152,0.0092,0.0152,0.0,0.0,-0.002
2025-10-29 18:01:15.694,1.835,0.002,0.0,0.001,-0.015,0.023,-1.0050000000000001,-14.58,10.370000000000001,-112.94,0.9997,0.0152,0.0092,0.0152,0.0,0.0,0.002
2025-10-29 18:01:15.694,1.84,0.001,0.0,0.003,-0.014,0.023,-1.004,-14.58,10.370000000000001,-112.94,0.9997,0.0152,0.0092,0.0152,0.0,0.0,0.001
2025-10-29 18:01:15.694,1.845,0.002,0.0,0.0,-0.013000000000000001,0.023,-1.0030000000000001,-14.58,11.28,-112.27,0.9997,0.0152,0.0092,0.0152,-0.001,0.0,0.0
2025-10-29 18:01:15.695,1.85,0.0,0.0,0.001,-0.014,0.023,-1.006,-14.58,11.28,-112.27,0.9997,0.0152,0.0092,0.0152,0.0,0.0,0.003
2025-10-29 18:01:15.695,1.855,0.0,-0.001,0.0,-0.014,0.024,-1.0070000000000001,-14.58,11.28,-112.27,0.9997,0.0152,0.0092,0.0152,0.0,0.0,0.004
2025-10-29 18:01:15.696,1.86,0.0,0.0,0.0,-0.016,0.024,-1.004,-14.67,10.99,-112.54,0.9997,0.0152,0.009300000000000001,0.0152,0.001,0.0,0.001
2025-10-29 18:01:15.696,1.865,0.0,0.0,0.0,-0.015,0.022,-1.0090000000000001,-14.67,10.99,-112.54,0.9997,0.0152,0.009300000000000001,0.0152,0.0,0.001,0.006
2025-10-29 18:01:15.696,1.87,0.0,0.0,0.0,-0.014,0.022,-1.004,-14.46,10.81,-112.42,0.9997,0.0151,0.009300000000000001,0.0152,0.0,0.001,0.001
2025-10-29 18:01:15.697,1.875,0.0,0.0,0.0,-0.015,0.025,-1.004,-14.46,10.81,-112.42,0.9997,0.0152,0.009300000000000001,0.0152,0.0,-0.001,0.001
2025-10-29 18:01:15.697,1.88,0.0,0.0,0.001,-0.015,0.024,-1.0030000000000001,-14.46,10.81,-112.42,0.9997,0.0152,0.009300000000000001,0.0152,0.0,0.0,0.0
2025-10-29 18:01:15.697,1.885,-0.001,0.0,0.001,-0.013000000000000001,0.024,-1.002,-14.290000000000001,10.28,-112.54,0.9997,0.0152,0.009300000000000001,0.0152,0.0,0.0,0.0
2025-10-29 18:01:15.698,1.89,-0.001,0.002,0.001,-0.014,0.023,-1.002,-14.290000000000001,10.28,-112.54,0.9997,0.0152,0.0092,0.0152,0.0,0.0,0.0
2025-10-29 18:01:15.698,1.895,0.0,0.003,0.0,-0.015,0.024,-0.999,-14.64,10.72,-112.59,0.9997,0.015300000000000001,0.009300000000000001,0.0152,0.0,0.0,-0.003
2025-10-29 18:01:15.698,1.9,0.0,0.001,0.0,-0.015,0.024,-1.0010000000000001,-14.64,10.72,-112.59,0.9997,0.015300000000000001,0.009300000000000001,0.0152,0.0,0.0,-0.001
2025-10-29 18:01:15.699,1.905,0.0,0.0,0.0,-0.015,0.024,-1.004,-14.64,10.72,-112.59,0.9997,0.015300000000000001,0.0094,0.0152,0.0,0.0,0.001
2025-10-29 18:01:15.699,1.91,0.0,0.001,0.0,-0.013000000000000001,0.025,-1.0010000000000001,-13.85,10.99,-113.15,0.9997,0.0154,0.009300000000000001,0.0152,-0.001,-0.001,-0.001
2025-10-29 18:01:15.700,1.915,0.001,0.0,0.0,-0.014,0.024,-1.0030000000000001,-13.85,10.99,-113.15,0.9997,0.0154,0.009300000000000001,0.0152,0.0,0.0,0.001
2025-10-29 18:01:15.700,1.92,0.0,0.0,0.0,-0.014,0.023,-1.0010000000000001,-14.99,9.64,-111.8,0.9997,0.015300000000000001,0.009300000000000001,0.0152,0.0,0.0,-0.001
2025-10-29 18:01:15.700,1.925,0.001,0.0,0.0,-0.014,0.023,-1.002,-14.99,9.64,-111.8,0.9997,0.015300000000000001,0.009300000000000001,0.0152,0.0,0.0,0.0
2025-10-29 18:01:15.701,1.93,0.0,0.0,0.0,-0.015,0.024,-1.0010000000000001,-14.700000000000001,10.370000000000001,-111.98,0.9997,0.015300000000000001,0.009300000000000001,0.0152,0.0,0.0,0.0
2025-10-29 18:01:15.701,1.935,0.0,-0.001,0.0,-0.014,0.023,-1.002,-14.700000000000001,10.370000000000001,-111.98,0.9997,0.015300000000000001,0.009300000000000001,0.0152,0.0,0.0,0.0
2025-10-29 18:01:15.701,1.94,-0.001,0.0,0.001,-0.015,0.023,-1.008,-14.700000000000001,10.370000000000001,-111.98,0.9997,0.015300000000000001,0.009300000000000001,0.0152,0.001,0.0,0.005
2025-10-29 18:01:15.702,1.945,-0.003,0.0,0.0,-0.015,0.022,-1.0010000000000001,-14.67,10.78,-112.04,0.9997,0.015300000000000001,0.0094,0.0152,0.0,0.001,-0.001
2025-10-29 18:01:15.702,1.95,-0.001,0.0,0.0,-0.014,0.023,-1.0030000000000001,-14.67,10.78,-112.04,0.9997,0.0152,0.0094,0.0152,0.0,0.0,0.0
2025-10-29 18:01:15.703,1.955,0.0,0.0,0.0,-0.014,0.023,-1.0,-14.35,10.17,-112.83,0.9997,0.0152,0.009300000000000001,0.0152,0.0,0.0,-0.002
2025-10-29 18:01:15.703,1.96,0.0,-0.002,0.0,-0.014,0.023,-1.0010000000000001,-14.35,10.17,-112.83,0.9997,0.0152,0.009300000000000001,0.0152,0.0,0.0,-0.001
2025-10-29 18:01:15.704,1.965,0.0,0.0,0.0,-0.014,0.023,-1.0030000000000001,-14.35,10.17,-112.83,0.9997,0.0152,0.009300000000000001,0.0152,0.0,0.0,0.0
2025-10-29 18:01:15.704,1.97,0.001,0.0,0.0,-0.014,0.023,-1.0030000000000001,-14.38,10.69,-112.74000000000001,0.9997,0.0152,0.009300000000000001,0.0152,0.0,0.0,0.0
2025-10-29 18:01:15.705,1.975,0.0,0.0,0.0,-0.013000000000000001,0.024,-1.0050000000000001,-14.38,10.69,-112.74000000000001,0.9997,0.0152,0.009300000000000001,0.0152,0.0,0.0,0.003
2025-10-29 18:01:15.705,1.98,0.0,0.0,0.0,-0.014,0.024,-1.004,-14.52,10.43,-112.68,0.9997,0.0152,0.009300000000000001,0.0152,0.0,0.0,0.001
2025-10-29 18:01:15.706,1.985,0.0,0.001,0.0,-0.014,0.024,-1.0030000000000001,-14.52,10.43,-112.68,0.9997,0.0152,0.009300000000000001,0.0152,0.0,0.0,0.0
2025-10-29 18:01:15.706,1.99,0.001,0.0,0.0,-0.014,0.022,-1.0030000000000001,-14.52,10.43,-112.68,0.9997,0.0152,0.009300000000000001,0.0152,0.0,0.001,0.001
2025-10-29 18:01:15.706,1.995,0.001,0.0,0.001,-0.015,0.023,-1.0050000000000001,-14.55,9.93,-113.06,0.9997,0.0152,0.009300000000000001,0.0152,0.0,0.0,0.002
2025-10-29 18:01:15.707,2.0,0.0,0.0,0.0,-0.013000000000000001,0.023,-1.0030000000000001,-14.55,9.93,-113.06,0.9997,0.0151,0.009300000000000001,0.0152,0.0,0.0,0.0
2025-10-29 18:01:15.707,2.005,-0.001,0.0,0.003,-0.015,0.023,-1.0030000000000001,-15.17,10.61,-112.65,0.9997,0.0151,0.009300000000000001,0.0152,0.0,0.0,0.0
2025-10-29 18:01:15.708,2.01,0.001,0.0,0.0,-0.014,0.023,-1.0030000000000001,-15.17,10.61,-112.65,0.9997,0.0151,0.009300000000000001,0.0152,0.0,0.0,0.001
2025-10-29 18:01:15.708,2.015,-0.001,0.0,0.001,-0.014,0.023,-1.004,-14.38,10.26,-112.51,0.9997,0.0151,0.009300000000000001,0.0152,0.0,0.0,0.001
2025-10-29 18:01:15.708,2.02,-0.002,-0.001,0.0,-0.013000000000000001,0.023,-1.002,-14.38,10.26,-112.51,0.9997,0.0151,0.009300000000000001,0.0152,0.0,0.0,0.0
2025-10-29 18:01:15.709,2.025,-0.001,-0.002,0.0,-0.015,0.023,-1.002,-14.38,10.26,-112.51,0.9997,0.0152,0.009300000000000001,0.0152,0.0,0.0,0.0
2025-10-29 18:01:15.709,2.03,0.0,-0.001,0.001,-0.015,0.024,-1.002,-14.73,7.65,-112.51,0.9997,0.0152,0.0094,0.0152,0.001,-0.001,0.0
2025-10-29 18:01:15.709,2.035,0.001,0.0,0.001,-0.015,0.023,-1.002,-14.73,7.65,-112.51,0.9997,0.0152,0.0094,0.0152,0.0,0.0,0.0
2025-10-29 18:01:15.710,2.04,0.0,-0.001,0.0,-0.014,0.023,-1.0030000000000001,-13.85,9.200000000000001,-112.56,0.9997,0.0152,0.0094,0.0152,0.0,0.0,0.0
2025-10-29 18:01:15.710,2.045,0.0,0.0,0.0,-0.013000000000000001,0.024,-1.004,-13.85,9.200000000000001,-112.56,0.9997,0.0152,0.009300000000000001,0.0152,-0.001,0.0,0.001
2025-10-29 18:01:15.710,2.05,0.0,0.0,0.0,-0.014,0.025,-1.0030000000000001,-13.85,9.200000000000001,-112.56,0.9997,0.015300000000000001,0.009300000000000001,0.0152,0.0,-0.001,0.0
2025-10-29 18:01:15.711,2.055,-0.003,0.0,0.0,-0.014,0.024,-1.0050000000000001,-14.96,10.75,-112.68,0.9997,0.015300000000000001,0.009300000000000001,0.0152,0.0,0.0,0.002
2025-10-29 18:01:15.711,2.06,-0.001,-0.003,0.002,-0.015,0.024,-1.002,-14.96,10.75,-112.68,0.9997,0.015300000000000001,0.009300000000000001,0.0152,0.0,0.0,0.0
2025-10-29 18:01:15.712,2.065,0.0,0.0,0.0,-0.014,0.025,-1.0010000000000001,-14.9,10.58,-112.39,0.9997,0.0154,0.009300000000000001,0.0152,0.0,0.0,-0.001
2025-10-29 18:01:15.712,2.07,0.0,0.0,0.001,-0.015,0.023,-1.0010000000000001,-14.9,10.58,-112.39,0.9997,0.0154,0.009300000000000001,0.0152,0.0,0.0,-0.001
2025-10-29 18:01:15.712,2.075,0.0,0.0,0.001,-0.014,0.024,-1.0,-14.9,10.58,-112.39,0.9997,0.0154,0.009300000000000001,0.0152,0.0,0.0,-0.002
2025-10-29 18:01:15.713,2.08,-0.001,0.0,0.001,-0.014,0.024,-1.0,-14.64,10.66,-112.39,0.9997,0.0154,0.009300000000000001,0.0152,0.0,0.0,-0.002
2025-10-29 18:01:15.713,2.085,0.002,0.0,0.0,-0.015,0.023,-1.0,-14.64,10.66,-112.39,0.9997,0.0154,0.009300000000000001,0.0152,0.0,0.0,-0.002
2025-10-29 18:01:15.713,2.09,0.001,0.0,0.001,-0.014,0.024,-1.0,-15.02,10.93,-112.16,0.9997,0.0154,0.009300000000000001,0.0152,0.0,0.0,-0.002
2025-10-29 18:01:15.714,2.095,0.002,0.0,0.0,-0.013000000000000001,0.025,-1.002,-15.02,10.93,-112.16,0.9997,0.0154,0.009300000000000001,0.0152,0.0,-0.001,0.0
2025-10-29 18:01:15.714,2.1,0.001,0.0,0.0,-0.013000000000000001,0.023,-1.002,-15.02,10.93,-112.16,0.9997,0.0154,0.009300000000000001,0.0151,0.0,0.0,0.0
2025-10-29 18:01:15.714,2.105,0.001,0.0,0.0,-0.014,0.022,-1.002,-14.61,11.22,-112.42,0.9997,0.015300000000000001,0.0092,0.0151,0.0,0.001,0.0
2025-10-29 18:01:15.715,2.11,0.006,0.0,0.0,-0.014,0.023,-1.004,-14.61,11.22,-112.42,0.9997,0.015300000000000001,0.0092,0.0151,0.0,0.0,0.001
2025-10-29 18:01:15.715,2.115,0.004,-0.001,0.0,-0.013000000000000001,0.023,-1.006,-14.9,8.94,-112.33,0.9997,0.015300000000000001,0.0092,0.0151,0.0,0.0,0.003
2025-10-29 18:01:15.716,2.12,0.001,-0.001,0.0,-0.013000000000000001,0.023,-1.006,-14.9,8.94,-112.33,0.9997,0.0152,0.0091,0.0151,-0.001,0.0,0.003
2025-10-29 18:01:15.716,2.125,0.0,0.001,-0.001,-0.014,0.022,-1.0050000000000001,-13.82,10.4,-111.83,0.9997,0.0152,0.0091,0.015000000000000001,0.0,0.001,0.002
2025-10-29 18:01:15.716,2.13,0.001,0.0,0.001,-0.014,0.023,-1.0050000000000001,-13.82,10.4,-111.83,0.9997,0.0152,0.0091,0.015000000000000001,0.0,0.0,0.002
2025-10-29 18:01:15.717,2.135,0.0,0.0,0.0,-0.013000000000000001,0.023,-1.0050000000000001,-13.82,10.4,-111.83,0.9997,0.0151,0.0091,0.015000000000000001,0.0,0.0,0.002
2025-10-29 18:01:15.717,2.14,0.0,0.0,0.001,-0.015,0.023,-1.0030000000000001,-14.9,10.49,-112.54,0.9997,0.0151,0.0091,0.015000000000000001,0.0,0.0,0.0
2025-10-29 18:01:15.717,2.145,0.002,-0.001,0.0,-0.014,0.024,-1.002,-14.9,10.49,-112.54,0.9997,0.0152,0.0091,0.015000000000000001,0.0,-0.001,0.0
2025-10-29 18:01:15.718,2.15,-0.001,0.0,0.001,-0.015,0.026000000000000002,-1.0010000000000001,-14.76,10.52,-111.83,0.9997,0.015300000000000001,0.0092,0.0151,0.001,-0.002,-0.001
2025-10-29 18:01:15.718,2.155,-0.002,0.0,0.001,-0.016,0.023,-1.0010000000000001,-14.76,10.52,-111.83,0.9997,0.015300000000000001,0.009300000000000001,0.0151,0.001,0.0,-0.001
2025-10-29 18:01:15.719,2.16,0.0,0.0,0.0,-0.014,0.024,-1.002,-14.76,10.52,-111.83,0.9997,0.015300000000000001,0.009300000000000001,0.0151,0.0,0.0,0.0
2025-10-29 18:01:15.719,2.165,-0.001,0.0,-0.001,-0.014,0.023,-1.002,-14.290000000000001,10.28,-112.68,0.9997,0.015300000000000001,0.009300000000000001,0.0151,0.0,0.0,0.0
2025-10-29 18:01:15.720,2.17,0.0,0.002,0.001,-0.013000000000000001,0.023,-1.002,-14.290000000000001,10.28,-112.68,0.9997,0.015300000000000001,0.0092,0.0151,0.0,0.0,0.0
2025-10-29 18:01:15.720,2.175,0.0,0.0,0.0,-0.016,0.025,-1.002,-14.55,9.03,-112.65,0.9997,0.015300000000000001,0.009300000000000001,0.0151,0.001,-0.001,0.0
2025-10-29 18:01:15.721,2.18,0.0,0.0,0.001,-0.014,0.024,-1.002,-14.55,9.03,-112.65,0.9997,0.015300000000000001,0.009300000000000001,0.0151,0.0,0.0,0.0
2025-10-29 18:01:15.721,2.185,0.001,0.0,0.0,-0.013000000000000001,0.023,-1.0030000000000001,-14.55,9.03,-112.65,0.9997,0.015300000000000001,0.009300000000000001,0.0151,0.0,0.0,0.0
2025-10-29 18:01:15.721,2.19,0.0,-0.002,0.0,-0.014,0.022,-1.0030000000000001,-14.32,10.72,-112.42,0.9997,0.015300000000000001,0.009300000000000001,0.0151,0.0,0.0,0.0
2025-10-29 18:01:15.722,2.195,0.0,0.0,0.001,-0.013000000000000001,0.023,-1.002,-14.32,10.72,-112.42,0.9997,0.015300000000000001,0.0092,0.0151,-0.001,0.0,0.0
2025-10-29 18:01:15.722,2.2,-0.001,-0.001,0.001,-0.015,0.022,-1.0010000000000001,-14.58,10.93,-112.33,0.9997,0.0152,0.0092,0.0151,0.0,0.001,-0.001
2025-10-29 18:01:15.723,2.205,0.001,0.0,0.001,-0.014,0.022,-1.002,-14.58,10.93,-112.33,0.9997,0.0152,0.009300000000000001,0.0151,0.0,0.0,0.0
2025-10-29 18:01:15.723,2.21,0.0,0.0,-0.001,-0.014,0.023,-1.0010000000000001,-14.17,10.55,-112.77,0.9997,0.0152,0.009300000000000001,0.0151,0.0,0.0,-0.001
2025-10-29 18:01:15.723,2.215,0.0,-0.001,0.002,-0.013000000000000001,0.022,-1.0010000000000001,-14.17,10.55,-112.77,0.9997,0.0151,0.0092,0.0151,0.0,0.0,-0.001
2025-10-29 18:01:15.724,2.22,0.001,0.0,0.001,-0.016,0.024,-1.0030000000000001,-14.17,10.55,-112.77,0.9997,0.0152,0.009300000000000001,0.015000000000000001,0.001,0.0,0.0
2025-10-29 18:01:15.724,2.225,0.0,0.002,0.0,-0.013000000000000001,0.024,-1.004,-14.73,10.9,-112.45,0.9997,0.0152,0.009300000000000001,0.015000000000000001,0.0,0.0,0.001
2025-10-29 18:01:15.725,2.23,0.0,0.001,0.0,-0.013000000000000001,0.023,-1.004,-14.73,10.9,-112.45,0.9997,0.0152,0.0092,0.015000000000000001,0.0,0.0,0.001
2025-10-29 18:01:15.725,2.235,-0.001,0.0,0.0,-0.014,0.023,-1.004,-14.82,9.82,-113.06,0.9997,0.0152,0.0092,0.015000000000000001,0.0,0.0,0.001
2025-10-29 18:01:15.725,2.24,0.0,0.0,0.001,-0.013000000000000001,0.023,-1.0050000000000001,-14.82,9.82,-113.06,0.9997,0.0152,0.0092,0.015000000000000001,0.0,0.0,0.002
2025-10-29 18:01:15.726,2.245,0.0,0.0,0.001,-0.015,0.024,-1.0030000000000001,-14.82,9.82,-113.06,0.9997,0.0152,0.0092,0.015000000000000001,0.0,0.0,0.0
2025-10-29 18:01:15.726,2.25,-0.002,-0.001,0.001,-0.014,0.023,-1.0030000000000001,-14.35,10.66,-112.74000000000001,0.9997,0.0152,0.0092,0.015000000000000001,0.0,0.0,0.0
2025-10-29 18:01:15.726,2.255,0.0,0.0,0.001,-0.014,0.023,-1.0030000000000001,-14.35,10.66,-112.74000000000001,0.9997,0.0152,0.0092,0.015000000000000001,0.0,0.0,0.0
2025-10-29 18:01:15.727,2.26,-0.002,-0.001,0.001,-0.014,0.024,-1.002,-14.58,10.93,-112.54,0.9997,0.0152,0.0092,0.015000000000000001,0.0,0.0,0.0
2025-10-29 18:01:15.727,2.265,-0.002,0.0,0.0,-0.013000000000000001,0.023,-1.002,-14.58,10.93,-112.54,0.9997,0.0152,0.0091,0.015000000000000001,0.0,0.0,0.0
2025-10-29 18:01:15.728,2.27,0.0,0.001,0.001,-0.014,0.022,-1.002,-14.58,10.93,-112.54,0.9997,0.0151,0.0092,0.015000000000000001,0.0,0.001,0.0
2025-10-29 18:01:15.728,2.275,-0.001,0.001,0.0,-0.013000000000000001,0.024,-1.002,-14.06,10.14,-112.3,0.9997,0.0152,0.0091,0.015000000000000001,0.0,0.0,0.0
2025-10-29 18:01:15.728,2.28,-0.001,-0.002,0.002,-0.014,0.023,-1.0010000000000001,-14.06,10.14,-112.3,0.9997,0.0152,0.0092,0.015000000000000001,0.0,0.0,-0.001
2025-10-29 18:01:15.729,2.285,-0.001,0.0,0.001,-0.015,0.024,-1.002,-14.23,10.93,-112.68,0.9997,0.0152,0.0092,0.015000000000000001,0.0,0.0,0.0
2025-10-29 18:01:15.729,2.29,-0.003,0.0,0.0,-0.014,0.024,-1.002,-14.23,10.93,-112.68,0.9997,0.0152,0.0092,0.015000000000000001,0.0,0.0,0.0
2025-10-29 18:01:15.729,2.295,0.0,0.0,0.0,-0.015,0.024,-1.0010000000000001,-14.67,10.43,-112.36,0.9997,0.015300000000000001,0.0092,0.015000000000000001,0.0,0.0,0.0
2025-10-29 18:01:15.730,2.3,0.001,-0.001,0.001,-0.014,0.024,-1.0,-14.67,10.43,-112.36,0.9997,0.015300000000000001,0.0092,0.015000000000000001,0.0,0.0,-0.002
2025-10-29 18:01:15.730,2.305,0.001,0.003,0.001,-0.015,0.025,-1.0030000000000001,-14.67,10.43,-112.36,0.9997,0.015300000000000001,0.0092,0.015000000000000001,0.0,-0.001,0.0
2025-10-29 18:01:15.730,2.31,0.001,0.0,0.0,-0.013000000000000001,0.024,-1.0010000000000001,-14.61,10.49,-111.95,0.9997,0.0154,0.0092,0.015000000000000001,0.0,0.0,0.0
2025-10-29 18:01:15.731,2.315,0.001,0.0,0.001,-0.013000000000000001,0.023,-1.0010000000000001,-14.61,10.49,-111.95,0.9997,0.015300000000000001,0.0092,0.015000000000000001,0.0,0.0,-0.001
2025-10-29 18:01:15.731,2.32,0.0,0.002,0.0,-0.014,0.022,-1.002,-14.790000000000001,10.78,-112.16,0.9997,0.015300000000000001,0.0092,0.015000000000000001,0.0,0.001,0.0
2025-10-29 18:01:15.732,2.325,-0.001,0.0,0.001,-0.014,0.024,-1.0010000000000001,-14.790000000000001,10.78,-112.16,0.9997,0.015300000000000001,0.0092,0.015000000000000001,0.0,0.0,-0.001
2025-10-29 18:01:15.732,2.33,0.001,0.0,0.001,-0.013000000000000001,0.024,-1.002,-14.790000000000001,10.78,-112.16,0.9997,0.015300000000000001,0.0092,0.015000000000000001,0.0,0.0,0.0
2025-10-29 18:01:15.732,2.335,0.001,0.0,0.0,-0.014,0.024,-1.0030000000000001,-14.52,11.31,-112.24000000000001,0.9997,0.015300000000000001,0.0091,0.015000000000000001,0.0,0.0,0.0
2025-10-29 18:01:15.733,2.34,0.0,0.0,-0.001,-0.013000000000000001,0.023,-1.004,-14.52,11.31,-112.24000000000001,0.9997,0.015300000000000001,0.0091,0.015000000000000001,0.0,0.0,0.001
2025-10-29 18:01:15.733,2.345,0.001,0.001,0.001,-0.014,0.023,-1.0030000000000001,-14.82,10.72,-112.27,0.9997,0.015300000000000001,0.0091,0.0149,0.0,0.0,0.001
2025-10-29 18:01:15.733,2.35,0.0,0.0,0.001,-0.015,0.024,-1.004,-14.82,10.72,-112.27,0.9997,0.015300000000000001,0.0092,0.015000000000000001,0.001,0.0,0.001
2025-10-29 18:01:15.734,2.355,0.001,0.0,0.001,-0.014,0.022,-1.0050000000000001,-14.82,10.72,-112.27,0.9997,0.015300000000000001,0.0092,0.015000000000000001,0.0,0.001,0.002
2025-10-29 18:01:15.734,2.36,0.001,0.0,0.001,-0.014,0.023,-1.006,-14.76,10.23,-112.65,0.9997,0.0152,0.0092,0.015000000000000001,0.0,0.0,0.003
2025-10-29 18:01:15.734,2.365,-0.001,0.002,0.0,-0.014,0.022,-1.0070000000000001,-14.76,10.23,-112.65,0.9997,0.0152,0.0092,0.0149,0.0,0.0,0.004
2025-10-29 18:01:15.735,2.37,0.0,0.0,-0.001,-0.014,0.022,-1.0050000000000001,-14.84,11.16,-112.16,0.9997,0.0151,0.0092,0.0149,0.0,0.0,0.002
2025-10-29 18:01:15.736,2.375,0.0,-0.002,0.0,-0.014,0.023,-1.0030000000000001,-14.84,11.16,-112.16,0.9997,0.0151,0.0092,0.0149,0.0,0.0,0.0
2025-10-29 18:01:15.736,2.38,-0.001,0.0,0.001,-0.014,0.023,-1.002,-14.84,11.16,-112.16,0.9997,0.0151,0.0092,0.0149,0.0,0.0,0.0
2025-10-29 18:01:15.737,2.385,-0.001,-0.002,0.001,-0.014,0.022,-1.0,-14.61,10.84,-112.56,0.9997,0.0151,0.0092,0.0149,0.0,0.001,-0.002
2025-10-29 18:01:15.737,2.39,-0.001,0.0,0.001,-0.015,0.024,-1.0,-14.61,10.84,-112.56,0.9997,0.0151,0.009300000000000001,0.0149,0.0,0.0,-0.002
2025-10-29 18:01:15.738,2.395,-0.001,-0.002,0.0,-0.015,0.023,-1.0010000000000001,-14.870000000000001,10.58,-111.92,0.9997,0.0152,0.009300000000000001,0.0149,0.0,0.0,-0.001
2025-10-29 18:01:15.739,2.4,0.001,-0.002,0.001,-0.015,0.023,-1.0010000000000001,-14.870000000000001,10.58,-111.92,0.9997,0.0152,0.0094,0.0149,0.0,0.0,0.0
2025-10-29 18:01:15.739,2.405,0.0,0.0,0.0,-0.015,0.025,-1.0010000000000001,-14.58,10.75,-112.97,0.9997,0.0152,0.0094,0.0148,0.0,-0.001,0.0
2025-10-29 18:01:15.739,2.41,-0.001,0.0,0.001,-0.014,0.023,-1.0,-14.58,10.75,-112.97,0.9997,0.0152,0.0094,0.0148,0.0,0.0,-0.002
2025-10-29 18:01:15.740,2.415,-0.002,0.0,0.001,-0.013000000000000001,0.024,-1.002,-14.58,10.75,-112.97,0.9997,0.015300000000000001,0.009300000000000001,0.0148,-0.001,0.0,0.0
2025-10-29 18:01:15.740,2.42,0.0,-0.001,0.0,-0.014,0.024,-1.0010000000000001,-14.93,7.1000000000000005,-112.27,0.9997,0.015300000000000001,0.009300000000000001,0.0148,0.0,0.0,0.0
2025-10-29 18:01:15.741,2.425,0.0,0.0,0.001,-0.013000000000000001,0.023,-1.002,-14.93,7.1000000000000005,-112.27,0.9997,0.015300000000000001,0.009300000000000001,0.0148,0.0,0.0,0.0
2025-10-29 18:01:15.741,2.43,0.0,0.0,0.0,-0.014,0.023,-1.002,-14.26,9.99,-112.45,0.9997,0.015300000000000001,0.009300000000000001,0.0148,0.0,0.0,0.0
2025-10-29 18:01:15.741,2.435,0.001,0.001,0.0,-0.014,0.024,-1.0030000000000001,-14.26,9.99,-112.45,0.9997,0.015300000000000001,0.009300000000000001,0.0148,0.0,0.0,0.0
2025-10-29 18:01:15.742,2.44,0.002,0.0,0.001,-0.013000000000000001,0.023,-1.0030000000000001,-14.26,9.99,-112.45,0.9997,0.0152,0.0092,0.0148,-0.001,0.0,0.0
2025-10-29 18:01:15.742,2.445,0.001,0.001,0.0,-0.013000000000000001,0.023,-1.002,-14.55,10.43,-112.07000000000001,0.9997,0.0152,0.0092,0.0148,0.0,0.0,0.0
2025-10-29 18:01:15.742,2.45,0.0,-0.001,0.002,-0.015,0.023,-1.0030000000000001,-14.55,10.43,-112.07000000000001,0.9997,0.0152,0.0092,0.0148,0.001,0.0,0.0
2025-10-29 18:01:15.743,2.455,0.001,0.0,0.0,-0.015,0.024,-1.0030000000000001,-14.58,10.69,-112.74000000000001,0.9997,0.0152,0.009300000000000001,0.0148,0.0,-0.001,0.0
2025-10-29 18:01:15.743,2.46,0.0,0.0,0.0,-0.015,0.023,-1.0010000000000001,-14.58,10.69,-112.74000000000001,0.9997,0.0152,0.009300000000000001,0.0148,0.0,0.0,-0.001
2025-10-29 18:01:15.744,2.465,0.0,0.0,0.0,-0.015,0.024,-1.0010000000000001,-14.58,10.69,-112.74000000000001,0.9997,0.015300000000000001,0.009300000000000001,0.014700000000000001,0.001,0.0,-0.001
2025-10-29 18:01:15.744,2.47,0.0,0.0,0.0,-0.014,0.024,-1.002,-14.73,10.93,-112.04,0.9997,0.015300000000000001,0.009300000000000001,0.014700000000000001,0.0,0.0,0.0
2025-10-29 18:01:15.744,2.475,0.0,0.001,0.001,-0.014,0.023,-1.002,-14.73,10.93,-112.04,0.9997,0.0152,0.009300000000000001,0.014700000000000001,0.0,0.0,0.0
2025-10-29 18:01:15.745,2.48,0.001,0.002,0.001,-0.015,0.023,-1.0010000000000001,-14.73,10.9,-112.33,0.9997,0.015300000000000001,0.009300000000000001,0.014700000000000001,0.001,0.0,-0.001
2025-10-29 18:01:15.745,2.485,0.002,0.0,0.0,-0.014,0.023,-1.002,-14.73,10.9,-112.33,0.9997,0.0152,0.009300000000000001,0.014700000000000001,0.0,0.0,0.0
2025-10-29 18:01:15.745,2.49,0.0,0.0,0.0,-0.015,0.022,-1.0030000000000001,-14.76,10.4,-112.42,0.9997,0.0152,0.0094,0.014700000000000001,0.0,0.0,0.0
2025-10-29 18:01:15.746,2.495,0.0,0.0,0.001,-0.015,0.025,-1.002,-14.76,10.4,-112.42,0.9997,0.015300000000000001,0.0094,0.014700000000000001,0.0,-0.001,0.0
2025-10-29 18:01:15.746,2.5,0.002,0.001,0.001,-0.014,0.023,-1.006,-14.76,10.4,-112.42,0.9997,0.0152,0.0094,0.014700000000000001,0.0,0.0,0.003
2025-10-29 18:01:15.746,2.505,0.001,0.001,0.001,-0.014,0.023,-1.006,-14.030000000000001,9.73,-112.27,0.9997,0.0152,0.0094,0.014700000000000001,0.0,0.0,0.003
2025-10-29 18:01:15.747,2.51,0.0,0.001,0.002,-0.013000000000000001,0.023,-1.0050000000000001,-14.030000000000001,9.73,-112.27,0.9997,0.0152,0.009300000000000001,0.014700000000000001,0.0,0.0,0.002
2025-10-29 18:01:15.747,2.515,-0.001,0.0,0.0,-0.013000000000000001,0.023,-1.004,-14.82,11.13,-112.27,0.9997,0.0152,0.009300000000000001,0.014700000000000001,0.0,0.0,0.001
2025-10-29 18:01:15.748,2.52,0.0,0.0,0.0,-0.013000000000000001,0.022,-1.002,-14.82,11.13,-112.27,0.9997,0.0151,0.0092,0.014700000000000001,0.0,0.0,0.0
2025-10-29 18:01:15.748,2.525,0.0,0.0,0.0,-0.014,0.023,-1.0010000000000001,-14.82,11.13,-112.27,0.9997,0.0151,0.0092,0.0148,0.0,0.0,-0.001
2025-10-29 18:01:15.748,2.53,-0.001,0.0,0.0,-0.015,0.025,-1.002,-14.82,10.43,-112.3,0.9997,0.0152,0.009300000000000001,0.014700000000000001,0.001,-0.001,0.0
2025-10-29 18:01:15.749,2.535,0.0,0.0,0.0,-0.015,0.023,-1.0030000000000001,-14.82,10.43,-112.3,0.9997,0.0152,0.009300000000000001,0.014700000000000001,0.0,0.0,0.0
2025-10-29 18:01:15.749,2.54,0.001,0.0,-0.001,-0.014,0.024,-1.0010000000000001,-13.790000000000001,9.14,-112.21000000000001,0.9997,0.0152,0.009300000000000001,0.014700000000000001,0.0,0.0,-0.001
2025-10-29 18:01:15.750,2.545,-0.001,0.0,0.0,-0.014,0.023,-1.0,-13.790000000000001,9.14,-112.21000000000001,0.9997,0.0152,0.009300000000000001,0.014700000000000001,0.0,0.0,-0.002
2025-10-29 18:01:15.750,2.55,0.002,0.0,0.001,-0.013000000000000001,0.024,-1.0010000000000001,-13.790000000000001,9.14,-112.21000000000001,0.9997,0.0152,0.009300000000000001,0.014700000000000001,0.0,0.0,-0.001
2025-10-29 18:01:15.750,2.555,0.002,-0.001,0.0,-0.014,0.024,-1.002,-14.58,9.0,-112.01,0.9997,0.015300000000000001,0.009300000000000001,0.014700000000000001,0.0,0.0,0.0
2025-10-29 18:01:15.750,2.56,0.002,0.0,0.0,-0.013000000000000001,0.024,-1.0030000000000001,-14.58,9.0,-112.01,0.9997,0.015300000000000001,0.009300000000000001,0.014700000000000001,0.0,0.0,0.0
2025-10-29 18:01:15.750,2.565,0.0,0.0,0.0,-0.013000000000000001,0.023,-1.0030000000000001,-14.26,10.78,-112.97,0.9997,0.015300000000000001,0.0092,0.014700000000000001,-0.001,0.0,0.0
2025-10-29 18:01:15.750,2.57,0.001,-0.001,0.0,-0.014,0.025,-1.004,-14.26,10.78,-112.97,0.9997,0.0154,0.0092,0.014700000000000001,0.0,-0.001,0.001
2025-10-29 18:01:15.751,2.575,0.001,0.0,0.0,-0.014,0.024,-1.004,-14.64,11.1,-112.56,0.9997,0.0154,0.0092,0.014700000000000001,0.0,0.0,0.002
2025-10-29 18:01:15.751,2.58,0.001,0.001,0.0,-0.014,0.023,-1.006,-14.64,11.1,-112.56,0.9997,0.015300000000000001,0.0092,0.014700000000000001,0.0,0.0,0.003
2025-10-29 18:01:15.752,2.585,0.001,0.0,0.0,-0.015,0.023,-0.999,-14.64,11.1,-112.56,0.9997,0.015300000000000001,0.0092,0.014700000000000001,0.0,0.0,-0.003
2025-10-29 18:01:15.752,2.59,0.0,0.0,0.0,-0.014,0.022,-1.004,-14.700000000000001,10.52,-112.36,0.9997,0.015300000000000001,0.0092,0.014700000000000001,0.0,0.0,0.001
2025-10-29 18:01:15.752,2.595,0.0,0.0,0.0,-0.014,0.022,-1.002,-14.700000000000001,10.52,-112.36,0.9997,0.0152,0.0092,0.014700000000000001,0.0,0.0,0.0
2025-10-29 18:01:15.753,2.6,0.0,0.0,0.0,-0.015,0.023,-1.0050000000000001,-14.55,9.93,-112.42,0.9997,0.0152,0.009300000000000001,0.014700000000000001,0.001,0.0,0.002
2025-10-29 18:01:15.753,2.605,0.0,0.0,-0.001,-0.014,0.024,-1.0050000000000001,-14.55,9.93,-112.42,0.9997,0.0152,0.009300000000000001,0.014700000000000001,0.0,0.0,0.003
2025-10-29 18:01:15.753,2.61,0.0,0.0,0.001,-0.014,0.022,-1.004,-14.55,9.93,-112.42,0.9997,0.0152,0.009300000000000001,0.014700000000000001,0.0,0.001,0.001
2025-10-29 18:01:15.754,2.615,0.001,-0.002,0.0,-0.014,0.023,-1.0,-15.17,10.08,-111.92,0.9997,0.0152,0.009300000000000001,0.014700000000000001,0.0,0.0,-0.002
2025-10-29 18:01:15.754,2.62,-0.002,0.0,0.0,-0.014,0.022,-1.002,-15.17,10.08,-111.92,0.9997,0.0152,0.009300000000000001,0.014700000000000001,0.0,0.001,0.0
2025-10-29 18:01:15.755,2.625,-0.001,0.0,0.0,-0.014,0.024,-1.0010000000000001,-14.11,9.5,-112.24000000000001,0.9997,0.0152,0.009300000000000001,0.014700000000000001,0.0,0.0,-0.001
2025-10-29 18:01:15.755,2.63,0.0,0.0,0.0,-0.016,0.025,-1.0,-14.11,9.5,-112.24000000000001,0.9997,0.0152,0.0094,0.014700000000000001,0.001,-0.001,-0.002
2025-10-29 18:01:15.760,2.635,0.0,-0.001,0.001,-0.014,0.023,-1.002,-14.11,9.5,-112.24000000000001,0.9997,0.015300000000000001,0.0094,0.014700000000000001,0.0,0.0,0.0
2025-10-29 18:01:15.760,2.64,0.001,0.0,0.001,-0.014,0.024,-1.002,-14.67,9.88,-112.65,0.9997,0.015300000000000001,0.009300000000000001,0.014700000000000001,0.0,0.0,0.0
2025-10-29 18:01:15.760,2.645,0.0,0.001,0.0,-0.014,0.023,-1.0030000000000001,-14.67,9.88,-112.65,0.9997,0.015300000000000001,0.009300000000000001,0.014700000000000001,0.0,0.0,0.0
2025-10-29 18:01:15.761,2.65,-0.001,0.0,-0.001,-0.014,0.024,-1.004,-14.26,10.69,-113.35000000000001,0.9997,0.015300000000000001,0.009300000000000001,0.014700000000000001,0.0,0.0,0.001
2025-10-29 18:01:15.771,2.655,-0.001,0.0,0.001,-0.015,0.025,-1.002,-14.26,10.69,-113.35000000000001,0.9997,0.0154,0.0094,0.014700000000000001,0.0,-0.001,0.0
2025-10-29 18:01:15.775,2.66,0.0,0.0,0.0,-0.015,0.023,-1.0010000000000001,-14.26,10.69,-113.35000000000001,0.9997,0.0154,0.0094,0.014700000000000001,0.0,0.0,-0.001
2025-10-29 18:01:15.775,2.665,-0.001,-0.001,0.001,-0.014,0.024,-1.0010000000000001,-14.82,10.26,-112.27,0.9997,0.0154,0.0094,0.014700000000000001,0.0,0.0,-0.001
2025-10-29 18:01:15.775,2.67,0.001,0.0,0.001,-0.013000000000000001,0.024,-1.0,-14.82,10.26,-112.27,0.9997,0.0154,0.009300000000000001,0.0146,0.0,0.0,-0.002
2025-10-29 18:01:15.784,2.675,0.0,-0.001,-0.001,-0.014,0.023,-1.0050000000000001,-14.9,10.34,-113.09,0.9997,0.0154,0.009300000000000001,0.0146,0.0,0.0,0.002
2025-10-29 18:01:15.801,2.68,0.0,0.001,-0.001,-0.013000000000000001,0.023,-1.0050000000000001,-14.9,10.34,-113.09,0.9997,0.015300000000000001,0.009300000000000001,0.0146,0.0,0.0,0.002
2025-10-29 18:01:15.802,2.685,-0.001,0.0,0.0,-0.015,0.024,-1.0050000000000001,-15.11,10.93,-112.13,0.9997,0.015300000000000001,0.009300000000000001,0.0146,0.001,0.0,0.002
2025-10-29 18:01:15.802,2.69,0.0,-0.001,0.001,-0.014,0.021,-1.004,-15.11,10.93,-112.13,0.9997,0.015300000000000001,0.0094,0.014700000000000001,0.0,0.001,0.001
2025-10-29 18:01:15.803,2.695,-0.001,-0.001,0.0,-0.015,0.024,-1.0010000000000001,-15.11,10.93,-112.13,0.9997,0.015300000000000001,0.0094,0.0146,0.0,0.0,-0.001
2025-10-29 18:01:15.803,2.7,-0.001,0.0,0.0,-0.014,0.024,-1.004,-15.02,10.46,-112.21000000000001,0.9997,0.015300000000000001,0.0094,0.0146,0.0,0.0,0.001
2025-10-29 18:01:15.804,2.705,-0.003,0.0,0.0,-0.014,0.024,-1.0050000000000001,-15.02,10.46,-112.21000000000001,0.9997,0.015300000000000001,0.009300000000000001,0.0146,0.0,0.0,0.002
2025-10-29 18:01:15.804,2.71,-0.001,0.0,0.002,-0.015,0.023,-1.0030000000000001,-14.93,10.75,-112.62,0.9997,0.015300000000000001,0.0094,0.0146,0.0,0.0,0.0
2025-10-29 18:01:15.804,2.715,-0.001,0.0,0.001,-0.014,0.023,-1.002,-14.93,10.75,-112.62,0.9997,0.015300000000000001,0.009300000000000001,0.0146,0.0,0.0,0.0
2025-10-29 18:01:15.809,2.72,0.0,0.0,0.0,-0.013000000000000001,0.023,-1.002,-14.93,10.75,-112.62,0.9997,0.015300000000000001,0.009300000000000001,0.0146,0.0,0.0,0.0
2025-10-29 18:01:15.809,2.725,0.0,0.0,0.0,-0.014,0.024,-1.0030000000000001,-14.49,10.9,-112.65,0.9997,0.015300000000000001,0.009300000000000001,0.0146,0.0,0.0,0.0
2025-10-29 18:01:15.810,2.73,0.0,0.0,0.0,-0.014,0.024,-1.0010000000000001,-14.49,10.9,-112.65,0.9997,0.0154,0.009300000000000001,0.0146,0.0,0.0,-0.001
2025-10-29 18:01:15.810,2.735,-0.001,0.0,0.003,-0.015,0.023,-1.0,-14.11,10.81,-112.48,0.9997,0.015300000000000001,0.009300000000000001,0.0146,0.0,0.0,-0.002
2025-10-29 18:01:15.811,2.74,-0.001,0.0,0.0,-0.014,0.024,-1.0,-14.11,10.81,-112.48,0.9997,0.0154,0.009300000000000001,0.0146,0.0,0.0,-0.002
2025-10-29 18:01:15.811,2.745,0.0,0.0,0.0,-0.014,0.023,-1.002,-14.11,10.81,-112.48,0.9997,0.0154,0.009300000000000001,0.0146,0.0,0.0,0.0
2025-10-29 18:01:15.811,2.75,0.001,0.0,0.0,-0.014,0.024,-1.0010000000000001,-14.41,10.93,-112.65,0.9997,0.0154,0.009300000000000001,0.0146,0.0,0.0,0.0
2025-10-29 18:01:15.812,2.755,0.0,0.0,0.0,-0.015,0.024,-1.0010000000000001,-14.41,10.93,-112.65,0.9997,0.0154,0.0094,0.0146,0.0,0.0,-0.001
2025-10-29 18:01:15.833,2.76,0.001,0.002,0.0,-0.015,0.023,-1.0030000000000001,-14.55,8.36,-113.47,0.9997,0.0154,0.0094,0.014700000000000001,0.0,0.0,0.0
2025-10-29 18:01:15.833,2.765,0.0,0.002,0.0,-0.015,0.023,-1.0010000000000001,-14.55,8.36,-113.47,0.9997,0.015300000000000001,0.0094,0.014700000000000001,0.0,0.0,-0.001
2025-10-29 18:01:15.834,2.77,0.0,0.001,0.001,-0.013000000000000001,0.024,-1.0030000000000001,-14.49,10.69,-113.24000000000001,0.9997,0.015300000000000001,0.0094,0.014700000000000001,-0.001,0.0,0.0
2025-10-29 18:01:15.834,2.775,-0.001,0.0,0.0,-0.014,0.024,-1.0030000000000001,-14.49,10.69,-113.24000000000001,0.9997,0.015300000000000001,0.009300000000000001,0.014700000000000001,0.0,0.0,0.0
2025-10-29 18:01:15.834,2.78,0.0,0.0,0.0,-0.014,0.024,-1.004,-14.49,10.69,-113.24000000000001,0.9997,0.015300000000000001,0.009300000000000001,0.014700000000000001,0.0,0.0,0.001
2025-10-29 18:01:15.835,2.785,-0.003,0.0,-0.001,-0.014,0.023,-1.004,-14.46,10.64,-112.48,0.9997,0.015300000000000001,0.009300000000000001,0.014700000000000001,0.0,0.0,0.001
2025-10-29 18:01:15.835,2.79,-0.001,0.0,0.001,-0.015,0.023,-1.004,-14.46,10.64,-112.48,0.9997,0.015300000000000001,0.009300000000000001,0.014700000000000001,0.0,0.0,0.001
2025-10-29 18:01:15.837,2.795,0.0,0.0,0.0,-0.013000000000000001,0.023,-1.0050000000000001,-13.47,10.31,-112.62,0.9997,0.015300000000000001,0.009300000000000001,0.014700000000000001,0.0,0.0,0.002
2025-10-29 18:01:15.854,2.8,-0.001,0.0,-0.001,-0.015,0.023,-1.0050000000000001,-13.47,10.31,-112.62,0.9997,0.0152,0.009300000000000001,0.014700000000000001,0.0,0.0,0.002
2025-10-29 18:01:15.855,2.805,-0.001,0.0,-0.001,-0.013000000000000001,0.023,-1.004,-13.47,10.31,-112.62,0.9997,0.0152,0.009300000000000001,0.014700000000000001,0.0,0.0,0.002
2025-10-29 18:01:15.883,2.81,-0.001,0.001,0.0,-0.013000000000000001,0.024,-1.0010000000000001,-14.17,11.22,-112.45,0.9997,0.0152,0.0092,0.014700000000000001,0.0,0.0,-0.001
2025-10-29 18:01:15.895,2.815,-0.003,0.0,0.0,-0.015,0.023,-1.0,-14.17,11.22,-112.45,0.9997,0.015300000000000001,0.009300000000000001,0.014700000000000001,0.0,0.0,-0.002
2025-10-29 18:01:15.895,2.82,-0.001,0.0,0.0,-0.015,0.023,-1.002,-14.700000000000001,10.870000000000001,-112.42,0.9997,0.015300000000000001,0.009300000000000001,0.014700000000000001,0.0,0.0,0.0
2025-10-29 18:01:15.896,2.825,0.001,0.002,0.0,-0.014,0.023,-1.0010000000000001,-14.700000000000001,10.870000000000001,-112.42,0.9997,0.015300000000000001,0.009300000000000001,0.014700000000000001,0.0,0.0,0.0
2025-10-29 18:01:15.896,2.83,0.0,0.002,0.001,-0.014,0.023,-1.0030000000000001,-14.700000000000001,10.870000000000001,-112.42,0.9997,0.0152,0.009300000000000001,0.014700000000000001,0.0,0.0,0.0
2025-10-29 18:01:15.904,2.835,0.001,0.0,0.002,-0.014,0.023,-1.0010000000000001,-14.38,8.06,-112.07000000000001,0.9997,0.0152,0.009300000000000001,0.014700000000000001,0.0,0.0,-0.001
2025-10-29 18:01:15.920,2.84,-0.001,0.0,0.001,-0.013000000000000001,0.024,-1.0010000000000001,-14.38,8.06,-112.07000000000001,0.9997,0.015300000000000001,0.009300000000000001,0.014700000000000001,0.0,0.0,-0.001
2025-10-29 18:01:15.920,2.845,-0.003,0.0,0.0,-0.014,0.024,-1.0030000000000001,-15.11,10.99,-112.10000000000001,0.9997,0.015300000000000001,0.009300000000000001,0.014700000000000001,0.0,0.0,0.0
2025-10-29 18:01:15.921,2.85,0.001,0.0,0.0,-0.014,0.024,-1.0,-15.11,10.99,-112.10000000000001,0.9997,0.015300000000000001,0.009300000000000001,0.014700000000000001,0.0,0.0,-0.002
2025-10-29 18:01:15.921,2.855,-0.001,0.0,0.0,-0.015,0.023,-1.002,-14.38,10.99,-112.13,0.9997,0.015300000000000001,0.009300000000000001,0.0146,0.001,0.0,0.0
2025-10-29 18:01:15.929,2.86,0.0,0.0,0.0,-0.014,0.023,-1.002,-14.38,10.93,-112.13,0.9997,0.015300000000000001,0.009300000000000001,0.014700000000000001,0.0,0.0,0.0
2025-10-29 18:01:15.938,2.865,0.001,-0.002,0.0,-0.013000000000000001,0.023,-1.002,-14.38,10.93,-112.13,0.9997,0.015300000000000001,0.009300000000000001,0.014700000000000001,0.0,0.0,0.0
2025-10-29 18:01:15.938,2.87,0.0,0.001,0.001,-0.015,0.023,-1.002,-14.52,10.84,-111.83,0.9997,0.015300000000000001,0.009300000000000001,0.014700000000000001,0.0,0.0,0.0
2025-10-29 18:01:15.939,2.875,0.001,0.001,0.0,-0.014,0.023,-1.0030000000000001,-14.52,10.84,-111.83,0.9997,0.0152,0.009300000000000001,0.014700000000000001,0.0,0.0,0.0
2025-10-29 18:01:15.939,2.88,0.0,0.003,0.0,-0.015,0.024,-1.0010000000000001,-14.700000000000001,11.040000000000001,-112.10000000000001,0.9997,0.015300000000000001,0.009300000000000001,0.014700000000000001,0.0,0.0,-0.001
2025-10-29 18:01:15.940,2.885,0.0,0.0,0.0,-0.015,0.024,-1.0010000000000001,-14.700000000000001,11.040000000000001,-112.10000000000001,0.9997,0.015300000000000001,0.009300000000000001,0.0146,0.001,0.0,-0.001
2025-10-29 18:01:15.940,2.89,-0.001,0.002,0.0,-0.014,0.024,-1.0010000000000001,-14.700000000000001,11.040000000000001,-112.10000000000001,0.9997,0.015300000000000001,0.009300000000000001,0.0146,0.0,0.0,-0.001
2025-10-29 18:01:15.940,2.895,0.0,0.0,0.001,-0.014,0.023,-1.004,-14.49,10.55,-112.45,0.9997,0.015300000000000001,0.009300000000000001,0.0146,0.0,0.0,0.001
2025-10-29 18:01:15.941,2.9,0.0,0.002,0.001,-0.014,0.023,-1.004,-14.49,10.55,-112.45,0.9997,0.015300000000000001,0.009300000000000001,0.0146,0.0,0.0,0.001
2025-10-29 18:01:15.951,2.905,0.001,0.001,0.0,-0.014,0.024,-1.0030000000000001,-15.11,10.96,-112.04,0.9997,0.015300000000000001,0.009300000000000001,0.0146,0.0,0.0,0.0
2025-10-29 18:01:15.951,2.91,0.0,0.002,0.0,-0.014,0.023,-1.004,-15.11,10.96,-112.04,0.9997,0.0152,0.009300000000000001,0.0146,0.0,0.0,0.001
2025-10-29 18:01:15.965,2.915,0.0,0.0,0.0,-0.014,0.024,-1.0050000000000001,-15.11,10.96,-112.04,0.9997,0.015300000000000001,0.009300000000000001,0.0146,0.0,0.0,0.002
2025-10-29 18:01:15.966,2.92,-0.002,0.0,0.0,-0.014,0.024,-1.004,-14.55,10.93,-112.24000000000001,0.9997,0.015300000000000001,0.009300000000000001,0.0146,0.0,0.0,0.001
2025-10-29 18:01:15.966,2.925,0.001,0.002,0.0,-0.015,0.024,-1.0030000000000001,-14.55,10.93,-112.24000000000001,0.9997,0.015300000000000001,0.009300000000000001,0.0146,0.0,0.0,0.0
2025-10-29 18:01:15.975,2.93,0.001,0.0,0.001,-0.013000000000000001,0.024,-1.002,-14.700000000000001,10.61,-112.39,0.9997,0.015300000000000001,0.0092,0.0146,0.0,0.0,0.0
2025-10-29 18:01:15.980,2.935,0.0,0.0,0.0,-0.015,0.024,-1.0030000000000001,-14.700000000000001,10.61,-112.39,0.9997,0.015300000000000001,0.009300000000000001,0.0146,0.0,0.0,0.0
2025-10-29 18:01:15.981,2.94,-0.001,0.0,-0.001,-0.014,0.024,-1.002,-14.700000000000001,10.61,-112.39,0.9997,0.015300000000000001,0.009300000000000001,0.014700000000000001,0.0,0.0,0.0
2025-10-29 18:01:15.981,2.945,0.0,0.002,0.0,-0.014,0.025,-1.0030000000000001,-14.9,10.9,-112.16,0.9997,0.0154,0.009300000000000001,0.0146,0.0,-0.001,0.0
2025-10-29 18:01:15.981,2.95,-0.001,0.0,0.001,-0.014,0.023,-1.0010000000000001,-14.9,10.9,-112.16,0.9997,0.0154,0.009300000000000001,0.0146,0.0,0.0,-0.001
2025-10-29 18:01:15.991,2.955,0.0,0.0,0.0,-0.013000000000000001,0.023,-1.002,-14.9,10.52,-112.54,0.9997,0.0154,0.009300000000000001,0.0146,0.0,0.0,0.0
2025-10-29 18:01:15.996,2.96,-0.003,0.0,0.0,-0.014,0.024,-1.002,-14.9,10.52,-112.54,0.9997,0.0154,0.0092,0.0146,0.0,0.0,0.0
2025-10-29 18:01:15.996,2.965,0.001,0.0,0.0,-0.014,0.023,-1.002,-14.06,11.07,-112.33,0.9997,0.0154,0.0092,0.0146,0.0,0.0,0.0
2025-10-29 18:01:15.996,2.97,0.0,0.001,-0.001,-0.014,0.023,-1.0030000000000001,-14.06,11.07,-112.33,0.9997,0.015300000000000001,0.0092,0.0146,0.0,0.0,0.0
2025-10-29 18:01:16.006,2.975,0.0,-0.001,0.0,-0.015,0.023,-1.002,-14.06,11.07,-112.33,0.9997,0.015300000000000001,0.009300000000000001,0.0146,0.0,0.0,0.0
2025-10-29 18:01:16.034,2.98,0.0,-0.001,0.001,-0.014,0.023,-1.0030000000000001,-14.9,10.17,-112.8,0.9997,0.015300000000000001,0.009300000000000001,0.0146,0.0,0.0,0.0
2025-10-29 18:01:16.034,2.985,0.0,0.0,0.0,-0.014,0.024,-1.004,-14.9,10.17,-112.8,0.9997,0.015300000000000001,0.0092,0.0146,0.0,0.0,0.001
2025-10-29 18:01:16.034,2.99,-0.001,0.0,0.0,-0.014,0.023,-1.004,-14.96,11.02,-113.21000000000001,0.9997,0.015300000000000001,0.009300000000000001,0.0146,0.0,0.0,0.001
2025-10-29 18:01:16.035,2.995,-0.001,0.0,0.0,-0.014,0.024,-1.004,-14.96,11.02,-113.21000000000001,0.9997,0.015300000000000001,0.009300000000000001,0.0146,0.0,0.0,0.001
2025-10-29 18:01:16.089,3.0,-0.002,0.0,-0.001,-0.014,0.024,-1.004,-14.96,11.02,-113.21000000000001,0.9997,0.015300000000000001,0.0092,0.0146,0.0,0.0,0.001
2025-10-29 18:01:16.114,3.005,-0.001,0.0,-0.001,-0.015,0.023,-1.002,-14.61,10.46,-112.94,0.9997,0.015300000000000001,0.009300000000000001,0.0146,0.0,0.0,0.0
2025-10-29 18:01:16.114,3.01,0.001,0.002,0.0,-0.015,0.023,-1.0030000000000001,-14.61,10.46,-112.94,0.9997,0.015300000000000001,0.009300000000000001,0.0146,0.0,0.0,0.0
2025-10-29 18:01:16.152,3.015,-0.001,0.0,-0.001,-0.015,0.024,-1.002,-14.73,10.55,-113.24000000000001,0.9997,0.015300000000000001,0.009300000000000001,0.0146,0.0,0.0,0.0
2025-10-29 18:01:16.166,3.02,-0.001,-0.001,0.0,-0.016,0.024,-1.0,-14.73,10.55,-113.24000000000001,0.9997,0.015300000000000001,0.0094,0.0146,0.001,0.0,-0.001
2025-10-29 18:01:16.166,3.025,0.002,-0.002,0.0,-0.013000000000000001,0.023,-1.0010000000000001,-14.73,10.55,-113.24000000000001,0.9997,0.015300000000000001,0.0094,0.0146,-0.001,0.0,-0.001
2025-10-29 18:01:16.173,3.03,0.001,0.0,0.0,-0.014,0.024,-1.0010000000000001,-14.84,8.36,-112.27,0.9997,0.015300000000000001,0.009300000000000001,0.0146,0.0,0.0,-0.001
2025-10-29 18:01:16.189,3.035,0.0,0.002,0.0,-0.015,0.024,-1.0030000000000001,-14.84,8.36,-112.27,0.9997,0.015300000000000001,0.0094,0.0146,0.0,0.0,0.0
2025-10-29 18:01:16.190,3.04,0.001,0.0,0.0,-0.014,0.022,-1.0030000000000001,-14.44,10.99,-112.48,0.9997,0.015300000000000001,0.009300000000000001,0.0146,0.0,0.001,0.0
2025-10-29 18:01:16.190,3.045,0.002,0.0,0.0,-0.015,0.023,-1.004,-14.44,10.99,-112.48,0.9997,0.0152,0.0094,0.0146,0.0,0.0,0.001
2025-10-29 18:01:16.191,3.05,0.001,-0.001,0.002,-0.014,0.023,-1.004,-14.84,10.31,-112.94,0.9997,0.0152,0.0094,0.0146,0.0,0.0,0.001
2025-10-29 18:01:16.191,3.055,0.001,-0.001,0.0,-0.014,0.022,-1.004,-14.84,10.31,-112.94,0.9997,0.0152,0.0094,0.0146,0.0,0.0,0.001
2025-10-29 18:01:16.191,3.06,-0.001,0.0,0.001,-0.014,0.023,-1.004,-14.84,10.31,-112.94,0.9997,0.0152,0.0094,0.0146,0.0,0.0,0.001
2025-10-29 18:01:16.192,3.065,0.0,-0.003,0.0,-0.014,0.025,-1.004,-14.52,9.35,-112.3,0.9997,0.0152,0.009300000000000001,0.0146,0.0,-0.001,0.001
2025-10-29 18:01:16.192,3.07,0.0,-0.002,0.0,-0.014,0.023,-1.004,-14.52,9.35,-112.3,0.9997,0.0152,0.009300000000000001,0.0146,0.0,0.0,0.002
2025-10-29 18:01:16.200,3.075,0.0,0.0,0.0,-0.013000000000000001,0.024,-1.006,-15.02,10.64,-112.77,0.9997,0.0152,0.009300000000000001,0.014700000000000001,-0.001,0.0,0.003
2025-10-29 18:01:16.200,3.08,-0.001,0.002,0.001,-0.015,0.024,-1.0030000000000001,-15.02,10.64,-112.77,0.9997,0.015300000000000001,0.009300000000000001,0.014700000000000001,0.0,0.0,0.0
2025-10-29 18:01:16.201,3.085,-0.001,0.002,0.001,-0.015,0.022,-1.002,-15.02,10.64,-112.77,0.9997,0.0152,0.009300000000000001,0.0146,0.0,0.0,0.0
2025-10-29 18:01:16.220,3.09,0.0,0.0,0.0,-0.015,0.022,-1.002,-14.26,11.13,-112.86,0.9997,0.0152,0.009300000000000001,0.0146,0.0,0.001,0.0
2025-10-29 18:01:16.220,3.095,0.0,0.0,0.0,-0.014,0.024,-1.0010000000000001,-14.26,11.13,-112.86,0.9997,0.0152,0.009300000000000001,0.0146,0.0,0.0,-0.001
2025-10-29 18:01:16.220,3.1,0.0,-0.002,0.001,-0.014,0.023,-1.002,-14.84,10.43,-112.83,0.9997,0.0152,0.009300000000000001,0.0146,0.0,0.0,0.0
2025-10-29 18:01:16.221,3.105,-0.001,0.0,0.001,-0.014,0.023,-1.006,-14.84,10.43,-112.83,0.9997,0.0152,0.009300000000000001,0.0146,0.0,0.0,0.003
2025-10-29 18:01:16.221,3.11,-0.001,0.0,0.002,-0.015,0.024,-1.004,-14.84,10.43,-112.83,0.9997,0.0152,0.0094,0.0146,0.001,0.0,0.001
2025-10-29 18:01:16.221,3.115,-0.001,0.0,0.0,-0.013000000000000001,0.023,-1.004,-14.76,10.49,-112.8,0.9997,0.0152,0.009300000000000001,0.0146,-0.001,0.0,0.001
2025-10-29 18:01:16.222,3.12,-0.002,0.0,0.001,-0.015,0.023,-1.0030000000000001,-14.76,10.49,-112.8,0.9997,0.0152,0.009300000000000001,0.0146,0.0,0.0,0.0
2025-10-29 18:01:16.222,3.125,-0.002,-0.001,0.001,-0.015,0.024,-1.0010000000000001,-15.25,10.84,-113.03,0.9997,0.0152,0.0094,0.0146,0.0,0.0,-0.001
2025-10-29 18:01:16.244,3.13,0.0,0.002,0.001,-0.015,0.025,-1.0010000000000001,-15.25,10.84,-113.03,0.9997,0.015300000000000001,0.0094,0.0146,0.0,-0.001,-0.001
2025-10-29 18:01:16.244,3.135,-0.002,0.001,0.0,-0.014,0.024,-1.0,-15.25,10.84,-112.94,0.9997,0.015300000000000001,0.0094,0.0146,0.0,0.0,-0.002
2025-10-29 18:01:16.244,3.14,-0.002,0.0,0.0,-0.015,0.024,-1.0010000000000001,-14.870000000000001,11.31,-112.94,0.9997,0.015300000000000001,0.0094,0.0146,0.0,0.0,-0.001
2025-10-29 18:01:16.245,3.145,0.002,-0.002,0.001,-0.013000000000000001,0.024,-1.0010000000000001,-14.870000000000001,11.31,-112.94,0.9997,0.0154,0.009300000000000001,0.0146,0.0,0.0,0.0
2025-10-29 18:01:16.245,3.15,0.0,0.0,0.001,-0.014,0.023,-1.0010000000000001,-15.02,10.81,-112.74000000000001,0.9997,0.015300000000000001,0.009300000000000001,0.0146,0.0,0.0,-0.001
2025-10-29 18:01:16.245,3.155,0.0,0.0,0.001,-0.015,0.024,-1.0,-15.02,10.81,-112.74000000000001,0.9997,0.0154,0.0094,0.0146,0.0,0.0,-0.002
2025-10-29 18:01:16.246,3.16,0.0,-0.001,0.0,-0.014,0.024,-0.999,-15.22,10.870000000000001,-112.16,0.9997,0.0154,0.0094,0.0146,0.0,0.0,-0.003
2025-10-29 18:01:16.246,3.165,0.0,0.0,0.0,-0.014,0.023,-1.002,-15.22,10.870000000000001,-112.16,0.9997,0.0154,0.009300000000000001,0.0146,0.0,0.0,0.0
2025-10-29 18:01:16.249,3.17,0.0,0.0,0.0,-0.015,0.022,-1.002,-15.22,10.870000000000001,-112.16,0.9997,0.015300000000000001,0.0094,0.0146,0.0,0.001,0.0
2025-10-29 18:01:16.249,3.175,0.004,0.0,0.001,-0.015,0.023,-1.004,-14.96,10.49,-112.45,0.9997,0.015300000000000001,0.0094,0.0146,0.001,0.0,0.001
2025-10-29 18:01:16.249,3.18,0.0,0.0,0.001,-0.013000000000000001,0.022,-1.0050000000000001,-14.96,10.49,-112.45,0.9997,0.0152,0.0094,0.0146,0.0,0.001,0.002
2025-10-29 18:01:16.250,3.185,0.002,0.0,0.0,-0.014,0.023,-1.006,-15.25,10.81,-112.3,0.9997,0.0152,0.0094,0.0146,0.0,0.0,0.003
2025-10-29 18:01:16.250,3.19,-0.001,-0.001,0.001,-0.015,0.023,-1.004,-15.25,10.81,-112.3,0.9997,0.0152,0.0094,0.0146,0.0,0.0,0.001
2025-10-29 18:01:16.250,3.195,0.001,0.0,0.0,-0.014,0.023,-1.004,-15.25,10.81,-112.3,0.9997,0.0152,0.0094,0.0146,0.0,0.0,0.001
2025-10-29 18:01:16.257,3.2,-0.001,0.002,0.0,-0.014,0.025,-1.004,-15.17,10.78,-112.54,0.9997,0.015300000000000001,0.009300000000000001,0.0146,0.0,-0.001,0.001
2025-10-29 18:01:16.269,3.205,-0.002,0.0,0.001,-0.014,0.022,-1.0030000000000001,-15.17,10.78,-112.54,0.9997,0.0152,0.009300000000000001,0.0146,0.0,0.001,0.0
2025-10-29 18:01:16.269,3.21,-0.003,0.0,0.0,-0.014,0.024,-1.0030000000000001,-14.64,11.4,-112.62,0.9997,0.0152,0.009300000000000001,0.0146,0.0,0.0,0.0
2025-10-29 18:01:16.270,3.215,0.0,-0.002,0.0,-0.014,0.022,-1.0010000000000001,-14.64,11.4,-112.62,0.9997,0.0152,0.009300000000000001,0.0146,0.0,0.001,0.0
2025-10-29 18:01:16.279,3.22,0.0,-0.001,0.0,-0.013000000000000001,0.024,-1.0010000000000001,-14.64,11.4,-112.62,0.9997,0.0152,0.009300000000000001,0.0146,0.0,0.0,-0.001
2025-10-29 18:01:16.298,3.225,0.0,0.0,0.0,-0.014,0.023,-1.0010000000000001,-14.700000000000001,10.75,-113.47,0.9997,0.0152,0.009300000000000001,0.0146,0.0,0.0,-0.001
2025-10-29 18:01:16.299,3.23,0.0,0.0,0.001,-0.015,0.024,-1.0,-14.700000000000001,10.75,-113.47,0.9997,0.015300000000000001,0.009300000000000001,0.0146,0.0,0.0,-0.002
2025-10-29 18:01:16.299,3.235,0.002,0.002,-0.001,-0.014,0.023,-1.002,-14.93,11.25,-113.15,0.9997,0.0152,0.009300000000000001,0.0146,0.0,0.0,0.0
2025-10-29 18:01:16.299,3.24,0.0,0.002,0.0,-0.013000000000000001,0.024,-1.002,-14.93,11.25,-113.15,0.9997,0.015300000000000001,0.0092,0.0146,-0.001,0.0,0.0
2025-10-29 18:01:16.300,3.245,0.0,-0.002,0.001,-0.015,0.023,-1.0010000000000001,-14.93,11.25,-112.8,0.9997,0.0152,0.009300000000000001,0.0146,0.0,0.0,-0.001
2025-10-29 18:01:16.312,3.25,0.0,0.0,0.0,-0.014,0.023,-1.002,-15.02,10.96,-112.8,0.9997,0.0152,0.009300000000000001,0.0146,0.0,0.0,0.0
2025-10-29 18:01:16.316,3.255,0.0,0.002,0.0,-0.014,0.023,-1.002,-15.02,10.96,-112.8,0.9997,0.0152,0.009300000000000001,0.0146,0.0,0.0,0.0
2025-10-29 18:01:16.316,3.26,0.001,0.001,-0.001,-0.014,0.023,-1.002,-15.200000000000001,10.84,-112.92,0.9997,0.0152,0.009300000000000001,0.0146,0.0,0.0,0.0
2025-10-29 18:01:16.316,3.265,0.002,0.002,0.0,-0.015,0.022,-1.0,-15.200000000000001,10.84,-112.92,0.9997,0.0151,0.009300000000000001,0.0146,0.001,0.001,-0.002
2025-10-29 18:01:16.317,3.27,0.001,0.001,0.0,-0.014,0.024,-1.004,-14.64,11.040000000000001,-112.71000000000001,0.9997,0.0152,0.009300000000000001,0.0146,0.0,0.0,0.001
2025-10-29 18:01:16.317,3.275,0.0,0.002,0.0,-0.014,0.022,-1.002,-14.64,11.040000000000001,-112.71000000000001,0.9997,0.0151,0.009300000000000001,0.0146,0.0,0.0,0.0
2025-10-29 18:01:16.322,3.28,0.0,0.003,0.0,-0.014,0.023,-1.004,-14.64,11.040000000000001,-112.71000000000001,0.9997,0.0151,0.009300000000000001,0.0146,0.0,0.0,0.001
2025-10-29 18:01:16.339,3.285,0.002,0.0,0.0,-0.013000000000000001,0.023,-1.002,-15.05,10.96,-112.48,0.9997,0.0151,0.009300000000000001,0.0146,0.0,0.0,0.0
2025-10-29 18:01:16.339,3.29,0.002,-0.001,0.0,-0.014,0.023,-1.0030000000000001,-15.05,10.96,-112.48,0.9997,0.0151,0.009300000000000001,0.0146,0.0,0.0,0.0
2025-10-29 18:01:16.339,3.295,0.002,0.0,0.001,-0.014,0.023,-1.004,-14.9,10.34,-112.33,0.9997,0.0151,0.009300000000000001,0.0146,0.0,0.0,0.001
2025-10-29 18:01:16.340,3.3,0.0,0.0,0.0,-0.014,0.022,-1.002,-14.9,10.34,-112.33,0.9997,0.0151,0.009300000000000001,0.0146,0.0,0.0,0.0
2025-10-29 18:01:16.346,3.305,0.0,0.0,0.001,-0.013000000000000001,0.023,-1.004,-14.9,10.34,-112.33,0.9997,0.0151,0.0092,0.0146,0.0,0.0,0.001
2025-10-29 18:01:16.362,3.31,0.0,0.001,0.0,-0.014,0.022,-1.004,-14.0,10.14,-112.07000000000001,0.9997,0.0151,0.0092,0.0146,0.0,0.0,0.001
2025-10-29 18:01:16.363,3.315,-0.001,0.0,0.0,-0.015,0.023,-1.0050000000000001,-14.0,10.14,-112.07000000000001,0.9997,0.0151,0.009300000000000001,0.0146,0.0,0.0,0.002
2025-10-29 18:01:16.363,3.32,0.002,-0.001,0.002,-0.013000000000000001,0.023,-1.004,-15.49,10.84,-112.51,0.9997,0.015000000000000001,0.0092,0.0146,0.0,0.0,0.001
2025-10-29 18:01:16.363,3.325,0.0,-0.001,0.0,-0.014,0.023,-1.0030000000000001,-15.49,10.84,-112.51,0.9997,0.015000000000000001,0.0092,0.0146,0.0,0.0,0.0
2025-10-29 18:01:16.370,3.33,-0.001,0.002,0.0,-0.014,0.023,-1.002,-14.61,10.52,-112.89,0.9997,0.0151,0.0092,0.0146,0.0,0.0,0.0
2025-10-29 18:01:16.380,3.335,0.0,0.0,0.001,-0.014,0.022,-1.002,-14.61,10.52,-112.89,0.9997,0.015000000000000001,0.0092,0.0146,0.0,0.0,0.0
2025-10-29 18:01:16.380,3.34,0.0,0.0,-0.001,-0.014,0.023,-1.002,-14.61,10.52,-112.89,0.9997,0.015000000000000001,0.0092,0.0146,0.0,0.0,0.0
2025-10-29 18:01:16.380,3.345,-0.002,0.0,0.0,-0.014,0.022,-1.002,-14.32,10.84,-113.24000000000001,0.9997,0.015000000000000001,0.009300000000000001,0.0146,0.0,0.0,0.0
2025-10-29 18:01:16.432,3.35,0.001,0.0,0.001,-0.014,0.023,-1.002,-14.32,10.84,-113.24000000000001,0.9997,0.015000000000000001,0.009300000000000001,0.0146,0.0,0.0,0.0
2025-10-29 18:01:16.461,3.355,0.0,0.0,0.0,-0.014,0.025,-1.0030000000000001,-14.290000000000001,10.61,-113.53,0.9997,0.0151,0.0092,0.0146,0.0,-0.001,0.001
2025-10-29 18:01:16.462,3.36,0.0,0.0,0.0,-0.014,0.024,-1.0030000000000001,-14.290000000000001,10.61,-113.53,0.9997,0.0152,0.0092,0.0146,0.0,-0.001,0.0
2025-10-29 18:01:16.462,3.365,0.0,0.0,0.001,-0.015,0.025,-1.0030000000000001,-14.290000000000001,10.61,-113.53,0.9997,0.015300000000000001,0.009300000000000001,0.0146,0.0,-0.001,0.0
2025-10-29 18:01:16.488,3.37,0.0,0.001,0.001,-0.014,0.024,-1.004,-13.85,10.64,-113.12,0.9997,0.015300000000000001,0.0092,0.0146,0.0,0.0,0.001
2025-10-29 18:01:16.497,3.375,0.0,0.002,0.001,-0.015,0.023,-1.0030000000000001,-13.85,10.64,-113.12,0.9997,0.0152,0.009300000000000001,0.0146,0.0,0.0,0.0
2025-10-29 18:01:16.498,3.38,0.0,0.0,0.001,-0.015,0.023,-1.0030000000000001,-14.870000000000001,10.9,-112.92,0.9997,0.0152,0.009300000000000001,0.0146,0.001,0.0,0.001
2025-10-29 18:01:16.498,3.385,0.0,0.0,0.001,-0.015,0.022,-1.0030000000000001,-14.870000000000001,10.9,-112.92,0.9997,0.0152,0.0094,0.0146,0.0,0.0,0.0
2025-10-29 18:01:16.498,3.39,0.0,0.0,0.0,-0.014,0.024,-1.0030000000000001,-14.870000000000001,10.9,-112.92,0.9997,0.015300000000000001,0.009300000000000001,0.0146,0.0,-0.001,0.001
2025-10-29 18:01:16.507,3.395,-0.001,-0.002,0.0,-0.015,0.023,-1.0050000000000001,-14.26,9.38,-112.77,0.9997,0.015300000000000001,0.0094,0.0146,0.0,0.0,0.002
2025-10-29 18:01:16.529,3.4,-0.001,0.0,0.0,-0.014,0.023,-1.0030000000000001,-14.26,9.38,-112.77,0.9997,0.015300000000000001,0.0094,0.0146,0.0,0.0,0.0
2025-10-29 18:01:16.530,3.405,0.001,0.0,0.001,-0.014,0.024,-1.0030000000000001,-15.17,10.99,-113.21000000000001,0.9997,0.015300000000000001,0.0094,0.0146,0.0,0.0,0.0
2025-10-29 18:01:16.530,3.41,-0.001,-0.002,0.0,-0.015,0.022,-1.0010000000000001,-15.17,10.99,-113.21000000000001,0.9997,0.0152,0.0094,0.0146,0.0,0.001,-0.001
2025-10-29 18:01:16.530,3.415,0.001,0.0,0.002,-0.014,0.024,-1.0010000000000001,-15.17,10.99,-113.21000000000001,0.9997,0.015300000000000001,0.0094,0.0146,0.0,0.0,-0.001
2025-10-29 18:01:16.531,3.42,-0.002,0.001,0.002,-0.014,0.024,-1.0,-15.08,10.69,-113.15,0.9997,0.015300000000000001,0.0094,0.0146,0.0,0.0,-0.002
2025-10-29 18:01:16.531,3.425,0.001,0.0,0.001,-0.014,0.023,-1.0010000000000001,-15.08,10.69,-113.15,0.9997,0.015300000000000001,0.0094,0.0146,0.0,0.0,-0.001
2025-10-29 18:01:16.531,3.43,0.001,0.0,0.001,-0.014,0.024,-1.0010000000000001,-14.46,10.34,-112.33,0.9997,0.015300000000000001,0.0094,0.0146,0.0,0.0,-0.001
2025-10-29 18:01:16.540,3.435,0.0,-0.002,0.0,-0.013000000000000001,0.024,-1.002,-14.46,10.34,-112.33,0.9997,0.0154,0.009300000000000001,0.0145,-0.001,0.0,0.0
2025-10-29 18:01:16.548,3.44,-0.001,0.001,0.001,-0.013000000000000001,0.026000000000000002,-1.0030000000000001,-14.61,11.1,-111.89,0.9997,0.0155,0.009300000000000001,0.0145,-0.001,-0.001,0.0
2025-10-29 18:01:16.549,3.445,0.001,0.0,0.0,-0.014,0.023,-1.004,-14.61,11.1,-111.89,0.9997,0.0154,0.009300000000000001,0.0145,0.0,0.0,0.001
2025-10-29 18:01:16.549,3.45,0.0,-0.002,0.0,-0.015,0.023,-1.004,-14.61,11.1,-111.89,0.9997,0.0154,0.009300000000000001,0.0145,0.001,0.0,0.001
2025-10-29 18:01:16.550,3.455,-0.002,0.0,0.0,-0.014,0.023,-1.0030000000000001,-15.17,10.84,-112.97,0.9997,0.0154,0.009300000000000001,0.0145,0.0,0.0,0.0
2025-10-29 18:01:16.550,3.46,0.0,0.0,0.0,-0.014,0.023,-1.0030000000000001,-15.17,10.84,-112.97,0.9997,0.0154,0.009300000000000001,0.0145,0.0,0.0,0.0
2025-10-29 18:01:16.550,3.465,0.001,0.0,0.001,-0.014,0.022,-1.002,-15.11,11.34,-112.3,0.9997,0.015300000000000001,0.009300000000000001,0.0145,0.0,0.001,0.0
2025-10-29 18:01:16.551,3.47,0.001,-0.001,0.0,-0.014,0.022,-1.0010000000000001,-15.11,11.34,-112.3,0.9997,0.015300000000000001,0.009300000000000001,0.0145,0.0,0.001,0.0
2025-10-29 18:01:16.551,3.475,0.004,0.002,0.0,-0.014,0.022,-1.0030000000000001,-15.11,11.34,-112.3,0.9997,0.0152,0.009300000000000001,0.0145,0.0,0.0,0.0
2025-10-29 18:01:16.560,3.48,0.001,0.002,0.0,-0.014,0.022,-1.004,-15.05,10.55,-112.56,0.9997,0.0152,0.009300000000000001,0.0145,0.0,0.0,0.001
2025-10-29 18:01:16.561,3.485,0.0,0.0,0.0,-0.015,0.023,-1.0050000000000001,-15.05,10.55,-112.56,0.9997,0.0152,0.009300000000000001,0.0145,0.001,0.0,0.002
2025-10-29 18:01:16.561,3.49,0.002,-0.001,0.001,-0.014,0.023,-1.0050000000000001,-14.41,10.61,-112.71000000000001,0.9997,0.0152,0.009300000000000001,0.0145,0.0,0.0,0.002
2025-10-29 18:01:16.561,3.495,0.0,0.0,0.0,-0.015,0.024,-1.004,-14.41,10.61,-112.71000000000001,0.9997,0.0152,0.0094,0.0145,0.0,0.0,0.001
2025-10-29 18:01:16.562,3.5,0.001,0.0,0.0,-0.014,0.022,-1.0010000000000001,-14.41,10.61,-112.71000000000001,0.9997,0.0151,0.0094,0.0145,0.0,0.0,-0.001
2025-10-29 18:01:16.562,3.505,-0.002,0.0,-0.001,-0.014,0.025,-1.002,-15.58,11.16,-113.15,0.9997,0.0152,0.0094,0.0145,0.0,-0.001,0.0
2025-10-29 18:01:16.562,3.51,-0.001,0.0,0.0,-0.014,0.024,-1.0,-15.58,11.16,-113.15,0.9997,0.0152,0.0094,0.0145,0.0,0.0,-0.001
2025-10-29 18:01:16.580,3.515,-0.002,0.0,0.0,-0.014,0.023,-1.002,-14.790000000000001,11.1,-113.12,0.9997,0.015300000000000001,0.009300000000000001,0.0145,0.0,0.0,0.0
2025-10-29 18:01:16.580,3.52,0.001,0.0,0.001,-0.014,0.023,-1.004,-14.790000000000001,11.1,-113.12,0.9997,0.0152,0.009300000000000001,0.014400000000000001,0.0,0.0,0.001
2025-10-29 18:01:16.581,3.525,-0.001,-0.002,0.001,-0.015,0.024,-1.0030000000000001,-14.44,10.84,-113.27,0.9997,0.015300000000000001,0.009300000000000001,0.014400000000000001,0.0,0.0,0.0
2025-10-29 18:01:16.581,3.53,-0.001,0.0,0.0,-0.013000000000000001,0.023,-1.002,-14.44,10.84,-113.27,0.9997,0.015300000000000001,0.009300000000000001,0.014400000000000001,-0.001,0.0,0.0
2025-10-29 18:01:16.592,3.535,0.0,0.0,-0.001,-0.014,0.023,-1.002,-14.44,10.84,-113.27,0.9997,0.015300000000000001,0.009300000000000001,0.014400000000000001,0.0,0.0,0.0
2025-10-29 18:01:16.605,3.54,0.0,0.0,0.0,-0.015,0.025,-1.002,-14.96,9.99,-112.94,0.9997,0.015300000000000001,0.009300000000000001,0.0145,0.0,-0.001,0.0
2025-10-29 18:01:16.606,3.545,0.0,0.0,0.0,-0.014,0.023,-1.002,-14.96,9.99,-112.94,0.9997,0.015300000000000001,0.009300000000000001,0.0145,0.0,0.0,0.0
2025-10-29 18:01:16.606,3.55,0.0,0.001,0.0,-0.014,0.024,-1.002,-13.97,8.36,-113.12,0.9997,0.015300000000000001,0.009300000000000001,0.0145,0.0,0.0,0.0
2025-10-29 18:01:16.606,3.555,-0.002,0.0,0.0,-0.014,0.024,-1.004,-13.97,8.36,-113.12,0.9997,0.015300000000000001,0.009300000000000001,0.0145,0.0,0.0,0.001
2025-10-29 18:01:16.607,3.56,0.0,0.001,-0.001,-0.014,0.023,-1.004,-13.97,8.36,-113.12,0.9997,0.015300000000000001,0.009300000000000001,0.0145,0.0,0.0,0.001
2025-10-29 18:01:16.617,3.565,0.0,-0.001,0.0,-0.014,0.023,-1.0050000000000001,-14.64,11.16,-112.3,0.9997,0.015300000000000001,0.009300000000000001,0.0145,0.0,0.0,0.002
2025-10-29 18:01:16.633,3.57,-0.003,0.0,0.0,-0.015,0.021,-1.0030000000000001,-14.64,11.16,-112.3,0.9997,0.0152,0.009300000000000001,0.014400000000000001,0.0,0.002,0.0
2025-10-29 18:01:16.633,3.575,-0.001,0.0,0.0,-0.015,0.022,-1.0030000000000001,-14.55,10.81,-112.83,0.9997,0.0151,0.0094,0.014400000000000001,0.0,0.0,0.0
2025-10-29 18:01:16.634,3.58,0.001,-0.002,0.0,-0.014,0.022,-1.004,-14.55,10.81,-112.83,0.9997,0.0151,0.0094,0.014400000000000001,0.0,0.001,0.001
2025-10-29 18:01:16.640,3.585,0.001,0.0,0.0,-0.014,0.023,-1.002,-14.55,10.81,-112.83,0.9997,0.0151,0.0094,0.014400000000000001,0.0,0.0,0.0
2025-10-29 18:01:16.661,3.59,0.001,0.0,0.0,-0.015,0.022,-1.0030000000000001,-14.96,9.96,-112.59,0.9997,0.0151,0.0094,0.014400000000000001,0.0,0.0,0.0
2025-10-29 18:01:16.661,3.595,0.001,0.0,0.0,-0.015,0.024,-1.002,-14.96,9.96,-112.59,0.9997,0.0151,0.0094,0.014400000000000001,0.0,0.0,0.0
2025-10-29 18:01:16.662,3.6,0.0,-0.001,0.0,-0.014,0.022,-1.002,-14.52,11.34,-112.71000000000001,0.9997,0.0151,0.0094,0.014400000000000001,0.0,0.0,0.0
2025-10-29 18:01:16.662,3.605,0.0,-0.002,0.001,-0.014,0.023,-1.002,-14.52,11.34,-112.71000000000001,0.9997,0.0151,0.0094,0.014400000000000001,0.0,0.0,0.0
2025-10-29 18:01:16.662,3.61,0.0,0.0,0.002,-0.013000000000000001,0.023,-1.0030000000000001,-14.870000000000001,10.26,-112.74000000000001,0.9997,0.0151,0.009300000000000001,0.014400000000000001,0.0,0.0,0.0
2025-10-29 18:01:16.663,3.615,0.0,0.0,0.0,-0.014,0.023,-1.0050000000000001,-14.870000000000001,10.26,-112.74000000000001,0.9997,0.0151,0.009300000000000001,0.014400000000000001,0.0,0.0,0.002
2025-10-29 18:01:16.670,3.62,0.001,-0.002,0.0,-0.013000000000000001,0.023,-1.0030000000000001,-14.870000000000001,10.26,-112.74000000000001,0.9997,0.0151,0.009300000000000001,0.0145,-0.001,0.0,0.0
2025-10-29 18:01:16.681,3.625,0.0,0.0,0.001,-0.014,0.023,-1.002,-14.76,10.64,-112.8,0.9997,0.0151,0.009300000000000001,0.0145,0.0,0.0,0.0
2025-10-29 18:01:16.681,3.63,-0.001,0.0,0.0,-0.015,0.022,-1.002,-14.76,10.64,-112.8,0.9997,0.015000000000000001,0.009300000000000001,0.014400000000000001,0.0,0.0,0.0
2025-10-29 18:01:16.682,3.635,-0.001,0.0,0.0,-0.015,0.023,-1.0030000000000001,-14.64,8.24,-112.71000000000001,0.9997,0.015000000000000001,0.009300000000000001,0.014400000000000001,0.0,0.0,0.0
2025-10-29 18:01:16.682,3.64,0.0,0.0,0.0,-0.014,0.023,-1.002,-14.64,8.24,-112.71000000000001,0.9997,0.015000000000000001,0.009300000000000001,0.014400000000000001,0.0,0.0,0.0
2025-10-29 18:01:16.708,3.645,0.0,0.0,0.0,-0.014,0.023,-1.0010000000000001,-14.64,8.24,-112.71000000000001,0.9997,0.0151,0.009300000000000001,0.014400000000000001,0.0,0.0,-0.001
2025-10-29 18:01:16.733,3.65,0.002,0.0,0.001,-0.014,0.023,-1.0,-14.76,9.55,-112.68,0.9997,0.0151,0.009300000000000001,0.014400000000000001,0.0,0.0,-0.001
2025-10-29 18:01:16.734,3.655,0.0,0.0,-0.001,-0.015,0.022,-1.002,-14.76,9.55,-112.68,0.9997,0.015000000000000001,0.009300000000000001,0.014400000000000001,0.0,0.0,0.0
2025-10-29 18:01:16.734,3.66,0.001,0.001,0.001,-0.015,0.023,-1.0,-14.96,10.93,-112.62,0.9997,0.015000000000000001,0.0094,0.014400000000000001,0.0,0.0,-0.002
2025-10-29 18:01:16.759,3.665,0.0,0.0,0.002,-0.015,0.023,-1.002,-14.96,10.93,-112.62,0.9997,0.0151,0.0094,0.014400000000000001,0.0,0.0,0.0
2025-10-29 18:01:16.794,3.67,-0.001,0.0,0.0,-0.013000000000000001,0.023,-1.002,-14.96,10.93,-112.62,0.9997,0.0151,0.009300000000000001,0.014400000000000001,-0.001,0.0,0.0
2025-10-29 18:01:16.795,3.675,0.002,0.0,0.0,-0.015,0.023,-1.0010000000000001,-14.73,11.16,-112.59,0.9997,0.0151,0.009300000000000001,0.014400000000000001,0.0,0.0,-0.001
2025-10-29 18:01:16.795,3.68,0.001,0.002,0.0,-0.013000000000000001,0.024,-1.0010000000000001,-14.73,11.16,-112.59,0.9997,0.0151,0.009300000000000001,0.014400000000000001,0.0,-0.001,-0.001
2025-10-29 18:01:16.796,3.685,0.0,0.002,0.0,-0.014,0.022,-1.0030000000000001,-15.22,11.16,-112.83,0.9997,0.0151,0.009300000000000001,0.014400000000000001,0.0,0.0,0.0
2025-10-29 18:01:16.796,3.69,0.0,0.0,0.0,-0.013000000000000001,0.024,-1.0050000000000001,-15.22,11.16,-112.83,0.9997,0.0151,0.009300000000000001,0.014400000000000001,0.0,-0.001,0.002
2025-10-29 18:01:16.821,3.695,0.001,-0.001,0.0,-0.016,0.023,-1.0050000000000001,-15.22,11.16,-112.83,0.9997,0.0151,0.009300000000000001,0.014400000000000001,0.001,0.0,0.002
2025-10-29 18:01:16.841,3.7,-0.001,0.0,0.0,-0.014,0.022,-1.0050000000000001,-14.93,11.07,-113.15,0.9997,0.0151,0.009300000000000001,0.014400000000000001,0.0,0.0,0.002
2025-10-29 18:01:16.842,3.705,0.002,-0.002,0.0,-0.014,0.024,-1.006,-14.93,11.07,-113.15,0.9997,0.0152,0.0094,0.014400000000000001,0.0,-0.001,0.003
2025-10-29 18:01:16.842,3.71,0.0,-0.002,0.0,-0.013000000000000001,0.023,-1.0050000000000001,-14.870000000000001,9.85,-113.06,0.9997,0.0151,0.009300000000000001,0.014400000000000001,0.0,0.0,0.002
2025-10-29 18:01:16.842,3.715,-0.001,0.0,0.0,-0.014,0.022,-1.0030000000000001,-14.870000000000001,9.85,-113.06,0.9997,0.0151,0.009300000000000001,0.014400000000000001,0.0,0.0,0.0
2025-10-29 18:01:16.843,3.72,-0.002,0.002,0.0,-0.015,0.024,-1.0030000000000001,-14.76,10.61,-112.54,0.9997,0.0151,0.009300000000000001,0.014400000000000001,0.0,0.0,0.0
2025-10-29 18:01:16.843,3.725,0.0,0.001,0.001,-0.013000000000000001,0.023,-1.0030000000000001,-14.76,10.61,-112.54,0.9997,0.0151,0.009300000000000001,0.014400000000000001,-0.001,0.0,0.0
2025-10-29 18:01:16.844,3.73,-0.001,0.0,0.001,-0.015,0.023,-1.0030000000000001,-14.76,10.61,-112.54,0.9997,0.0151,0.009300000000000001,0.014400000000000001,0.0,0.0,0.0
2025-10-29 18:01:16.847,3.735,-0.001,0.0,0.0,-0.014,0.024,-1.002,-15.02,10.870000000000001,-112.65,0.9997,0.0152,0.009300000000000001,0.014400000000000001,0.0,0.0,0.0
2025-10-29 18:01:16.861,3.74,0.0,0.0,0.0,-0.014,0.023,-1.0010000000000001,-15.02,10.870000000000001,-112.65,0.9997,0.0152,0.009300000000000001,0.014400000000000001,0.0,0.0,0.0
2025-10-29 18:01:16.861,3.745,-0.003,0.001,0.0,-0.014,0.024,-1.002,-14.93,10.96,-113.53,0.9997,0.0152,0.009300000000000001,0.014400000000000001,0.0,0.0,0.0
2025-10-29 18:01:16.862,3.75,-0.003,0.0,0.0,-0.014,0.024,-1.002,-14.93,10.96,-113.53,0.9997,0.0152,0.009300000000000001,0.014400000000000001,0.0,0.0,0.0
2025-10-29 18:01:16.862,3.755,-0.001,0.0,0.0,-0.014,0.023,-1.0,-14.93,10.96,-113.53,0.9997,0.0152,0.009300000000000001,0.014400000000000001,0.0,0.0,-0.002
2025-10-29 18:01:16.862,3.76,0.001,0.0,0.0,-0.014,0.025,-1.0010000000000001,-14.76,10.61,-112.74000000000001,0.9997,0.0152,0.009300000000000001,0.014400000000000001,0.0,-0.001,-0.001
2025-10-29 18:01:16.863,3.765,0.0,-0.001,0.0,-0.014,0.024,-1.0010000000000001,-14.76,10.61,-112.74000000000001,0.9997,0.015300000000000001,0.009300000000000001,0.014400000000000001,0.0,0.0,-0.001
2025-10-29 18:01:16.863,3.77,0.001,0.0,0.0,-0.014,0.024,-1.0030000000000001,-15.14,10.72,-112.33,0.9997,0.015300000000000001,0.009300000000000001,0.014400000000000001,0.0,0.0,0.0
2025-10-29 18:01:16.863,3.775,0.0,0.0,0.0,-0.014,0.024,-1.002,-15.14,10.72,-112.33,0.9997,0.015300000000000001,0.009300000000000001,0.014400000000000001,0.0,0.0,0.0
2025-10-29 18:01:16.876,3.78,-0.001,0.001,0.001,-0.014,0.024,-1.0010000000000001,-15.14,10.72,-112.33,0.9997,0.015300000000000001,0.009300000000000001,0.014400000000000001,0.0,0.0,0.0
2025-10-29 18:01:16.882,3.785,0.0,0.001,0.0,-0.014,0.023,-1.004,-15.05,9.99,-112.68,0.9997,0.015300000000000001,0.009300000000000001,0.014400000000000001,0.0,0.0,0.001
2025-10-29 18:01:16.883,3.79,0.0,0.0,0.001,-0.015,0.023,-1.0030000000000001,-15.05,9.99,-112.68,0.9997,0.015300000000000001,0.009300000000000001,0.014400000000000001,0.0,0.0,0.0
2025-10-29 18:01:16.883,3.795,0.001,0.0,0.0,-0.014,0.023,-1.004,-14.99,10.52,-112.04,0.9997,0.015300000000000001,0.009300000000000001,0.014400000000000001,0.0,0.0,0.001
2025-10-29 18:01:16.883,3.8,0.0,0.0,-0.001,-0.014,0.023,-1.0030000000000001,-14.99,10.52,-112.04,0.9997,0.0152,0.009300000000000001,0.014400000000000001,0.0,0.0,0.0
2025-10-29 18:01:16.884,3.805,0.0,0.0,0.0,-0.015,0.022,-1.004,-14.61,11.07,-112.10000000000001,0.9997,0.0152,0.009300000000000001,0.014400000000000001,0.0,0.0,0.001
2025-10-29 18:01:16.884,3.81,0.0,0.0,0.001,-0.014,0.024,-1.0030000000000001,-14.61,11.07,-112.10000000000001,0.9997,0.0152,0.009300000000000001,0.014400000000000001,0.0,0.0,0.0
2025-10-29 18:01:16.884,3.815,0.0,0.001,0.0,-0.013000000000000001,0.023,-1.004,-14.61,11.07,-112.10000000000001,0.9997,0.0152,0.009300000000000001,0.0143,-0.001,0.0,0.001
2025-10-29 18:01:16.885,3.82,-0.003,0.001,0.0,-0.015,0.023,-1.0050000000000001,-14.67,11.07,-113.53,0.9997,0.0152,0.009300000000000001,0.0143,0.0,0.0,0.003
2025-10-29 18:01:16.897,3.825,-0.001,0.0,0.0,-0.013000000000000001,0.022,-1.0030000000000001,-14.67,11.07,-113.53,0.9997,0.0151,0.009300000000000001,0.0143,0.0,0.001,0.0
2025-10-29 18:01:16.897,3.83,-0.001,0.0,-0.001,-0.015,0.024,-1.002,-14.790000000000001,10.31,-112.97,0.9997,0.0151,0.009300000000000001,0.014400000000000001,0.0,0.0,0.0
2025-10-29 18:01:16.898,3.835,-0.001,0.0,0.001,-0.014,0.023,-1.0,-14.790000000000001,10.31,-112.97,0.9997,0.0151,0.009300000000000001,0.0143,0.0,0.0,-0.002
2025-10-29 18:01:16.898,3.84,0.0,0.0,0.001,-0.014,0.023,-1.002,-14.790000000000001,10.31,-112.97,0.9997,0.0151,0.009300000000000001,0.0143,0.0,0.0,0.0
2025-10-29 18:01:16.898,3.845,-0.001,0.001,0.0,-0.013000000000000001,0.024,-1.002,-15.17,10.75,-112.65,0.9997,0.0152,0.009300000000000001,0.014400000000000001,0.0,-0.001,0.0
2025-10-29 18:01:16.908,3.85,-0.001,0.001,-0.001,-0.013000000000000001,0.022,-1.002,-15.17,10.75,-112.65,0.9997,0.0152,0.0092,0.014400000000000001,-0.001,0.0,0.0
