Timestamp,imuTimestamp,Gyro_X (rad/s),Gyro_Y (rad/s),Gyro_Z (rad/s),Acc_X (g),Acc_Y (g),Acc_Z (g),Mag_X (¦ÌT),Mag_Y (¦ÌT),Mag_Z (¦ÌT),Euler_X,Euler_Y,Euler_Z,Quaternion_W,Quaternion_X,Quaternion_Y,Quaternion_Z,Linear_Acc_X (g),Linear_Acc_Y (g),Linear_Acc_Z (g)
2025-10-27 11:13:01.462,116.7525,0.002,0.0,0.0,-0.027,0.024,-1.0010000000000001,-36.300000000000004,8.68,-114.9,0.0165,0.0145,0.10360000000000001,0.0002,0.0,0.0,0.9943000000000001,-0.298,-0.324,-2.072
2025-10-27 11:13:01.464,116.755,0.002,-0.001,0.0,-0.028,0.024,-0.999,-36.300000000000004,8.68,-114.9,0.0165,0.0145,0.10360000000000001,0.0002,-0.0001,0.0,0.9943000000000001,-0.298,-0.324,-2.072
2025-10-27 11:13:01.465,116.7575,0.0,-0.004,0.0,-0.028,0.022,-1.002,-36.300000000000004,8.68,-114.9,0.0165,0.0146,0.10360000000000001,0.0,-0.0004,0.0,0.9943000000000001,-0.298,-0.324,-2.072
2025-10-27 11:13:01.467,116.76,-0.002,-0.001,0.0,-0.027,0.023,-1.0010000000000001,-36.300000000000004,8.68,-114.9,0.0165,0.0146,0.10360000000000001,-0.0002,-0.0001,0.0,0.9943000000000001,-0.298,-0.324,-2.072
2025-10-27 11:13:01.468,116.7625,0.0,0.0,0.0,-0.026000000000000002,0.024,-1.002,-36.300000000000004,8.68,-114.9,0.0165,0.0145,0.10360000000000001,0.0,0.0,0.0,0.9943000000000001,-0.299,-0.324,-2.072
2025-10-27 11:13:01.469,116.765,-0.004,-0.004,0.0,-0.027,0.024,-1.0010000000000001,-36.39,8.38,-114.76,0.0165,0.0145,0.10360000000000001,-0.0004,-0.0004,0.0,0.9943000000000001,-0.299,-0.323,-2.072
2025-10-27 11:13:01.470,116.8775,-0.002,0.0,0.0,-0.027,0.021,-1.002,-35.19,7.36,-115.31,0.016300000000000002,0.014400000000000001,0.10360000000000001,-0.0002,0.0,0.0,0.9943000000000001,-0.295,-0.322,-2.072
2025-10-27 11:13:01.471,116.88,-0.001,0.0,0.001,-0.027,0.025,-1.0030000000000001,-35.19,7.36,-115.31,0.016300000000000002,0.014400000000000001,0.10360000000000001,-0.0001,0.0,0.0001,0.9943000000000001,-0.296,-0.322,-2.072
2025-10-27 11:13:01.472,116.8825,0.0,-0.001,0.0,-0.026000000000000002,0.023,-1.0030000000000001,-35.19,7.36,-115.31,0.016300000000000002,0.014400000000000001,0.10360000000000001,0.0,-0.0001,0.0,0.9943000000000001,-0.296,-0.321,-2.072
2025-10-27 11:13:01.475,116.885,0.002,0.0,0.0,-0.027,0.021,-1.0030000000000001,-36.5,7.95,-116.13,0.016300000000000002,0.014400000000000001,0.10360000000000001,0.0002,0.0,0.0,0.9943000000000001,-0.295,-0.321,-2.072
2025-10-27 11:13:01.477,116.8875,-0.001,-0.002,0.0,-0.027,0.023,-1.0,-36.5,7.95,-116.13,0.016300000000000002,0.014400000000000001,0.10360000000000001,-0.0001,-0.0002,0.0,0.9943000000000001,-0.295,-0.321,-2.072
2025-10-27 11:13:01.491,116.89,0.002,0.002,0.0,-0.028,0.023,-1.0030000000000001,-36.5,7.95,-116.13,0.016300000000000002,0.014400000000000001,0.10360000000000001,0.0002,0.0002,0.0,0.9943000000000001,-0.296,-0.322,-2.072
2025-10-27 11:13:01.492,116.8925,0.003,-0.001,0.0,-0.027,0.023,-1.002,-36.5,7.95,-116.13,0.016300000000000002,0.014400000000000001,0.10360000000000001,0.00030000000000000003,-0.0001,0.0,0.9943000000000001,-0.296,-0.322,-2.072
2025-10-27 11:13:01.506,116.895,0.002,0.0,-0.001,-0.028,0.022,-1.0030000000000001,-36.5,7.95,-116.13,0.016300000000000002,0.0145,0.10360000000000001,0.0002,0.0,-0.0001,0.9943000000000001,-0.295,-0.322,-2.072
2025-10-27 11:13:01.521,116.8975,0.002,0.002,0.0,-0.028,0.023,-1.002,-36.33,8.21,-115.25,0.016300000000000002,0.0145,0.10360000000000001,0.0002,0.0002,0.0,0.9943000000000001,-0.296,-0.322,-2.072
2025-10-27 11:13:01.523,116.9,0.0,0.0,0.001,-0.027,0.024,-1.0030000000000001,-36.33,8.21,-115.25,0.0164,0.0145,0.10360000000000001,0.0,0.0,0.0001,0.9943000000000001,-0.296,-0.322,-2.072
2025-10-27 11:13:01.536,116.9025,-0.001,0.0,0.0,-0.028,0.023,-1.002,-36.33,8.21,-115.25,0.0164,0.0145,0.10360000000000001,-0.0001,0.0,0.0,0.9943000000000001,-0.296,-0.322,-2.072
2025-10-27 11:13:01.538,116.905,0.0,-0.001,0.0,-0.027,0.022,-1.0030000000000001,-36.33,8.21,-115.25,0.0164,0.0145,0.10360000000000001,0.0,-0.0001,0.0,0.9943000000000001,-0.296,-0.322,-2.072
2025-10-27 11:13:01.551,116.9075,0.0,0.0,0.0,-0.026000000000000002,0.023,-1.002,-36.33,8.21,-115.25,0.0164,0.014400000000000001,0.10360000000000001,0.0,0.0,0.0,0.9943000000000001,-0.296,-0.322,-2.072
2025-10-27 11:13:01.553,116.91,0.0,0.0,-0.001,-0.028,0.025,-1.0010000000000001,-36.45,7.7700000000000005,-114.99000000000001,0.0164,0.0145,0.10360000000000001,0.0,0.0,-0.0001,0.9943000000000001,-0.297,-0.322,-2.072
2025-10-27 11:13:01.567,116.9125,0.0,-0.004,0.0,-0.028,0.023,-1.0010000000000001,-36.45,7.7700000000000005,-114.99000000000001,0.0164,0.0145,0.10360000000000001,0.0,-0.0004,0.0,0.9943000000000001,-0.298,-0.323,-2.072
2025-10-27 11:13:01.569,116.915,0.0,-0.002,0.0,-0.028,0.023,-1.0,-36.45,7.7700000000000005,-114.99000000000001,0.0165,0.0145,0.10360000000000001,0.0,-0.0002,0.0,0.9943000000000001,-0.298,-0.323,-2.072
2025-10-27 11:13:01.582,116.9175,0.003,0.002,0.0,-0.027,0.023,-1.002,-36.45,7.7700000000000005,-114.99000000000001,0.0165,0.0145,0.10360000000000001,0.00030000000000000003,0.0002,0.0,0.9943000000000001,-0.298,-0.323,-2.072
2025-10-27 11:13:01.584,117.025,-0.001,0.0,0.0,-0.028,0.021,-1.0010000000000001,-36.45,8.0,-115.58,0.0164,0.0145,0.10360000000000001,-0.0001,0.0,0.0,0.9943000000000001,-0.297,-0.322,-2.072
2025-10-27 11:13:01.596,117.0275,0.002,-0.001,0.001,-0.027,0.023,-1.0010000000000001,-36.45,8.0,-115.58,0.0164,0.0145,0.10360000000000001,0.0002,-0.0001,0.0001,0.9943000000000001,-0.298,-0.322,-2.072
2025-10-27 11:13:01.599,117.03,0.0,0.0,0.001,-0.027,0.024,-1.0050000000000001,-36.45,8.0,-115.58,0.0165,0.0145,0.10360000000000001,0.0,0.0,0.0001,0.9943000000000001,-0.298,-0.322,-2.072
2025-10-27 11:13:01.601,117.0325,-0.001,0.0,-0.001,-0.027,0.023,-1.002,-36.45,7.890000000000001,-114.58,0.0165,0.0145,0.10360000000000001,-0.0001,0.0,-0.0001,0.9943000000000001,-0.298,-0.322,-2.072
2025-10-27 11:13:01.611,117.035,-0.002,0.002,0.0,-0.026000000000000002,0.023,-1.002,-36.45,7.890000000000001,-114.58,0.0165,0.014400000000000001,0.10360000000000001,-0.0002,0.0002,0.0,0.9943000000000001,-0.298,-0.322,-2.072
2025-10-27 11:13:01.613,117.0375,0.0,0.0,0.0,-0.027,0.022,-1.0010000000000001,-36.45,7.890000000000001,-114.58,0.0164,0.014400000000000001,0.10360000000000001,0.0,0.0,0.0,0.9943000000000001,-0.298,-0.322,-2.072
2025-10-27 11:13:01.616,117.04,0.0,-0.001,0.0,-0.027,0.022,-1.0010000000000001,-36.45,7.890000000000001,-114.58,0.0164,0.014400000000000001,0.10360000000000001,0.0,-0.0001,0.0,0.9943000000000001,-0.297,-0.322,-2.072
2025-10-27 11:13:01.626,117.0425,0.003,0.0,0.0,-0.026000000000000002,0.023,-1.0,-36.45,7.890000000000001,-114.58,0.0164,0.014400000000000001,0.10360000000000001,0.00030000000000000003,0.0,0.0,0.9943000000000001,-0.297,-0.321,-2.072
2025-10-27 11:13:01.629,117.045,0.0,0.0,0.0,-0.025,0.024,-1.002,-36.62,7.7700000000000005,-115.25,0.0164,0.014400000000000001,0.10360000000000001,0.0,0.0,0.0,0.9943000000000001,-0.298,-0.32,-2.072
2025-10-27 11:13:01.631,117.0475,-0.001,0.0,0.0,-0.026000000000000002,0.023,-1.0030000000000001,-36.62,7.7700000000000005,-115.25,0.0164,0.0143,0.10360000000000001,-0.0001,0.0,0.0,0.9943000000000001,-0.298,-0.32,-2.072
2025-10-27 11:13:01.642,117.05,0.002,0.0,0.001,-0.027,0.023,-1.004,-36.62,7.7700000000000005,-115.25,0.0164,0.0143,0.10360000000000001,0.0002,0.0,0.0001,0.9943000000000001,-0.298,-0.32,-2.072
2025-10-27 11:13:01.644,117.0525,0.0,-0.001,0.0,-0.028,0.023,-1.0030000000000001,-36.62,7.7700000000000005,-115.25,0.0164,0.014400000000000001,0.10360000000000001,0.0,-0.0001,0.0,0.9943000000000001,-0.298,-0.32,-2.072
2025-10-27 11:13:01.645,117.055,0.0,-0.002,0.0,-0.027,0.023,-1.002,-35.83,5.08,-115.17,0.0164,0.014400000000000001,0.10360000000000001,0.0,-0.0002,0.0,0.9943000000000001,-0.298,-0.32,-2.072
2025-10-27 11:13:01.657,117.0575,-0.001,-0.001,0.0,-0.027,0.022,-1.002,-35.83,5.08,-115.17,0.0164,0.014400000000000001,0.10360000000000001,-0.0001,-0.0001,0.0,0.9943000000000001,-0.297,-0.321,-2.072
2025-10-27 11:13:01.659,117.06,-0.002,0.0,0.0,-0.027,0.022,-1.004,-35.83,5.08,-115.17,0.0164,0.014400000000000001,0.10360000000000001,-0.0002,0.0,0.0,0.9943000000000001,-0.297,-0.32,-2.072
2025-10-27 11:13:01.661,117.0625,0.003,0.0,0.001,-0.027,0.022,-1.0030000000000001,-35.83,5.08,-115.17,0.0164,0.014400000000000001,0.10360000000000001,0.00030000000000000003,0.0,0.0001,0.9943000000000001,-0.297,-0.32,-2.072
2025-10-27 11:13:01.672,117.065,0.0,0.0,0.0,-0.027,0.023,-1.0,-35.83,5.08,-115.17,0.0164,0.014400000000000001,0.10360000000000001,0.0,0.0,0.0,0.9943000000000001,-0.297,-0.32,-2.072
2025-10-27 11:13:01.674,117.105,0.002,0.0,0.0,-0.027,0.023,-1.0030000000000001,-36.83,7.95,-114.41,0.0164,0.0145,0.10360000000000001,0.0002,0.0,0.0,0.9943000000000001,-0.297,-0.322,-2.072
2025-10-27 11:13:01.676,117.1075,0.003,0.0,0.0,-0.028,0.023,-1.002,-36.83,7.95,-114.41,0.0164,0.0145,0.10360000000000001,0.00030000000000000003,0.0,0.0,0.9943000000000001,-0.297,-0.323,-2.072
2025-10-27 11:13:01.686,117.11,0.003,0.0,0.0,-0.027,0.023,-1.0030000000000001,-36.83,7.95,-114.41,0.0164,0.0145,0.10360000000000001,0.00030000000000000003,0.0,0.0,0.9943000000000001,-0.297,-0.323,-2.072
2025-10-27 11:13:01.688,117.1125,0.003,0.003,0.0,-0.026000000000000002,0.024,-1.002,-36.83,7.95,-114.41,0.0164,0.014400000000000001,0.10360000000000001,0.00030000000000000003,0.00030000000000000003,0.0,0.9943000000000001,-0.297,-0.322,-2.072
2025-10-27 11:13:01.690,117.115,0.0,0.0,0.0,-0.026000000000000002,0.022,-1.004,-36.83,7.95,-114.41,0.0164,0.014400000000000001,0.10360000000000001,0.0,0.0,0.0,0.9943000000000001,-0.297,-0.321,-2.072
2025-10-27 11:13:01.701,117.1175,0.0,0.0,0.001,-0.029,0.025,-1.0030000000000001,-36.83,4.73,-114.84,0.0164,0.0145,0.10360000000000001,0.0,0.0,0.0001,0.9943000000000001,-0.298,-0.322,-2.072
2025-10-27 11:13:01.703,117.12,0.0,0.002,0.0,-0.027,0.022,-1.002,-36.83,4.73,-114.84,0.0164,0.0145,0.10360000000000001,0.0,0.0002,0.0,0.9943000000000001,-0.298,-0.322,-2.072
2025-10-27 11:13:01.716,117.1225,0.0,0.0,0.0,-0.027,0.023,-1.002,-36.83,4.73,-114.84,0.0164,0.014400000000000001,0.10360000000000001,0.0,0.0,0.0,0.9943000000000001,-0.298,-0.322,-2.072
2025-10-27 11:13:01.718,117.125,0.003,0.0,0.0,-0.027,0.023,-1.0010000000000001,-36.83,4.73,-114.84,0.0165,0.014400000000000001,0.10360000000000001,0.00030000000000000003,0.0,0.0,0.9943000000000001,-0.298,-0.322,-2.072
2025-10-27 11:13:01.719,117.1275,0.0,0.0,0.0,-0.03,0.023,-1.0030000000000001,-36.83,4.73,-114.84,0.0165,0.0145,0.10360000000000001,0.0,0.0,0.0,0.9943000000000001,-0.298,-0.323,-2.072
2025-10-27 11:13:01.730,117.13,0.0,-0.002,0.0,-0.028,0.025,-1.0010000000000001,-35.22,5.26,-115.05,0.0165,0.0145,0.10360000000000001,0.0,-0.0002,0.0,0.9943000000000001,-0.299,-0.323,-2.072
2025-10-27 11:13:01.732,117.1325,0.0,-0.001,0.0,-0.027,0.024,-1.0030000000000001,-35.22,5.26,-115.05,0.0165,0.0145,0.10360000000000001,0.0,-0.0001,0.0,0.9943000000000001,-0.3,-0.323,-2.072
2025-10-27 11:13:01.734,117.135,0.002,-0.001,0.0,-0.027,0.023,-1.0030000000000001,-35.22,5.26,-115.05,0.0165,0.0145,0.10360000000000001,0.0002,-0.0001,0.0,0.9943000000000001,-0.299,-0.323,-2.072
2025-10-27 11:13:01.760,117.1375,0.0,0.0,0.001,-0.028,0.024,-1.0030000000000001,-35.22,5.26,-115.05,0.0166,0.0145,0.10360000000000001,0.0,0.0,0.0001,0.9943000000000001,-0.3,-0.323,-2.072
2025-10-27 11:13:01.761,117.14,0.0,0.0,0.0,-0.029,0.023,-1.002,-35.22,5.26,-115.05,0.0166,0.0145,0.10360000000000001,0.0,0.0,0.0,0.9943000000000001,-0.3,-0.324,-2.072
2025-10-27 11:13:01.764,117.1425,0.0,0.0,-0.001,-0.028,0.022,-1.0,-36.300000000000004,7.8,-115.43,0.0166,0.0145,0.10360000000000001,0.0,0.0,-0.0001,0.9943000000000001,-0.3,-0.324,-2.072
2025-10-27 11:13:01.775,117.145,0.0,0.0,0.0,-0.029,0.023,-1.0030000000000001,-36.300000000000004,7.8,-115.43,0.0166,0.0146,0.10360000000000001,0.0,0.0,0.0,0.9943000000000001,-0.3,-0.325,-2.072
2025-10-27 11:13:01.777,117.2525,-0.004,0.002,-0.001,-0.027,0.024,-1.002,-35.1,5.7,-114.96000000000001,0.0164,0.014400000000000001,0.10360000000000001,-0.0004,0.0002,-0.0001,0.9943000000000001,-0.298,-0.321,-2.072
2025-10-27 11:13:01.779,117.255,-0.002,0.0,0.0,-0.028,0.025,-1.002,-35.1,5.7,-114.96000000000001,0.0165,0.014400000000000001,0.10360000000000001,-0.0002,0.0,0.0,0.9943000000000001,-0.299,-0.321,-2.073
2025-10-27 11:13:01.790,117.2575,0.0,0.0,0.0,-0.028,0.022,-1.002,-35.1,5.7,-114.96000000000001,0.0165,0.014400000000000001,0.10360000000000001,0.0,0.0,0.0,0.9943000000000001,-0.299,-0.321,-2.073
2025-10-27 11:13:01.792,117.26,0.003,-0.002,0.0,-0.027,0.022,-1.0030000000000001,-35.1,5.7,-114.96000000000001,0.0165,0.014400000000000001,0.10360000000000001,0.00030000000000000003,-0.0002,0.0,0.9943000000000001,-0.298,-0.321,-2.073
2025-10-27 11:13:01.794,117.2625,0.0,0.0,0.001,-0.028,0.023,-1.0030000000000001,-35.13,7.62,-115.60000000000001,0.0165,0.014400000000000001,0.10360000000000001,0.0,0.0,0.0001,0.9943000000000001,-0.298,-0.322,-2.072
2025-10-27 11:13:01.805,117.265,-0.001,0.0,0.0,-0.027,0.022,-1.0030000000000001,-35.13,7.62,-115.60000000000001,0.0164,0.014400000000000001,0.10360000000000001,-0.0001,0.0,0.0,0.9943000000000001,-0.298,-0.322,-2.072
2025-10-27 11:13:01.807,117.2675,-0.002,0.0,0.001,-0.027,0.022,-1.004,-35.13,7.62,-115.60000000000001,0.0164,0.014400000000000001,0.10360000000000001,-0.0002,0.0,0.0001,0.9943000000000001,-0.298,-0.322,-2.072
2025-10-27 11:13:01.809,117.27,-0.001,-0.001,0.0,-0.027,0.024,-1.004,-35.13,7.62,-115.60000000000001,0.0165,0.014400000000000001,0.10360000000000001,-0.0001,-0.0001,0.0,0.9943000000000001,-0.298,-0.322,-2.072
2025-10-27 11:13:01.821,117.2725,0.0,-0.001,0.001,-0.026000000000000002,0.025,-1.0030000000000001,-35.13,7.62,-115.60000000000001,0.0165,0.014400000000000001,0.10360000000000001,0.0,-0.0001,0.0001,0.9943000000000001,-0.299,-0.321,-2.072
2025-10-27 11:13:01.823,117.275,0.003,0.0,0.001,-0.027,0.023,-1.0030000000000001,-36.15,8.120000000000001,-114.9,0.0165,0.014400000000000001,0.10360000000000001,0.00030000000000000003,0.0,0.0001,0.9943000000000001,-0.299,-0.321,-2.072
2025-10-27 11:13:01.825,117.2775,0.0,0.0,0.001,-0.027,0.022,-1.0030000000000001,-36.15,8.120000000000001,-114.9,0.0165,0.014400000000000001,0.10360000000000001,0.0,0.0,0.0001,0.9943000000000001,-0.299,-0.321,-2.072
2025-10-27 11:13:01.866,117.28,0.0,0.0,0.001,-0.026000000000000002,0.022,-1.0030000000000001,-36.15,8.120000000000001,-114.9,0.0165,0.014400000000000001,0.10360000000000001,0.0,0.0,0.0001,0.9943000000000001,-0.298,-0.321,-2.072
2025-10-27 11:13:01.868,117.2825,0.0,0.0,0.0,-0.027,0.022,-1.0030000000000001,-36.15,8.120000000000001,-114.9,0.0165,0.014400000000000001,0.10360000000000001,0.0,0.0,0.0,0.9943000000000001,-0.298,-0.321,-2.072
2025-10-27 11:13:01.869,117.285,-0.001,0.0,0.0,-0.027,0.021,-1.004,-36.15,8.120000000000001,-114.9,0.0164,0.014400000000000001,0.10360000000000001,-0.0001,0.0,0.0,0.9943000000000001,-0.297,-0.321,-2.072
2025-10-27 11:13:01.881,117.2875,0.002,0.003,0.0,-0.026000000000000002,0.023,-1.0030000000000001,-36.1,8.53,-114.99000000000001,0.0164,0.014400000000000001,0.10360000000000001,0.0002,0.00030000000000000003,0.0,0.9943000000000001,-0.297,-0.321,-2.072
2025-10-27 11:13:01.883,117.29,0.002,0.0,0.0,-0.027,0.022,-1.004,-36.1,8.53,-114.99000000000001,0.0164,0.014400000000000001,0.10360000000000001,0.0002,0.0,0.0,0.9943000000000001,-0.297,-0.321,-2.072
2025-10-27 11:13:01.885,117.2925,-0.001,0.002,0.0,-0.027,0.023,-1.002,-36.1,8.53,-114.99000000000001,0.0164,0.014400000000000001,0.10360000000000001,-0.0001,0.0002,0.0,0.9943000000000001,-0.297,-0.32,-2.072
2025-10-27 11:13:01.896,117.3425,0.002,-0.001,0.001,-0.026000000000000002,0.022,-1.002,-36.15,8.120000000000001,-115.08,0.0164,0.0145,0.10360000000000001,0.0002,-0.0001,0.0001,0.9943000000000001,-0.297,-0.323,-2.072
2025-10-27 11:13:01.898,117.345,0.0,0.0,0.0,-0.026000000000000002,0.022,-1.002,-36.15,8.120000000000001,-115.08,0.0164,0.0145,0.10360000000000001,0.0,0.0,0.0,0.9943000000000001,-0.296,-0.323,-2.072
2025-10-27 11:13:01.900,117.3475,-0.001,0.004,0.0,-0.027,0.022,-1.004,-36.18,8.09,-114.58,0.0164,0.0145,0.10360000000000001,-0.0001,0.0004,0.0,0.9943000000000001,-0.296,-0.322,-2.072
2025-10-27 11:13:01.910,117.35,-0.001,0.0,0.0,-0.026000000000000002,0.022,-1.0010000000000001,-36.18,8.09,-114.58,0.0164,0.014400000000000001,0.10360000000000001,-0.0001,0.0,0.0,0.9943000000000001,-0.296,-0.322,-2.072
2025-10-27 11:13:01.912,117.3525,0.0,0.002,0.0,-0.028,0.023,-1.0030000000000001,-36.18,8.09,-114.58,0.0164,0.014400000000000001,0.10360000000000001,0.0,0.0002,0.0,0.9943000000000001,-0.296,-0.322,-2.072
2025-10-27 11:13:01.914,117.355,0.0,-0.001,0.0,-0.026000000000000002,0.022,-1.002,-36.18,8.09,-114.58,0.0164,0.014400000000000001,0.10360000000000001,0.0,-0.0001,0.0,0.9943000000000001,-0.296,-0.321,-2.072
2025-10-27 11:13:01.925,117.3575,0.0,-0.001,0.0,-0.027,0.022,-1.0010000000000001,-36.18,8.09,-114.58,0.016300000000000002,0.014400000000000001,0.10360000000000001,0.0,-0.0001,0.0,0.9943000000000001,-0.296,-0.321,-2.072
2025-10-27 11:13:01.927,117.36,-0.001,0.0,0.0,-0.027,0.023,-1.0010000000000001,-36.18,8.120000000000001,-114.41,0.016300000000000002,0.014400000000000001,0.10360000000000001,-0.0001,0.0,0.0,0.9943000000000001,-0.296,-0.321,-2.072
2025-10-27 11:13:01.929,117.3625,-0.002,-0.002,-0.003,-0.027,0.025,-1.0030000000000001,-36.18,8.120000000000001,-114.41,0.0164,0.014400000000000001,0.10360000000000001,-0.0002,-0.0002,-0.00030000000000000003,0.9943000000000001,-0.297,-0.321,-2.072
2025-10-27 11:13:01.941,117.365,0.0,-0.001,-0.001,-0.028,0.023,-1.0030000000000001,-36.18,8.120000000000001,-114.41,0.0164,0.014400000000000001,0.10360000000000001,0.0,-0.0001,-0.0001,0.9943000000000001,-0.297,-0.322,-2.073
2025-10-27 11:13:01.942,117.3675,0.0,-0.001,0.0,-0.027,0.021,-1.002,-36.18,8.120000000000001,-114.41,0.0164,0.0145,0.10360000000000001,0.0,-0.0001,0.0,0.9943000000000001,-0.297,-0.322,-2.073
2025-10-27 11:13:01.944,117.37,-0.001,0.0,0.0,-0.029,0.024,-1.004,-36.18,8.120000000000001,-114.41,0.0164,0.0145,0.10360000000000001,-0.0001,0.0,0.0,0.9943000000000001,-0.297,-0.323,-2.073
2025-10-27 11:13:01.956,117.3725,0.0,0.0,0.0,-0.029,0.022,-1.0050000000000001,-35.28,4.76,-115.05,0.0164,0.0145,0.10360000000000001,0.0,0.0,0.0,0.9943000000000001,-0.297,-0.323,-2.073
2025-10-27 11:13:01.970,117.375,0.002,0.0,0.0,-0.026000000000000002,0.021,-1.002,-35.28,4.76,-115.05,0.0164,0.0145,0.10360000000000001,0.0002,0.0,0.0,0.9943000000000001,-0.296,-0.322,-2.073
2025-10-27 11:13:01.971,117.3775,0.0,-0.001,0.0,-0.027,0.022,-1.0030000000000001,-35.28,4.76,-115.05,0.0164,0.0145,0.10360000000000001,0.0,-0.0001,0.0,0.9943000000000001,-0.296,-0.323,-2.073
2025-10-27 11:13:01.974,117.38,0.0,0.0,0.0,-0.027,0.021,-1.0030000000000001,-35.28,4.76,-115.05,0.016300000000000002,0.0145,0.10360000000000001,0.0,0.0,0.0,0.9943000000000001,-0.295,-0.322,-2.073
2025-10-27 11:13:01.985,117.3825,-0.002,-0.001,0.0,-0.027,0.022,-1.0010000000000001,-35.28,4.76,-115.05,0.016300000000000002,0.0145,0.10360000000000001,-0.0002,-0.0001,0.0,0.9943000000000001,-0.295,-0.322,-2.073
2025-10-27 11:13:01.987,117.4575,0.002,0.0,0.0,-0.027,0.024,-1.0030000000000001,-35.51,8.06,-116.04,0.0165,0.014400000000000001,0.10360000000000001,0.0002,0.0,0.0,0.9943000000000001,-0.298,-0.322,-2.072
2025-10-27 11:13:02.000,117.46,0.0,-0.001,0.0,-0.027,0.022,-1.0030000000000001,-35.51,8.06,-116.04,0.0164,0.014400000000000001,0.10360000000000001,0.0,-0.0001,0.0,0.9943000000000001,-0.298,-0.322,-2.072
2025-10-27 11:13:02.002,117.4625,0.0,0.0,0.0,-0.03,0.023,-1.004,-35.51,8.06,-116.04,0.0165,0.0145,0.10360000000000001,0.0,0.0,0.0,0.9943000000000001,-0.298,-0.323,-2.072
2025-10-27 11:13:02.004,117.465,0.0,-0.001,-0.001,-0.028,0.023,-1.0010000000000001,-35.51,8.06,-116.04,0.0165,0.0145,0.10360000000000001,0.0,-0.0001,-0.0001,0.9943000000000001,-0.298,-0.324,-2.073
2025-10-27 11:13:02.015,117.4675,0.0,0.0,0.0,-0.027,0.023,-1.0010000000000001,-35.51,8.06,-116.04,0.0165,0.0145,0.10360000000000001,0.0,0.0,0.0,0.9943000000000001,-0.298,-0.324,-2.072
2025-10-27 11:13:02.018,117.47,0.002,-0.001,0.0,-0.027,0.024,-1.0010000000000001,-36.65,7.92,-115.14,0.0165,0.0145,0.10360000000000001,0.0002,-0.0001,0.0,0.9943000000000001,-0.298,-0.324,-2.072
2025-10-27 11:13:02.020,117.4725,-0.004,0.0,0.0,-0.027,0.022,-1.0030000000000001,-36.65,7.92,-115.14,0.0165,0.0145,0.10360000000000001,-0.0004,0.0,0.0,0.9943000000000001,-0.298,-0.323,-2.072
2025-10-27 11:13:02.030,117.475,0.0,0.0,0.0,-0.027,0.023,-1.0010000000000001,-36.65,7.92,-115.14,0.0165,0.0145,0.10360000000000001,0.0,0.0,0.0,0.9943000000000001,-0.298,-0.323,-2.072
2025-10-27 11:13:02.033,117.4775,-0.001,0.0,0.0,-0.027,0.022,-1.0030000000000001,-36.65,7.92,-115.14,0.0164,0.0145,0.10360000000000001,-0.0001,0.0,0.0,0.9943000000000001,-0.297,-0.323,-2.072
2025-10-27 11:13:02.035,117.48,-0.001,0.002,0.0,-0.026000000000000002,0.023,-1.002,-36.65,7.92,-115.14,0.0164,0.0145,0.10360000000000001,-0.0001,0.0002,0.0,0.9943000000000001,-0.298,-0.322,-2.072
2025-10-27 11:13:02.045,117.4825,-0.002,0.0,0.0,-0.028,0.021,-1.0030000000000001,-35.800000000000004,6.46,-115.22,0.0164,0.0145,0.10360000000000001,-0.0002,0.0,0.0,0.9943000000000001,-0.297,-0.322,-2.073
2025-10-27 11:13:02.060,117.485,0.0,0.002,0.0,-0.028,0.023,-1.002,-35.800000000000004,6.46,-115.22,0.0164,0.0145,0.10360000000000001,0.0,0.0002,0.0,0.9943000000000001,-0.297,-0.323,-2.072
2025-10-27 11:13:02.062,117.4875,0.0,0.0,0.0,-0.028,0.022,-1.0030000000000001,-35.800000000000004,6.46,-115.22,0.0164,0.0145,0.10360000000000001,0.0,0.0,0.0,0.9943000000000001,-0.297,-0.323,-2.072
2025-10-27 11:13:02.064,117.49,0.002,0.0,0.001,-0.028,0.023,-1.0010000000000001,-35.800000000000004,6.46,-115.22,0.0164,0.0145,0.10360000000000001,0.0002,0.0,0.0001,0.9943000000000001,-0.297,-0.323,-2.072
2025-10-27 11:13:02.075,117.4925,-0.001,0.0,-0.001,-0.028,0.023,-1.0010000000000001,-35.800000000000004,6.46,-115.22,0.0164,0.0145,0.10360000000000001,-0.0001,0.0,-0.0001,0.9943000000000001,-0.297,-0.323,-2.072
2025-10-27 11:13:02.077,117.495,-0.001,-0.002,-0.001,-0.027,0.022,-1.002,-35.1,6.37,-116.22,0.0164,0.0145,0.10360000000000001,-0.0001,-0.0002,-0.0001,0.9943000000000001,-0.297,-0.323,-2.073
2025-10-27 11:13:02.079,117.4975,0.0,-0.005,0.0,-0.027,0.023,-1.002,-35.1,6.37,-116.22,0.0164,0.0145,0.10360000000000001,0.0,-0.0005,0.0,0.9943000000000001,-0.297,-0.323,-2.073
2025-10-27 11:13:02.090,117.58,0.0,0.0,0.0,-0.028,0.021,-1.0030000000000001,-35.13,4.44,-115.25,0.0164,0.0145,0.10360000000000001,0.0,0.0,0.0,0.9943000000000001,-0.298,-0.323,-2.072
2025-10-27 11:13:02.091,117.5825,-0.002,-0.001,-0.001,-0.027,0.022,-1.0030000000000001,-35.13,4.44,-115.25,0.0164,0.0145,0.10360000000000001,-0.0002,-0.0001,-0.0001,0.9943000000000001,-0.297,-0.323,-2.072
2025-10-27 11:13:02.093,117.585,0.0,-0.001,0.0,-0.027,0.023,-1.0,-35.13,4.44,-115.25,0.0164,0.0145,0.10360000000000001,0.0,-0.0001,0.0,0.9943000000000001,-0.297,-0.323,-2.072
2025-10-27 11:13:02.104,117.5875,0.002,0.0,0.0,-0.027,0.022,-1.002,-35.13,4.44,-115.25,0.0164,0.0145,0.10360000000000001,0.0002,0.0,0.0,0.9943000000000001,-0.297,-0.323,-2.072
2025-10-27 11:13:02.107,117.59,0.0,0.002,-0.003,-0.027,0.023,-1.0030000000000001,-35.13,4.44,-115.25,0.0164,0.0145,0.10360000000000001,0.0,0.0002,-0.00030000000000000003,0.9943000000000001,-0.297,-0.322,-2.072
2025-10-27 11:13:02.108,117.5925,0.0,0.002,0.0,-0.027,0.022,-1.0030000000000001,-35.800000000000004,8.09,-115.46000000000001,0.0164,0.0145,0.10360000000000001,0.0,0.0002,0.0,0.9943000000000001,-0.297,-0.322,-2.072
2025-10-27 11:13:02.120,117.595,0.002,0.0,0.001,-0.027,0.022,-1.002,-35.800000000000004,8.09,-115.46000000000001,0.0164,0.0145,0.10360000000000001,0.0002,0.0,0.0001,0.9943000000000001,-0.297,-0.322,-2.072
2025-10-27 11:13:02.121,117.5975,0.0,0.002,0.0,-0.026000000000000002,0.023,-1.0010000000000001,-35.800000000000004,8.09,-115.46000000000001,0.0164,0.014400000000000001,0.10360000000000001,0.0,0.0002,0.0,0.9943000000000001,-0.297,-0.322,-2.072
2025-10-27 11:13:02.124,117.6,-0.001,0.0,-0.001,-0.027,0.023,-1.0030000000000001,-35.800000000000004,8.09,-115.46000000000001,0.0164,0.014400000000000001,0.10360000000000001,-0.0001,0.0,-0.0001,0.9943000000000001,-0.297,-0.322,-2.072
2025-10-27 11:13:02.135,117.6025,-0.001,0.0,0.0,-0.026000000000000002,0.023,-1.0030000000000001,-35.800000000000004,8.09,-115.46000000000001,0.0164,0.014400000000000001,0.10360000000000001,-0.0001,0.0,0.0,0.9943000000000001,-0.297,-0.321,-2.072
2025-10-27 11:13:02.136,117.605,0.0,0.0,0.0,-0.026000000000000002,0.022,-1.0,-36.21,8.27,-114.46000000000001,0.0164,0.014400000000000001,0.10360000000000001,0.0,0.0,0.0,0.9943000000000001,-0.297,-0.321,-2.072
2025-10-27 11:13:02.180,117.6075,0.0,-0.001,0.002,-0.027,0.022,-1.002,-36.21,8.27,-114.46000000000001,0.0164,0.014400000000000001,0.10360000000000001,0.0,-0.0001,0.0002,0.9943000000000001,-0.296,-0.321,-2.072
2025-10-27 11:13:02.196,117.61,0.002,-0.002,0.0,-0.028,0.021,-1.002,-36.21,8.27,-114.46000000000001,0.016300000000000002,0.014400000000000001,0.10360000000000001,0.0002,-0.0002,0.0,0.9943000000000001,-0.296,-0.321,-2.072
2025-10-27 11:13:02.199,117.6125,0.002,0.0,0.0,-0.028,0.022,-1.0030000000000001,-36.21,8.27,-114.46000000000001,0.016300000000000002,0.014400000000000001,0.10360000000000001,0.0002,0.0,0.0,0.9943000000000001,-0.295,-0.321,-2.072
2025-10-27 11:13:02.201,117.615,0.0,0.002,0.0,-0.028,0.023,-1.0,-36.21,8.27,-115.2,0.016300000000000002,0.014400000000000001,0.10360000000000001,0.0,0.0002,0.0,0.9943000000000001,-0.296,-0.322,-2.072
2025-10-27 11:13:02.210,117.6175,0.0,0.0,0.0,-0.028,0.023,-1.002,-36.56,8.18,-115.2,0.0164,0.0145,0.10360000000000001,0.0,0.0,0.0,0.9943000000000001,-0.296,-0.322,-2.072
2025-10-27 11:13:02.212,117.62,0.0,0.0,0.0,-0.027,0.021,-1.0030000000000001,-36.56,8.18,-115.2,0.016300000000000002,0.0145,0.10360000000000001,0.0,0.0,0.0,0.9943000000000001,-0.295,-0.322,-2.072
2025-10-27 11:13:02.215,117.6425,-0.002,0.0,-0.001,-0.026000000000000002,0.025,-1.002,-36.1,5.0200000000000005,-114.03,0.0164,0.0143,0.10360000000000001,-0.0002,0.0,-0.0001,0.9943000000000001,-0.297,-0.32,-2.073
2025-10-27 11:13:02.225,117.645,-0.001,-0.001,-0.001,-0.027,0.023,-1.002,-36.1,5.0200000000000005,-114.03,0.0164,0.0143,0.10360000000000001,-0.0001,-0.0001,-0.0001,0.9943000000000001,-0.297,-0.32,-2.073
2025-10-27 11:13:02.227,117.6475,0.0,0.0,-0.001,-0.027,0.024,-1.0030000000000001,-36.1,5.0200000000000005,-114.03,0.0164,0.014400000000000001,0.10360000000000001,0.0,0.0,-0.0001,0.9943000000000001,-0.298,-0.32,-2.073
2025-10-27 11:13:02.240,117.65,0.0,-0.001,0.0,-0.027,0.024,-1.004,-36.1,5.0200000000000005,-114.03,0.0165,0.014400000000000001,0.10360000000000001,0.0,-0.0001,0.0,0.9943000000000001,-0.298,-0.32,-2.073
2025-10-27 11:13:02.241,117.6525,0.0,0.0,0.0,-0.026000000000000002,0.023,-1.004,-35.13,8.03,-115.22,0.0165,0.0143,0.10360000000000001,0.0,0.0,0.0,0.9943000000000001,-0.298,-0.32,-2.073
2025-10-27 11:13:02.243,117.655,-0.001,0.0,0.0,-0.028,0.023,-1.002,-35.13,8.03,-115.22,0.0165,0.014400000000000001,0.10360000000000001,-0.0001,0.0,0.0,0.9943000000000001,-0.298,-0.32,-2.073
2025-10-27 11:13:02.255,117.6575,0.0,0.0,0.0,-0.027,0.021,-1.002,-35.13,8.03,-115.22,0.0164,0.014400000000000001,0.10360000000000001,0.0,0.0,0.0,0.9943000000000001,-0.298,-0.32,-2.073
2025-10-27 11:13:02.257,117.66,0.002,-0.001,0.0,-0.026000000000000002,0.023,-1.004,-35.13,8.03,-115.22,0.0164,0.0143,0.10360000000000001,0.0002,-0.0001,0.0,0.9943000000000001,-0.297,-0.32,-2.073
2025-10-27 11:13:02.258,117.6625,0.002,0.0,0.001,-0.027,0.024,-1.0,-35.13,8.03,-115.22,0.0165,0.0143,0.10360000000000001,0.0002,0.0,0.0001,0.9943000000000001,-0.298,-0.32,-2.073
2025-10-27 11:13:02.270,117.665,0.0,-0.001,0.0,-0.025,0.023,-1.0030000000000001,-36.18,8.0,-115.05,0.0164,0.0143,0.10360000000000001,0.0,-0.0001,0.0,0.9943000000000001,-0.298,-0.319,-2.073
2025-10-27 11:13:02.272,117.6675,0.0,0.0,0.0,-0.029,0.022,-1.002,-36.18,8.0,-115.05,0.0164,0.014400000000000001,0.10360000000000001,0.0,0.0,0.0,0.9943000000000001,-0.297,-0.32,-2.073
2025-10-27 11:13:02.285,117.67,0.003,0.0,0.001,-0.027,0.023,-1.004,-36.18,8.0,-115.05,0.0164,0.014400000000000001,0.10360000000000001,0.00030000000000000003,0.0,0.0001,0.9943000000000001,-0.297,-0.32,-2.073
2025-10-27 11:13:02.287,117.6725,0.0,0.0,0.001,-0.027,0.021,-1.0050000000000001,-36.18,8.0,-115.05,0.0164,0.014400000000000001,0.10360000000000001,0.0,0.0,0.0001,0.9943000000000001,-0.297,-0.32,-2.072
2025-10-27 11:13:02.289,117.675,0.0,0.0,-0.001,-0.029,0.022,-1.0050000000000001,-36.18,8.0,-115.05,0.0164,0.014400000000000001,0.10360000000000001,0.0,0.0,-0.0001,0.9943000000000001,-0.296,-0.321,-2.072
2025-10-27 11:13:02.345,117.6775,0.0,0.0,0.0,-0.028,0.023,-1.0030000000000001,-35.72,7.86,-114.7,0.0164,0.014400000000000001,0.10360000000000001,0.0,0.0,0.0,0.9943000000000001,-0.296,-0.321,-2.072
2025-10-27 11:13:02.347,117.68,-0.001,0.0,0.0,-0.028,0.022,-1.0030000000000001,-35.72,7.86,-114.7,0.0164,0.014400000000000001,0.10360000000000001,-0.0001,0.0,0.0,0.9943000000000001,-0.296,-0.322,-2.072
2025-10-27 11:13:02.349,117.6825,-0.001,0.0,0.0,-0.026000000000000002,0.024,-1.004,-35.72,7.86,-114.7,0.0164,0.014400000000000001,0.10360000000000001,-0.0001,0.0,0.0,0.9943000000000001,-0.296,-0.321,-2.072
2025-10-27 11:13:02.405,117.75,-0.001,0.0,0.0,-0.027,0.024,-1.0010000000000001,-36.5,6.98,-115.31,0.016300000000000002,0.014400000000000001,0.10360000000000001,-0.0001,0.0,0.0,0.9943000000000001,-0.296,-0.322,-2.073
2025-10-27 11:13:02.407,117.7525,0.0,-0.001,0.0,-0.027,0.023,-1.0030000000000001,-36.5,6.98,-115.31,0.016300000000000002,0.014400000000000001,0.10360000000000001,0.0,-0.0001,0.0,0.9943000000000001,-0.296,-0.322,-2.073
2025-10-27 11:13:02.409,117.755,0.0,0.0,0.0,-0.027,0.023,-1.002,-36.5,6.98,-115.31,0.0164,0.014400000000000001,0.10360000000000001,0.0,0.0,0.0,0.9943000000000001,-0.296,-0.322,-2.073
2025-10-27 11:13:02.465,117.7575,0.0,0.0,0.0,-0.028,0.023,-1.0030000000000001,-36.5,6.98,-115.31,0.0164,0.014400000000000001,0.10360000000000001,0.0,0.0,0.0,0.9943000000000001,-0.296,-0.322,-2.073
2025-10-27 11:13:02.468,117.76,0.002,0.0,0.0,-0.028,0.024,-1.004,-36.5,6.98,-115.31,0.0164,0.014400000000000001,0.10360000000000001,0.0002,0.0,0.0,0.9943000000000001,-0.297,-0.322,-2.073
2025-10-27 11:13:02.469,117.7625,0.0,0.002,-0.001,-0.027,0.024,-1.0050000000000001,-35.07,4.96,-115.22,0.0164,0.014400000000000001,0.10360000000000001,0.0,0.0002,-0.0001,0.9943000000000001,-0.297,-0.322,-2.073
2025-10-27 11:13:02.526,117.765,-0.003,0.0,0.0,-0.028,0.024,-1.004,-35.07,4.96,-115.22,0.0164,0.014400000000000001,0.10360000000000001,-0.00030000000000000003,0.0,0.0,0.9943000000000001,-0.298,-0.322,-2.073
2025-10-27 11:13:02.527,117.7675,0.0,0.0,-0.001,-0.027,0.024,-1.002,-35.07,4.96,-115.22,0.0165,0.014400000000000001,0.10360000000000001,0.0,0.0,-0.0001,0.9943000000000001,-0.298,-0.321,-2.073
2025-10-27 11:13:02.529,117.77,-0.001,-0.001,0.0,-0.029,0.023,-1.0030000000000001,-35.07,4.96,-115.22,0.0165,0.0145,0.1037,-0.0001,-0.0001,0.0,0.9943000000000001,-0.298,-0.322,-2.073
2025-10-27 11:13:02.586,117.7725,-0.002,-0.001,0.0,-0.028,0.023,-1.0050000000000001,-35.07,4.96,-115.22,0.0165,0.0145,0.1037,-0.0002,-0.0001,0.0,0.9943000000000001,-0.299,-0.323,-2.073
2025-10-27 11:13:02.588,117.775,0.0,-0.001,0.0,-0.029,0.022,-1.0030000000000001,-35.07,5.14,-115.17,0.0165,0.0145,0.1037,0.0,-0.0001,0.0,0.9943000000000001,-0.298,-0.323,-2.073
2025-10-27 11:13:02.590,117.7775,0.0,-0.003,-0.001,-0.027,0.022,-1.004,-35.07,5.14,-115.17,0.0165,0.0145,0.1037,0.0,-0.00030000000000000003,-0.0001,0.9943000000000001,-0.298,-0.323,-2.073
2025-10-27 11:13:02.645,117.78,0.0,0.0,0.001,-0.026000000000000002,0.022,-1.002,-35.07,5.14,-115.17,0.0164,0.0145,0.1037,0.0,0.0,0.0001,0.9943000000000001,-0.298,-0.323,-2.073
2025-10-27 11:13:02.647,117.7825,0.003,-0.001,0.001,-0.028,0.02,-1.0030000000000001,-35.07,5.14,-115.17,0.0164,0.0145,0.1037,0.00030000000000000003,-0.0001,0.0001,0.9943000000000001,-0.296,-0.323,-2.073
2025-10-27 11:13:02.649,117.785,-0.001,-0.002,0.0,-0.028,0.02,-1.004,-35.07,5.14,-115.17,0.016300000000000002,0.0145,0.1037,-0.0001,-0.0002,0.0,0.9943000000000001,-0.295,-0.323,-2.073
2025-10-27 11:13:02.705,117.7875,-0.001,0.0,0.0,-0.026000000000000002,0.022,-1.0010000000000001,-35.89,8.3,-116.19,0.016300000000000002,0.0145,0.1037,-0.0001,0.0,0.0,0.9943000000000001,-0.295,-0.323,-2.073
2025-10-27 11:13:02.707,117.79,0.0,0.0,0.0,-0.027,0.021,-1.0030000000000001,-35.89,8.3,-116.19,0.016300000000000002,0.0145,0.1037,0.0,0.0,0.0,0.9943000000000001,-0.295,-0.323,-2.073
2025-10-27 11:13:02.709,117.895,0.0,0.0,0.001,-0.028,0.023,-1.0010000000000001,-36.62,5.34,-115.31,0.016300000000000002,0.014400000000000001,0.10360000000000001,0.0,0.0,0.0001,0.9943000000000001,-0.295,-0.322,-2.073
2025-10-27 11:13:02.765,117.8975,0.0,0.0,0.0,-0.028,0.023,-1.0010000000000001,-35.28,4.96,-115.84,0.016300000000000002,0.0145,0.10360000000000001,0.0,0.0,0.0,0.9943000000000001,-0.295,-0.322,-2.073
2025-10-27 11:13:02.767,117.9,0.0,0.002,-0.001,-0.027,0.023,-1.002,-35.28,4.96,-115.84,0.016300000000000002,0.0145,0.10360000000000001,0.0,0.0002,-0.0001,0.9943000000000001,-0.295,-0.322,-2.073
2025-10-27 11:13:02.768,117.9025,0.003,0.0,-0.001,-0.027,0.023,-1.0030000000000001,-35.28,4.96,-115.84,0.016300000000000002,0.0145,0.10360000000000001,0.00030000000000000003,0.0,-0.0001,0.9943000000000001,-0.295,-0.322,-2.073
2025-10-27 11:13:02.825,117.905,0.002,-0.001,0.0,-0.026000000000000002,0.022,-1.0030000000000001,-35.28,4.96,-115.84,0.016300000000000002,0.014400000000000001,0.10360000000000001,0.0002,-0.0001,0.0,0.9943000000000001,-0.295,-0.322,-2.073
2025-10-27 11:13:02.826,117.9075,0.0,0.0,0.0,-0.026000000000000002,0.021,-1.0030000000000001,-35.89,7.19,-116.16,0.016300000000000002,0.014400000000000001,0.10360000000000001,0.0,0.0,0.0,0.9943000000000001,-0.294,-0.321,-2.073
2025-10-27 11:13:02.828,117.91,-0.001,0.0,0.0,-0.027,0.023,-1.004,-35.89,7.19,-116.16,0.016300000000000002,0.014400000000000001,0.10360000000000001,-0.0001,0.0,0.0,0.9943000000000001,-0.295,-0.321,-2.073
2025-10-27 11:13:02.885,117.9125,0.0,0.003,-0.001,-0.028,0.024,-1.0010000000000001,-35.89,7.19,-116.16,0.016300000000000002,0.014400000000000001,0.10360000000000001,0.0,0.00030000000000000003,-0.0001,0.9943000000000001,-0.295,-0.321,-2.073
2025-10-27 11:13:02.887,117.915,0.003,-0.001,-0.001,-0.027,0.022,-1.002,-35.89,7.19,-116.16,0.016300000000000002,0.014400000000000001,0.10360000000000001,0.00030000000000000003,-0.0001,-0.0001,0.9943000000000001,-0.295,-0.321,-2.073
2025-10-27 11:13:02.889,117.9175,0.0,-0.001,-0.001,-0.027,0.022,-1.004,-35.89,7.19,-116.16,0.016300000000000002,0.014400000000000001,0.1037,0.0,-0.0001,-0.0001,0.9943000000000001,-0.295,-0.321,-2.073
2025-10-27 11:13:02.945,117.92,0.002,-0.002,0.001,-0.027,0.022,-1.004,-36.88,7.86,-115.84,0.016300000000000002,0.014400000000000001,0.1037,0.0002,-0.0002,0.0001,0.9943000000000001,-0.295,-0.321,-2.073
2025-10-27 11:13:02.947,117.9225,0.002,0.0,0.001,-0.026000000000000002,0.023,-1.0030000000000001,-36.88,7.86,-115.84,0.016300000000000002,0.014400000000000001,0.10360000000000001,0.0002,0.0,0.0001,0.9943000000000001,-0.295,-0.321,-2.073
2025-10-27 11:13:02.949,117.925,0.002,-0.002,0.0,-0.03,0.025,-1.002,-36.88,7.86,-115.84,0.0164,0.014400000000000001,0.10360000000000001,0.0002,-0.0002,0.0,0.9943000000000001,-0.296,-0.322,-2.073
2025-10-27 11:13:03.005,117.9275,0.002,0.002,0.001,-0.028,0.024,-1.0030000000000001,-36.88,7.86,-115.84,0.0164,0.0145,0.10360000000000001,0.0002,0.0002,0.0001,0.9943000000000001,-0.297,-0.322,-2.073
2025-10-27 11:13:03.006,117.93,0.002,-0.001,0.0,-0.027,0.023,-1.0030000000000001,-36.88,7.86,-115.84,0.0164,0.014400000000000001,0.10360000000000001,0.0002,-0.0001,0.0,0.9943000000000001,-0.297,-0.322,-2.073
2025-10-27 11:13:03.008,117.9325,-0.001,0.0,0.0,-0.025,0.023,-1.004,-36.5,8.41,-115.22,0.0164,0.014400000000000001,0.10360000000000001,-0.0001,0.0,0.0,0.9943000000000001,-0.297,-0.321,-2.073
2025-10-27 11:13:03.064,117.935,0.0,-0.001,0.0,-0.027,0.022,-1.0030000000000001,-36.5,8.41,-115.22,0.0164,0.014400000000000001,0.10360000000000001,0.0,-0.0001,0.0,0.9943000000000001,-0.297,-0.321,-2.073
2025-10-27 11:13:03.066,118.1225,-0.002,0.002,0.0,-0.029,0.024,-1.0050000000000001,-36.39,8.03,-115.52,0.0166,0.0143,0.10360000000000001,-0.0002,0.0002,0.0,0.9943000000000001,-0.301,-0.32,-2.073
2025-10-27 11:13:03.068,118.125,0.0,0.0,-0.001,-0.028,0.021,-1.002,-36.39,8.03,-115.52,0.0165,0.014400000000000001,0.10360000000000001,0.0,0.0,-0.0001,0.9943000000000001,-0.3,-0.321,-2.073
2025-10-27 11:13:03.070,118.1275,0.0,-0.002,-0.001,-0.028,0.022,-1.004,-36.65,8.5,-114.38,0.0165,0.014400000000000001,0.10360000000000001,0.0,-0.0002,-0.0001,0.9943000000000001,-0.299,-0.321,-2.073
2025-10-27 11:13:03.126,118.13,0.0,0.002,0.0,-0.028,0.021,-1.002,-36.65,8.5,-114.38,0.0165,0.014400000000000001,0.10360000000000001,0.0,0.0002,0.0,0.9943000000000001,-0.299,-0.321,-2.073
2025-10-27 11:13:03.128,118.1325,0.001,0.002,0.0,-0.027,0.022,-1.002,-36.65,8.5,-114.38,0.0165,0.014400000000000001,0.10360000000000001,0.0001,0.0002,0.0,0.9943000000000001,-0.298,-0.321,-2.073
2025-10-27 11:13:03.186,118.135,0.0,-0.001,0.0,-0.027,0.021,-1.002,-36.65,8.5,-114.38,0.0164,0.014400000000000001,0.10360000000000001,0.0,-0.0001,0.0,0.9943000000000001,-0.297,-0.321,-2.073
2025-10-27 11:13:03.188,118.1375,0.0,-0.001,0.001,-0.025,0.024,-1.002,-36.65,8.5,-114.38,0.0164,0.014400000000000001,0.10360000000000001,0.0,-0.0001,0.0001,0.9943000000000001,-0.298,-0.32,-2.073
2025-10-27 11:13:03.190,118.14,-0.002,0.0,0.001,-0.026000000000000002,0.022,-1.004,-36.5,8.41,-115.49000000000001,0.0164,0.0143,0.10360000000000001,-0.0002,0.0,0.0001,0.9943000000000001,-0.298,-0.32,-2.073
2025-10-27 11:13:03.246,118.1425,0.0,-0.001,0.0,-0.026000000000000002,0.025,-1.002,-36.5,8.41,-115.49000000000001,0.0165,0.0143,0.10360000000000001,0.0,-0.0001,0.0,0.9943000000000001,-0.298,-0.319,-2.073
2025-10-27 11:13:03.248,118.145,0.0,-0.001,0.0,-0.027,0.023,-1.0030000000000001,-36.5,8.41,-115.49000000000001,0.0165,0.0143,0.10360000000000001,0.0,-0.0001,0.0,0.9943000000000001,-0.298,-0.319,-2.073
2025-10-27 11:13:03.250,118.1475,0.0,-0.001,0.0,-0.028,0.022,-1.004,-36.5,8.41,-115.49000000000001,0.0165,0.0143,0.10360000000000001,0.0,-0.0001,0.0,0.9943000000000001,-0.298,-0.32,-2.073
2025-10-27 11:13:03.306,118.15,0.0,0.0,0.0,-0.027,0.022,-1.0030000000000001,-36.5,8.41,-115.49000000000001,0.0164,0.0143,0.10360000000000001,0.0,0.0,0.0,0.9943000000000001,-0.298,-0.32,-2.073
2025-10-27 11:13:03.308,118.1525,0.0,0.0,0.0,-0.027,0.023,-1.0030000000000001,-35.72,8.71,-114.99000000000001,0.0164,0.0143,0.10360000000000001,0.0,0.0,0.0,0.9943000000000001,-0.298,-0.32,-2.073
2025-10-27 11:13:03.310,118.155,0.0,0.0,0.0,-0.028,0.024,-1.002,-35.72,8.71,-114.99000000000001,0.0165,0.014400000000000001,0.10360000000000001,0.0,0.0,0.0,0.9943000000000001,-0.298,-0.32,-2.073
2025-10-27 11:13:03.366,118.1575,0.0,-0.001,0.0,-0.027,0.021,-1.0030000000000001,-35.72,8.71,-114.99000000000001,0.0164,0.014400000000000001,0.10360000000000001,0.0,-0.0001,0.0,0.9943000000000001,-0.298,-0.321,-2.073
2025-10-27 11:13:03.368,118.16,0.0,0.0,0.0,-0.026000000000000002,0.023,-1.004,-35.72,8.71,-114.99000000000001,0.0164,0.014400000000000001,0.10360000000000001,0.0,0.0,0.0,0.9943000000000001,-0.298,-0.32,-2.073
2025-10-27 11:13:03.370,118.1625,0.0,-0.001,0.0,-0.029,0.022,-1.0030000000000001,-35.72,8.71,-114.99000000000001,0.0164,0.014400000000000001,0.10360000000000001,0.0,-0.0001,0.0,0.9943000000000001,-0.297,-0.321,-2.073
2025-10-27 11:13:03.426,118.5375,0.0,0.002,0.0,-0.027,0.024,-0.999,-36.71,8.620000000000001,-115.25,0.0166,0.0145,0.1037,0.0,0.0002,0.0,0.9943000000000001,-0.3,-0.324,-2.073
2025-10-27 11:13:03.428,118.54,0.0,0.001,0.0,-0.027,0.023,-1.0030000000000001,-36.71,8.620000000000001,-115.25,0.0166,0.0145,0.1037,0.0,0.0001,0.0,0.9943000000000001,-0.3,-0.324,-2.073
2025-10-27 11:13:03.430,118.5425,0.0,-0.001,0.001,-0.028,0.022,-1.0030000000000001,-35.25,5.5200000000000005,-115.17,0.0166,0.0146,0.1037,0.0,-0.0001,0.0001,0.9943000000000001,-0.3,-0.324,-2.073
2025-10-27 11:13:03.486,118.545,0.0,0.001,0.0,-0.027,0.023,-1.0010000000000001,-35.25,5.5200000000000005,-115.17,0.0166,0.0145,0.1037,0.0,0.0001,0.0,0.9943000000000001,-0.3,-0.324,-2.073
2025-10-27 11:13:03.487,118.5475,0.0,-0.001,-0.001,-0.028,0.024,-1.002,-35.25,5.5200000000000005,-115.17,0.0166,0.0146,0.1037,0.0,-0.0001,-0.0001,0.9943000000000001,-0.3,-0.325,-2.073
2025-10-27 11:13:03.489,118.55,-0.001,0.001,0.0,-0.027,0.023,-1.0030000000000001,-35.25,5.5200000000000005,-115.17,0.0166,0.0146,0.1037,-0.0001,0.0001,0.0,0.9943000000000001,-0.3,-0.324,-2.073
2025-10-27 11:13:03.665,118.5525,0.0,0.0,0.0,-0.026000000000000002,0.025,-1.0050000000000001,-35.25,5.5200000000000005,-115.17,0.0166,0.0145,0.1037,0.0,0.0,0.0,0.9943000000000001,-0.301,-0.324,-2.073
2025-10-27 11:13:03.726,118.555,0.0,0.0,0.0,-0.028,0.023,-1.004,-36.39,8.44,-114.96000000000001,0.0166,0.0145,0.1037,0.0,0.0,0.0,0.9943000000000001,-0.301,-0.324,-2.073
2025-10-27 11:13:03.729,118.5575,0.003,-0.002,0.0,-0.028,0.023,-1.0030000000000001,-36.39,8.44,-114.96000000000001,0.0166,0.0145,0.1037,0.00030000000000000003,-0.0002,0.0,0.9943000000000001,-0.301,-0.324,-2.073
2025-10-27 11:13:03.731,118.56,0.0,0.0,0.0,-0.026000000000000002,0.022,-1.004,-36.39,8.44,-114.96000000000001,0.0166,0.0145,0.1037,0.0,0.0,0.0,0.9943000000000001,-0.3,-0.324,-2.073
2025-10-27 11:13:03.786,118.5625,0.0,0.0,0.0,-0.028,0.022,-1.002,-36.39,8.44,-114.96000000000001,0.0166,0.0145,0.1037,0.0,0.0,0.0,0.9943000000000001,-0.3,-0.324,-2.073
2025-10-27 11:13:03.789,118.565,0.001,0.002,0.0,-0.028,0.022,-1.0010000000000001,-36.07,8.38,-114.61,0.0166,0.0145,0.1037,0.0001,0.0002,0.0,0.9943000000000001,-0.3,-0.324,-2.073
2025-10-27 11:13:03.791,118.5675,-0.002,0.0,0.003,-0.027,0.022,-1.0050000000000001,-36.07,8.38,-114.61,0.0165,0.0145,0.1037,-0.0002,0.0,0.00030000000000000003,0.9943000000000001,-0.299,-0.324,-2.073
2025-10-27 11:13:03.846,118.57,-0.004,-0.001,0.001,-0.027,0.022,-1.0030000000000001,-36.07,8.38,-114.61,0.0165,0.0145,0.1037,-0.0004,-0.0001,0.0001,0.9943000000000001,-0.299,-0.324,-2.073
2025-10-27 11:13:03.848,118.5725,0.0,0.002,0.0,-0.027,0.022,-1.0030000000000001,-36.07,8.38,-114.61,0.0165,0.0145,0.1037,0.0,0.0002,0.0,0.9943000000000001,-0.298,-0.323,-2.073
2025-10-27 11:13:03.850,118.575,0.0,0.0,0.0,-0.027,0.023,-1.0030000000000001,-36.07,8.38,-114.61,0.0165,0.0145,0.1037,0.0,0.0,0.0,0.9943000000000001,-0.298,-0.323,-2.073
2025-10-27 11:13:03.906,118.5775,-0.002,0.0,0.0,-0.029,0.022,-1.0050000000000001,-36.39,7.95,-115.75,0.0165,0.0145,0.1037,-0.0002,0.0,0.0,0.9943000000000001,-0.298,-0.324,-2.073
2025-10-27 11:13:03.966,118.7225,0.002,0.002,0.0,-0.028,0.021,-1.0050000000000001,-36.97,8.06,-115.02,0.0165,0.014400000000000001,0.1037,0.0002,0.0002,0.0,0.9943000000000001,-0.298,-0.321,-2.073
2025-10-27 11:13:03.968,118.725,-0.001,0.003,0.0,-0.027,0.023,-1.004,-36.71,5.32,-114.96000000000001,0.0165,0.014400000000000001,0.1037,-0.0001,0.00030000000000000003,0.0,0.9943000000000001,-0.298,-0.321,-2.073
2025-10-27 11:13:04.026,118.7275,0.0,0.0,0.0,-0.026000000000000002,0.022,-1.004,-36.71,5.32,-114.96000000000001,0.0164,0.014400000000000001,0.1037,0.0,0.0,0.0,0.9943000000000001,-0.298,-0.32,-2.073
2025-10-27 11:13:04.028,118.73,0.0,0.001,0.0,-0.025,0.02,-1.0030000000000001,-36.71,5.32,-114.96000000000001,0.0164,0.0143,0.1037,0.0,0.0001,0.0,0.9943000000000001,-0.296,-0.32,-2.073
2025-10-27 11:13:04.030,118.7325,0.0,0.001,0.0,-0.027,0.023,-1.0030000000000001,-36.71,5.32,-114.96000000000001,0.0164,0.0143,0.1037,0.0,0.0001,0.0,0.9943000000000001,-0.297,-0.32,-2.073
2025-10-27 11:13:04.085,118.735,0.0,-0.001,-0.001,-0.028,0.023,-1.0030000000000001,-36.71,5.32,-114.96000000000001,0.0164,0.014400000000000001,0.1037,0.0,-0.0001,-0.0001,0.9943000000000001,-0.297,-0.32,-2.073
2025-10-27 11:13:04.087,118.7375,-0.001,0.0,0.0,-0.028,0.025,-1.004,-37.06,8.24,-115.11,0.0164,0.014400000000000001,0.1037,-0.0001,0.0,0.0,0.9943000000000001,-0.298,-0.321,-2.073
2025-10-27 11:13:04.089,118.74,-0.002,0.0,0.0,-0.029,0.023,-1.0030000000000001,-37.06,8.24,-115.11,0.0165,0.014400000000000001,0.1037,-0.0002,0.0,0.0,0.9943000000000001,-0.298,-0.321,-2.073
2025-10-27 11:13:04.145,118.7425,0.0,-0.001,0.0,-0.027,0.022,-1.0050000000000001,-37.06,8.24,-115.11,0.0164,0.014400000000000001,0.1037,0.0,-0.0001,0.0,0.9943000000000001,-0.298,-0.322,-2.073
2025-10-27 11:13:04.147,118.745,0.0,-0.001,0.0,-0.027,0.022,-1.002,-37.06,8.24,-115.11,0.0164,0.014400000000000001,0.1037,0.0,-0.0001,0.0,0.9943000000000001,-0.297,-0.321,-2.073
2025-10-27 11:13:04.149,118.7475,-0.001,0.001,0.0,-0.028,0.022,-1.0010000000000001,-37.06,8.24,-115.55,0.0164,0.014400000000000001,0.1037,-0.0001,0.0001,0.0,0.9943000000000001,-0.297,-0.322,-2.073
2025-10-27 11:13:04.206,118.75,0.0,-0.001,0.0,-0.027,0.023,-1.0010000000000001,-36.33,8.59,-115.55,0.0164,0.014400000000000001,0.1037,0.0,-0.0001,0.0,0.9943000000000001,-0.297,-0.322,-2.073
2025-10-27 11:13:04.208,118.7525,-0.002,0.001,0.0,-0.028,0.023,-1.004,-36.33,8.59,-115.55,0.0164,0.014400000000000001,0.1037,-0.0002,0.0001,0.0,0.9943000000000001,-0.297,-0.322,-2.073
2025-10-27 11:13:04.266,118.755,0.0,-0.001,-0.001,-0.028,0.023,-1.0030000000000001,-36.33,8.59,-115.55,0.0164,0.0145,0.1037,0.0,-0.0001,-0.0001,0.9943000000000001,-0.297,-0.322,-2.073
2025-10-27 11:13:04.268,118.7575,-0.002,0.0,-0.001,-0.028,0.022,-1.002,-36.33,8.59,-115.55,0.0164,0.0145,0.1037,-0.0002,0.0,-0.0001,0.9943000000000001,-0.297,-0.323,-2.073
2025-10-27 11:13:04.270,118.76,0.0,-0.001,-0.002,-0.027,0.021,-1.004,-36.39,6.78,-115.22,0.0164,0.0145,0.1037,0.0,-0.0001,-0.0002,0.9943000000000001,-0.296,-0.322,-2.073
2025-10-27 11:13:04.325,118.7625,0.0,-0.001,0.0,-0.028,0.023,-1.004,-36.39,6.78,-115.22,0.0164,0.0145,0.1037,0.0,-0.0001,0.0,0.9943000000000001,-0.297,-0.323,-2.073
2025-10-27 11:13:04.327,119.085,0.0,0.001,0.001,-0.027,0.022,-1.004,-35.83,8.18,-115.93,0.0164,0.0145,0.10360000000000001,0.0,0.0001,0.0001,0.9943000000000001,-0.296,-0.324,-2.072
2025-10-27 11:13:04.329,119.0875,-0.004,0.001,-0.001,-0.028,0.023,-1.004,-35.83,8.18,-115.93,0.0164,0.0145,0.10360000000000001,-0.0004,0.0001,-0.0001,0.9943000000000001,-0.296,-0.324,-2.072
2025-10-27 11:13:04.385,119.09,-0.001,-0.002,0.0,-0.028,0.023,-1.004,-36.59,8.24,-114.9,0.0164,0.0146,0.10360000000000001,-0.0001,-0.0002,0.0,0.9943000000000001,-0.296,-0.324,-2.072
2025-10-27 11:13:04.387,119.0925,0.0,0.001,-0.001,-0.028,0.024,-1.0030000000000001,-36.59,8.24,-114.9,0.0164,0.0146,0.10360000000000001,0.0,0.0001,-0.0001,0.9943000000000001,-0.297,-0.324,-2.072
2025-10-27 11:13:04.446,119.095,-0.001,0.0,0.001,-0.028,0.023,-1.0010000000000001,-36.59,8.24,-114.9,0.0164,0.0146,0.10360000000000001,-0.0001,0.0,0.0001,0.9943000000000001,-0.297,-0.325,-2.072
2025-10-27 11:13:04.448,119.0975,0.0,0.0,0.0,-0.027,0.023,-1.0,-36.59,8.24,-114.9,0.0164,0.0146,0.10360000000000001,0.0,0.0,0.0,0.9943000000000001,-0.297,-0.325,-2.072
2025-10-27 11:13:04.450,119.1,0.0,0.0,-0.001,-0.028,0.024,-1.002,-36.59,8.24,-114.9,0.0165,0.0146,0.10360000000000001,0.0,0.0,-0.0001,0.9943000000000001,-0.298,-0.325,-2.072
2025-10-27 11:13:04.506,119.1025,0.0,0.001,0.0,-0.028,0.024,-1.004,-36.300000000000004,8.24,-115.37,0.0165,0.0146,0.10360000000000001,0.0,0.0001,0.0,0.9943000000000001,-0.298,-0.325,-2.072
2025-10-27 11:13:04.507,119.105,-0.001,0.001,0.001,-0.026000000000000002,0.02,-1.002,-36.300000000000004,8.24,-115.37,0.0164,0.0145,0.10360000000000001,-0.0001,0.0001,0.0001,0.9943000000000001,-0.297,-0.324,-2.072
2025-10-27 11:13:04.510,119.1075,-0.001,0.0,0.001,-0.027,0.024,-1.002,-36.300000000000004,8.24,-115.37,0.0165,0.0145,0.10360000000000001,-0.0001,0.0,0.0001,0.9943000000000001,-0.298,-0.324,-2.072
2025-10-27 11:13:04.566,119.11,0.0,0.001,0.0,-0.027,0.024,-1.0030000000000001,-36.300000000000004,8.24,-115.37,0.0165,0.0145,0.10360000000000001,0.0,0.0001,0.0,0.9943000000000001,-0.299,-0.324,-2.072
2025-10-27 11:13:04.568,119.1125,-0.001,0.002,0.001,-0.027,0.022,-1.004,-36.300000000000004,8.24,-115.37,0.0165,0.0145,0.10360000000000001,-0.0001,0.0002,0.0001,0.9943000000000001,-0.299,-0.323,-2.072
2025-10-27 11:13:04.569,119.115,0.0,0.001,0.0,-0.027,0.022,-1.0030000000000001,-37.03,7.92,-115.02,0.0165,0.0145,0.10360000000000001,0.0,0.0001,0.0,0.9943000000000001,-0.298,-0.323,-2.072
2025-10-27 11:13:04.625,119.1175,0.002,0.001,0.0,-0.028,0.024,-1.0050000000000001,-37.03,7.92,-115.02,0.0165,0.0145,0.10360000000000001,0.0002,0.0001,0.0,0.9943000000000001,-0.299,-0.323,-2.072
2025-10-27 11:13:04.627,119.12,0.0,-0.001,-0.001,-0.025,0.025,-1.0030000000000001,-37.03,7.92,-115.02,0.0165,0.0145,0.10360000000000001,0.0,-0.0001,-0.0001,0.9943000000000001,-0.3,-0.322,-2.072
2025-10-27 11:13:04.685,119.1225,0.0,0.001,-0.003,-0.027,0.022,-1.0030000000000001,-37.03,7.92,-115.02,0.0165,0.0145,0.10360000000000001,0.0,0.0001,-0.00030000000000000003,0.9943000000000001,-0.299,-0.322,-2.072
2025-10-27 11:13:04.688,119.125,-0.001,-0.001,0.001,-0.029,0.023,-1.002,-37.03,7.92,-115.52,0.0165,0.0145,0.10360000000000001,-0.0001,-0.0001,0.0001,0.9943000000000001,-0.299,-0.323,-2.072
2025-10-27 11:13:04.690,119.6825,-0.002,0.001,0.0,-0.028,0.024,-1.0050000000000001,-36.910000000000004,8.3,-114.32000000000001,0.0164,0.0146,0.10360000000000001,-0.0002,0.0001,0.0,0.9943000000000001,-0.297,-0.326,-2.073
2025-10-27 11:13:04.746,119.685,-0.002,0.001,0.0,-0.028,0.024,-1.0050000000000001,-36.910000000000004,8.3,-114.32000000000001,0.0165,0.014700000000000001,0.10360000000000001,-0.0002,0.0001,0.0,0.9943000000000001,-0.298,-0.326,-2.073
2025-10-27 11:13:04.748,119.6875,0.0,0.0,0.0,-0.027,0.023,-1.0030000000000001,-36.88,8.0,-114.44,0.0165,0.0146,0.10360000000000001,0.0,0.0,0.0,0.9943000000000001,-0.298,-0.326,-2.073
2025-10-27 11:13:04.750,119.69,-0.001,0.002,0.0,-0.027,0.023,-1.0030000000000001,-36.88,8.0,-114.44,0.0165,0.0146,0.10360000000000001,-0.0001,0.0002,0.0,0.9943000000000001,-0.298,-0.326,-2.073
2025-10-27 11:13:04.806,119.6925,-0.001,0.0,0.001,-0.028,0.023,-1.0010000000000001,-36.88,8.0,-114.44,0.0165,0.0146,0.10360000000000001,-0.0001,0.0,0.0001,0.9943000000000001,-0.298,-0.326,-2.072
2025-10-27 11:13:04.808,119.695,-0.001,-0.001,0.0,-0.026000000000000002,0.022,-1.0050000000000001,-36.88,8.0,-114.44,0.0165,0.0146,0.10360000000000001,-0.0001,-0.0001,0.0,0.9943000000000001,-0.298,-0.325,-2.072
2025-10-27 11:13:04.810,119.6975,0.0,0.001,0.0,-0.027,0.023,-1.004,-36.53,8.120000000000001,-114.76,0.0165,0.0146,0.10360000000000001,0.0,0.0001,0.0,0.9943000000000001,-0.298,-0.325,-2.072
2025-10-27 11:13:04.866,119.7,0.002,-0.002,0.0,-0.027,0.023,-1.0010000000000001,-36.53,8.120000000000001,-114.76,0.0165,0.0146,0.10360000000000001,0.0002,-0.0002,0.0,0.9943000000000001,-0.298,-0.325,-2.072
2025-10-27 11:13:04.868,119.7025,-0.001,0.001,0.0,-0.028,0.024,-1.002,-36.53,8.120000000000001,-114.76,0.0165,0.0146,0.10360000000000001,-0.0001,0.0001,0.0,0.9943000000000001,-0.299,-0.325,-2.072
2025-10-27 11:13:04.870,119.705,0.0,0.0,0.0,-0.027,0.021,-1.002,-36.53,8.120000000000001,-114.76,0.0165,0.0146,0.10360000000000001,0.0,0.0,0.0,0.9943000000000001,-0.298,-0.325,-2.072
2025-10-27 11:13:04.925,119.7075,-0.002,0.0,0.001,-0.027,0.024,-1.0030000000000001,-36.53,8.120000000000001,-114.76,0.0165,0.0146,0.10360000000000001,-0.0002,0.0,0.0001,0.9943000000000001,-0.298,-0.325,-2.072
2025-10-27 11:13:04.927,119.71,0.0,0.002,0.0,-0.027,0.023,-1.0030000000000001,-36.300000000000004,8.06,-114.76,0.0165,0.0146,0.10360000000000001,0.0,0.0002,0.0,0.9943000000000001,-0.298,-0.325,-2.072
2025-10-27 11:13:04.929,119.7125,0.0,0.004,-0.001,-0.028,0.023,-1.002,-36.300000000000004,8.06,-114.76,0.0165,0.0146,0.10360000000000001,0.0,0.0004,-0.0001,0.9943000000000001,-0.298,-0.325,-2.072
2025-10-27 11:13:04.986,119.715,0.0,-0.001,-0.003,-0.028,0.022,-1.0030000000000001,-36.300000000000004,8.06,-114.76,0.0165,0.0146,0.10360000000000001,0.0,-0.0001,-0.00030000000000000003,0.9943000000000001,-0.298,-0.325,-2.073
2025-10-27 11:13:04.988,119.7175,0.0,0.0,0.0,-0.026000000000000002,0.022,-1.0010000000000001,-36.300000000000004,8.06,-114.76,0.0165,0.0146,0.10360000000000001,0.0,0.0,0.0,0.9943000000000001,-0.298,-0.324,-2.073
2025-10-27 11:13:04.990,119.72,0.0,0.001,0.0,-0.028,0.021,-1.0030000000000001,-36.300000000000004,8.06,-114.76,0.0164,0.0146,0.10360000000000001,0.0,0.0001,0.0,0.9943000000000001,-0.297,-0.325,-2.073
2025-10-27 11:13:05.045,119.7225,-0.001,-0.001,0.0,-0.027,0.022,-1.002,-36.65,8.36,-114.44,0.0164,0.0146,0.10360000000000001,-0.0001,-0.0001,0.0,0.9943000000000001,-0.297,-0.325,-2.073
2025-10-27 11:13:05.048,120.1025,0.0,-0.001,0.0,-0.028,0.022,-1.0030000000000001,-35.36,5.55,-114.99000000000001,0.016300000000000002,0.0146,0.1037,0.0,-0.0001,0.0,0.9943000000000001,-0.295,-0.324,-2.073
2025-10-27 11:13:05.050,120.105,0.0,0.001,0.0,-0.026000000000000002,0.021,-1.002,-35.36,5.55,-114.99000000000001,0.016300000000000002,0.0145,0.1037,0.0,0.0001,0.0,0.9943000000000001,-0.295,-0.323,-2.073
2025-10-27 11:13:05.104,120.1075,0.0,0.003,0.0,-0.027,0.023,-1.0010000000000001,-35.36,5.55,-114.99000000000001,0.016300000000000002,0.0145,0.1037,0.0,0.00030000000000000003,0.0,0.9943000000000001,-0.295,-0.323,-2.073
2025-10-27 11:13:05.106,120.11,0.0,0.0,0.0,-0.028,0.022,-1.0030000000000001,-35.36,5.55,-114.99000000000001,0.016300000000000002,0.0145,0.1037,0.0,0.0,0.0,0.9943000000000001,-0.295,-0.323,-2.073
2025-10-27 11:13:05.108,120.1125,0.003,0.001,0.0,-0.027,0.022,-1.0030000000000001,-36.74,8.53,-114.73,0.016300000000000002,0.0145,0.1037,0.00030000000000000003,0.0001,0.0,0.9943000000000001,-0.295,-0.323,-2.073
2025-10-27 11:13:05.165,120.115,0.002,0.002,0.0,-0.027,0.021,-1.002,-36.74,8.53,-114.73,0.016300000000000002,0.0145,0.1037,0.0002,0.0002,0.0,0.9943000000000001,-0.294,-0.323,-2.073
2025-10-27 11:13:05.167,120.1175,0.0,0.0,-0.001,-0.027,0.02,-1.0030000000000001,-36.74,8.53,-114.73,0.0162,0.0145,0.1037,0.0,0.0,-0.0001,0.9943000000000001,-0.293,-0.323,-2.073
2025-10-27 11:13:05.169,120.12,0.0,0.0,0.0,-0.027,0.023,-1.002,-36.74,8.53,-114.73,0.0162,0.0145,0.1037,0.0,0.0,0.0,0.9943000000000001,-0.293,-0.323,-2.073
2025-10-27 11:13:05.225,120.1225,0.0,-0.001,-0.001,-0.027,0.023,-1.0030000000000001,-36.74,8.53,-114.73,0.0162,0.0145,0.1037,0.0,-0.0001,-0.0001,0.9943000000000001,-0.294,-0.322,-2.073
2025-10-27 11:13:05.226,120.125,-0.001,-0.001,0.0,-0.028,0.023,-1.002,-36.59,8.620000000000001,-115.02,0.016300000000000002,0.0145,0.1037,-0.0001,-0.0001,0.0,0.9943000000000001,-0.294,-0.323,-2.073
2025-10-27 11:13:05.228,120.1275,0.0,0.0,0.0,-0.026000000000000002,0.022,-1.0030000000000001,-36.59,8.620000000000001,-115.02,0.0162,0.0145,0.1037,0.0,0.0,0.0,0.9943000000000001,-0.294,-0.322,-2.073
2025-10-27 11:13:05.285,120.13,-0.001,0.003,0.0,-0.027,0.023,-1.0030000000000001,-36.59,8.620000000000001,-115.02,0.016300000000000002,0.0145,0.1037,-0.0001,0.00030000000000000003,0.0,0.9943000000000001,-0.294,-0.322,-2.074
2025-10-27 11:13:05.286,120.1325,-0.002,0.0,0.0,-0.026000000000000002,0.022,-1.0030000000000001,-36.59,8.620000000000001,-115.02,0.016300000000000002,0.0145,0.1037,-0.0002,0.0,0.0,0.9943000000000001,-0.294,-0.322,-2.074
2025-10-27 11:13:05.289,120.135,-0.002,0.0,0.0,-0.028,0.02,-1.0010000000000001,-36.59,8.620000000000001,-115.02,0.0162,0.0145,0.1037,-0.0002,0.0,0.0,0.9943000000000001,-0.293,-0.322,-2.073
2025-10-27 11:13:05.345,120.1375,0.0,-0.003,0.001,-0.028,0.021,-1.002,-36.77,8.41,-114.58,0.0162,0.0145,0.1037,0.0,-0.00030000000000000003,0.0001,0.9943000000000001,-0.292,-0.322,-2.073
2025-10-27 11:13:05.348,120.14,0.0,0.003,0.001,-0.027,0.022,-1.0010000000000001,-36.77,8.41,-114.58,0.0162,0.0145,0.1037,0.0,0.00030000000000000003,0.0001,0.9943000000000001,-0.292,-0.322,-2.073
2025-10-27 11:13:05.350,120.1425,0.0,-0.001,0.0,-0.028,0.023,-0.998,-36.77,8.41,-114.58,0.0162,0.0145,0.1037,0.0,-0.0001,0.0,0.9943000000000001,-0.293,-0.323,-2.073
2025-10-27 11:13:05.405,120.345,0.002,0.0,0.001,-0.028,0.022,-1.0030000000000001,-36.53,5.14,-114.2,0.016300000000000002,0.014400000000000001,0.1037,0.0002,0.0,0.0001,0.9943000000000001,-0.295,-0.321,-2.073
2025-10-27 11:13:05.407,120.3475,0.0,0.003,0.0,-0.026000000000000002,0.021,-1.002,-36.53,5.14,-114.2,0.016300000000000002,0.014400000000000001,0.1037,0.0,0.00030000000000000003,0.0,0.9943000000000001,-0.294,-0.32,-2.073
2025-10-27 11:13:05.464,120.35,-0.004,0.002,0.0,-0.027,0.022,-1.004,-36.53,5.14,-114.2,0.016300000000000002,0.014400000000000001,0.1037,-0.0004,0.0002,0.0,0.9943000000000001,-0.294,-0.32,-2.073
2025-10-27 11:13:05.465,120.3525,-0.004,-0.001,0.0,-0.026000000000000002,0.022,-1.0030000000000001,-36.53,5.14,-114.2,0.016300000000000002,0.014400000000000001,0.1037,-0.0004,-0.0001,0.0,0.9943000000000001,-0.294,-0.32,-2.073
2025-10-27 11:13:05.467,120.355,-0.002,0.002,0.0,-0.028,0.023,-1.002,-36.53,5.14,-114.2,0.016300000000000002,0.014400000000000001,0.1037,-0.0002,0.0002,0.0,0.9943000000000001,-0.294,-0.32,-2.073
2025-10-27 11:13:05.469,120.3575,-0.002,-0.001,0.0,-0.026000000000000002,0.023,-1.002,-36.68,8.33,-115.31,0.016300000000000002,0.0143,0.1037,-0.0002,-0.0001,0.0,0.9943000000000001,-0.295,-0.32,-2.073
2025-10-27 11:13:05.526,120.36,0.0,-0.001,0.0,-0.027,0.024,-1.004,-36.68,8.33,-115.31,0.016300000000000002,0.0143,0.1037,0.0,-0.0001,0.0,0.9943000000000001,-0.295,-0.32,-2.073
2025-10-27 11:13:05.528,120.3625,0.0,-0.001,0.0,-0.026000000000000002,0.023,-1.002,-36.68,8.33,-115.31,0.016300000000000002,0.0143,0.1037,0.0,-0.0001,0.0,0.9943000000000001,-0.295,-0.319,-2.073
2025-10-27 11:13:05.530,120.365,0.0,-0.002,0.0,-0.027,0.022,-1.002,-36.68,8.33,-115.31,0.016300000000000002,0.0143,0.1037,0.0,-0.0002,0.0,0.9943000000000001,-0.295,-0.319,-2.073
2025-10-27 11:13:05.586,120.3675,0.0,0.002,0.001,-0.029,0.024,-1.004,-37.12,8.27,-114.9,0.016300000000000002,0.014400000000000001,0.1037,0.0,0.0002,0.0001,0.9943000000000001,-0.296,-0.32,-2.073
2025-10-27 11:13:05.588,120.37,-0.001,0.0,0.002,-0.027,0.024,-1.006,-37.12,8.27,-114.9,0.0164,0.014400000000000001,0.1037,-0.0001,0.0,0.0002,0.9943000000000001,-0.296,-0.32,-2.073
2025-10-27 11:13:05.591,120.3725,-0.002,0.002,0.0,-0.028,0.022,-1.004,-37.12,8.27,-114.9,0.016300000000000002,0.014400000000000001,0.1037,-0.0002,0.0002,0.0,0.9943000000000001,-0.296,-0.321,-2.073
2025-10-27 11:13:05.646,120.375,0.0,0.002,0.0,-0.026000000000000002,0.024,-1.0030000000000001,-37.12,8.27,-114.9,0.0164,0.014400000000000001,0.1037,0.0,0.0002,0.0,0.9943000000000001,-0.296,-0.32,-2.073
2025-10-27 11:13:05.648,120.3775,0.0,0.002,-0.001,-0.027,0.023,-1.0030000000000001,-37.12,8.27,-114.9,0.0164,0.014400000000000001,0.1037,0.0,0.0002,-0.0001,0.9943000000000001,-0.296,-0.32,-2.073
2025-10-27 11:13:05.650,120.38,0.0,-0.001,0.0,-0.027,0.021,-1.0030000000000001,-36.94,8.94,-114.14,0.016300000000000002,0.014400000000000001,0.1037,0.0,-0.0001,0.0,0.9943000000000001,-0.296,-0.321,-2.073
2025-10-27 11:13:05.706,120.3825,0.0,0.0,0.0,-0.028,0.022,-1.004,-36.94,8.94,-114.14,0.016300000000000002,0.014400000000000001,0.1037,0.0,0.0,0.0,0.9943000000000001,-0.296,-0.321,-2.073
2025-10-27 11:13:05.708,120.385,0.0,0.002,0.002,-0.027,0.024,-1.0030000000000001,-36.94,8.94,-114.14,0.0164,0.014400000000000001,0.1037,0.0,0.0002,0.0002,0.9943000000000001,-0.296,-0.321,-2.073
2025-10-27 11:13:05.711,120.705,0.003,0.0,0.0,-0.028,0.024,-1.002,-35.89,8.94,-114.64,0.0164,0.0145,0.10360000000000001,0.00030000000000000003,0.0,0.0,0.9943000000000001,-0.297,-0.323,-2.072
2025-10-27 11:13:05.766,120.7075,0.002,0.0,0.0,-0.027,0.023,-1.0010000000000001,-35.89,8.94,-114.64,0.0164,0.0145,0.10360000000000001,0.0002,0.0,0.0,0.9943000000000001,-0.298,-0.323,-2.072
2025-10-27 11:13:05.768,120.71,0.002,-0.001,0.0,-0.027,0.023,-1.0030000000000001,-36.53,8.15,-114.17,0.0165,0.0145,0.10360000000000001,0.0002,-0.0001,0.0,0.9943000000000001,-0.298,-0.323,-2.072
2025-10-27 11:13:05.826,120.7125,-0.001,0.0,-0.003,-0.027,0.022,-1.0030000000000001,-36.53,8.15,-114.17,0.0164,0.0145,0.10360000000000001,-0.0001,0.0,-0.00030000000000000003,0.9943000000000001,-0.298,-0.323,-2.072
2025-10-27 11:13:05.886,120.715,-0.001,0.0,0.0,-0.027,0.022,-1.002,-36.53,8.15,-114.17,0.0164,0.0145,0.10360000000000001,-0.0001,0.0,0.0,0.9943000000000001,-0.297,-0.323,-2.072
2025-10-27 11:13:05.888,120.7175,0.002,0.0,-0.001,-0.025,0.022,-1.002,-36.53,8.15,-114.17,0.0164,0.0145,0.10360000000000001,0.0002,0.0,-0.0001,0.9943000000000001,-0.297,-0.322,-2.072
2025-10-27 11:13:05.890,120.72,-0.003,-0.001,-0.003,-0.028,0.022,-1.0010000000000001,-36.53,8.15,-114.17,0.0164,0.0145,0.10360000000000001,-0.00030000000000000003,-0.0001,-0.00030000000000000003,0.9943000000000001,-0.297,-0.322,-2.072
2025-10-27 11:13:05.945,120.7225,0.0,0.0,-0.001,-0.027,0.024,-1.0030000000000001,-36.59,8.59,-115.31,0.0164,0.0145,0.10360000000000001,0.0,0.0,-0.0001,0.9943000000000001,-0.297,-0.322,-2.072
2025-10-27 11:13:06.006,120.725,0.002,0.0,0.0,-0.028,0.021,-1.0030000000000001,-36.59,8.59,-115.31,0.0164,0.0145,0.10360000000000001,0.0002,0.0,0.0,0.9943000000000001,-0.296,-0.323,-2.072
2025-10-27 11:13:06.008,120.7275,0.002,0.0,-0.001,-0.027,0.023,-1.004,-36.59,8.59,-115.31,0.0164,0.0145,0.10360000000000001,0.0002,0.0,-0.0001,0.9943000000000001,-0.297,-0.322,-2.072
2025-10-27 11:13:06.184,120.73,0.002,0.002,0.0,-0.028,0.024,-1.002,-36.59,8.59,-115.31,0.0164,0.0145,0.10360000000000001,0.0002,0.0002,0.0,0.9943000000000001,-0.297,-0.323,-2.072
2025-10-27 11:13:06.245,120.7325,0.0,0.0,0.0,-0.027,0.022,-1.002,-36.59,8.59,-115.31,0.0164,0.0145,0.10360000000000001,0.0,0.0,0.0,0.9943000000000001,-0.297,-0.322,-2.072
2025-10-27 11:13:06.247,120.735,0.0,0.0,0.0,-0.029,0.024,-1.0010000000000001,-36.480000000000004,8.44,-114.55,0.0164,0.0145,0.10360000000000001,0.0,0.0,0.0,0.9943000000000001,-0.297,-0.323,-2.072
2025-10-27 11:13:06.250,120.7375,0.0,0.0,0.0,-0.027,0.021,-1.0030000000000001,-36.480000000000004,8.44,-114.55,0.0164,0.0145,0.10360000000000001,0.0,0.0,0.0,0.9943000000000001,-0.297,-0.323,-2.072
2025-10-27 11:13:06.306,120.74,0.002,0.0,0.0,-0.025,0.023,-1.0030000000000001,-36.480000000000004,8.44,-114.55,0.0164,0.014400000000000001,0.10360000000000001,0.0002,0.0,0.0,0.9943000000000001,-0.297,-0.322,-2.072
2025-10-27 11:13:06.308,120.7425,0.0,-0.001,0.0,-0.027,0.023,-1.002,-36.480000000000004,8.44,-114.55,0.0164,0.014400000000000001,0.10360000000000001,0.0,-0.0001,0.0,0.9943000000000001,-0.297,-0.322,-2.072
2025-10-27 11:13:06.310,120.745,0.002,-0.001,0.0,-0.026000000000000002,0.024,-1.0010000000000001,-36.88,8.71,-114.49000000000001,0.0164,0.014400000000000001,0.10360000000000001,0.0002,-0.0001,0.0,0.9943000000000001,-0.297,-0.321,-2.072
2025-10-27 11:13:06.365,121.12,-0.002,0.003,0.0,-0.028,0.022,-1.0030000000000001,-37.06,8.59,-115.28,0.0162,0.0145,0.1037,-0.0002,0.00030000000000000003,0.0,0.9943000000000001,-0.293,-0.322,-2.073
2025-10-27 11:13:06.367,121.1225,0.0,0.002,0.0,-0.026000000000000002,0.022,-1.0010000000000001,-36.480000000000004,4.64,-115.11,0.0162,0.0145,0.1037,0.0,0.0002,0.0,0.9943000000000001,-0.293,-0.322,-2.073
2025-10-27 11:13:06.369,121.125,0.0,0.002,-0.001,-0.027,0.023,-1.0030000000000001,-36.480000000000004,4.64,-115.11,0.0162,0.0145,0.1037,0.0,0.0002,-0.0001,0.9943000000000001,-0.293,-0.322,-2.073
2025-10-27 11:13:06.485,121.1275,0.0,-0.001,0.001,-0.028,0.022,-1.0010000000000001,-36.480000000000004,4.64,-115.11,0.0162,0.0145,0.1037,0.0,-0.0001,0.0001,0.9943000000000001,-0.293,-0.322,-2.073
2025-10-27 11:13:06.487,121.13,0.0,-0.002,-0.001,-0.028,0.022,-1.0010000000000001,-36.480000000000004,4.64,-115.11,0.0162,0.0145,0.1037,0.0,-0.0002,-0.0001,0.9943000000000001,-0.293,-0.322,-2.073
2025-10-27 11:13:06.489,121.1325,-0.001,-0.002,-0.001,-0.027,0.021,-1.002,-36.480000000000004,4.64,-115.11,0.0162,0.0145,0.1037,-0.0001,-0.0002,-0.0001,0.9943000000000001,-0.292,-0.322,-2.073
2025-10-27 11:13:06.545,121.135,0.0,0.0,-0.001,-0.027,0.023,-1.0,-37.15,8.41,-115.11,0.0162,0.0145,0.1037,0.0,0.0,-0.0001,0.9943000000000001,-0.293,-0.322,-2.074
2025-10-27 11:13:06.547,121.1375,0.0,-0.001,-0.001,-0.028,0.023,-1.0010000000000001,-37.15,8.41,-115.11,0.0162,0.0145,0.1037,0.0,-0.0001,-0.0001,0.9943000000000001,-0.293,-0.322,-2.074
2025-10-27 11:13:06.549,121.14,0.002,0.002,-0.001,-0.026000000000000002,0.021,-1.004,-37.15,8.41,-115.11,0.0162,0.0145,0.1037,0.0002,0.0002,-0.0001,0.9943000000000001,-0.292,-0.322,-2.074
2025-10-27 11:13:06.606,121.1425,-0.001,0.002,0.0,-0.026000000000000002,0.022,-1.004,-37.15,8.41,-115.11,0.0162,0.014400000000000001,0.1037,-0.0001,0.0002,0.0,0.9943000000000001,-0.292,-0.321,-2.074
2025-10-27 11:13:06.607,121.145,0.0,0.001,0.0,-0.027,0.023,-1.002,-37.15,8.41,-115.11,0.0162,0.014400000000000001,0.1037,0.0,0.0001,0.0,0.9943000000000001,-0.293,-0.321,-2.074
2025-10-27 11:13:06.609,121.1475,-0.001,-0.002,-0.001,-0.029,0.023,-1.004,-36.77,8.82,-114.96000000000001,0.0162,0.0145,0.1037,-0.0001,-0.0002,-0.0001,0.9943000000000001,-0.293,-0.322,-2.074
2025-10-27 11:13:06.665,121.15,-0.002,-0.001,0.001,-0.028,0.022,-1.004,-36.77,8.82,-114.96000000000001,0.0162,0.0145,0.1037,-0.0002,-0.0001,0.0001,0.9943000000000001,-0.293,-0.322,-2.074
2025-10-27 11:13:06.667,121.1525,0.0,0.0,0.002,-0.027,0.022,-1.0050000000000001,-36.77,8.82,-114.96000000000001,0.0162,0.0145,0.1037,0.0,0.0,0.0002,0.9943000000000001,-0.293,-0.322,-2.074
2025-10-27 11:13:06.669,121.155,0.002,-0.001,0.0,-0.027,0.022,-1.0030000000000001,-36.77,8.82,-114.96000000000001,0.0162,0.0145,0.1037,0.0002,-0.0001,0.0,0.9943000000000001,-0.293,-0.322,-2.074
2025-10-27 11:13:06.725,121.1575,0.002,-0.001,0.0,-0.027,0.022,-1.004,-36.77,8.82,-114.96000000000001,0.0162,0.014400000000000001,0.1037,0.0002,-0.0001,0.0,0.9943000000000001,-0.293,-0.322,-2.074
2025-10-27 11:13:06.727,121.16,0.0,-0.002,-0.001,-0.028,0.021,-1.0050000000000001,-36.97,9.14,-113.68,0.0162,0.0145,0.1037,0.0,-0.0002,-0.0001,0.9943000000000001,-0.292,-0.322,-2.074
2025-10-27 11:13:06.729,121.54,0.0,-0.001,0.0,-0.027,0.023,-1.002,-36.53,8.56,-115.46000000000001,0.016300000000000002,0.0146,0.1037,0.0,-0.0001,0.0,0.9943000000000001,-0.295,-0.325,-2.073
2025-10-27 11:13:06.784,121.5425,0.0,-0.001,0.0,-0.027,0.023,-1.0030000000000001,-36.53,8.56,-115.46000000000001,0.016300000000000002,0.0146,0.1037,0.0,-0.0001,0.0,0.9943000000000001,-0.295,-0.325,-2.073
2025-10-27 11:13:06.786,121.545,-0.001,0.0,0.0,-0.027,0.023,-1.0010000000000001,-36.53,8.56,-115.46000000000001,0.016300000000000002,0.0146,0.1037,-0.0001,0.0,0.0,0.9943000000000001,-0.295,-0.324,-2.073
2025-10-27 11:13:06.788,121.5475,0.0,0.003,0.001,-0.026000000000000002,0.023,-1.002,-36.53,8.56,-115.46000000000001,0.016300000000000002,0.0145,0.1037,0.0,0.00030000000000000003,0.0001,0.9943000000000001,-0.296,-0.324,-2.073
2025-10-27 11:13:06.845,121.55,0.0,-0.001,0.0,-0.027,0.021,-1.0030000000000001,-36.800000000000004,9.200000000000001,-114.67,0.016300000000000002,0.0145,0.1037,0.0,-0.0001,0.0,0.9943000000000001,-0.295,-0.324,-2.073
2025-10-27 11:13:06.847,121.5525,0.0,0.0,0.002,-0.028,0.021,-1.004,-36.800000000000004,9.200000000000001,-114.67,0.016300000000000002,0.0146,0.1037,0.0,0.0,0.0002,0.9943000000000001,-0.294,-0.324,-2.073
2025-10-27 11:13:06.849,121.555,-0.002,0.0,0.001,-0.027,0.022,-1.002,-36.800000000000004,9.200000000000001,-114.67,0.016300000000000002,0.0146,0.1037,-0.0002,0.0,0.0001,0.9943000000000001,-0.294,-0.324,-2.073
2025-10-27 11:13:06.905,121.5575,0.002,0.0,0.0,-0.027,0.022,-1.0030000000000001,-36.800000000000004,9.200000000000001,-114.67,0.016300000000000002,0.0146,0.1037,0.0002,0.0,0.0,0.9943000000000001,-0.294,-0.324,-2.073
2025-10-27 11:13:06.907,121.56,-0.001,0.0,0.0,-0.027,0.023,-1.0030000000000001,-36.800000000000004,9.200000000000001,-114.67,0.016300000000000002,0.0145,0.1037,-0.0001,0.0,0.0,0.9943000000000001,-0.294,-0.324,-2.073
2025-10-27 11:13:06.909,121.5625,-0.002,0.002,0.0,-0.027,0.022,-1.0,-36.86,8.33,-114.35000000000001,0.016300000000000002,0.0145,0.1037,-0.0002,0.0002,0.0,0.9943000000000001,-0.294,-0.323,-2.073
2025-10-27 11:13:07.026,121.565,-0.004,0.0,0.0,-0.028,0.023,-1.0,-36.86,8.33,-114.35000000000001,0.016300000000000002,0.0145,0.1037,-0.0004,0.0,0.0,0.9943000000000001,-0.295,-0.324,-2.073
2025-10-27 11:13:07.028,121.5675,0.0,0.0,0.0,-0.026000000000000002,0.024,-1.0,-36.86,8.33,-114.35000000000001,0.016300000000000002,0.0145,0.1037,0.0,0.0,0.0,0.9943000000000001,-0.295,-0.323,-2.073
2025-10-27 11:13:07.029,121.57,0.0,-0.001,0.001,-0.027,0.024,-1.002,-36.86,8.33,-114.35000000000001,0.0164,0.0145,0.1037,0.0,-0.0001,0.0001,0.9943000000000001,-0.296,-0.323,-2.073
2025-10-27 11:13:07.086,121.5725,0.0,-0.002,0.0,-0.028,0.024,-1.004,-36.86,8.33,-114.35000000000001,0.0164,0.0145,0.1037,0.0,-0.0002,0.0,0.9943000000000001,-0.296,-0.324,-2.073
2025-10-27 11:13:07.088,121.575,0.0,-0.001,0.0,-0.027,0.024,-1.0010000000000001,-36.62,8.33,-114.55,0.0164,0.0145,0.1037,0.0,-0.0001,0.0,0.9943000000000001,-0.297,-0.323,-2.073
2025-10-27 11:13:07.089,121.5775,0.0,0.0,0.0,-0.029,0.023,-1.0030000000000001,-36.62,8.33,-114.55,0.0164,0.0145,0.1037,0.0,0.0,0.0,0.9943000000000001,-0.297,-0.324,-2.073
2025-10-27 11:13:07.145,121.58,0.0,-0.001,0.001,-0.027,0.023,-1.002,-36.62,8.33,-114.55,0.0164,0.0145,0.1037,0.0,-0.0001,0.0001,0.9943000000000001,-0.297,-0.324,-2.073
2025-10-27 11:13:07.147,122.2,-0.002,-0.001,0.0,-0.025,0.023,-1.0050000000000001,-36.42,8.56,-114.29,0.0164,0.014400000000000001,0.1037,-0.0002,-0.0001,0.0,0.9943000000000001,-0.297,-0.321,-2.073
2025-10-27 11:13:07.149,122.2025,0.0,-0.001,0.0,-0.027,0.023,-1.002,-36.42,8.56,-114.29,0.0164,0.014400000000000001,0.1037,0.0,-0.0001,0.0,0.9943000000000001,-0.297,-0.321,-2.073
2025-10-27 11:13:07.205,122.205,-0.001,0.001,0.0,-0.027,0.023,-1.004,-36.42,8.56,-114.29,0.0164,0.014400000000000001,0.1037,-0.0001,0.0001,0.0,0.9943000000000001,-0.297,-0.321,-2.073
2025-10-27 11:13:07.206,122.2075,-0.001,0.003,0.001,-0.027,0.024,-1.004,-36.33,8.91,-115.22,0.0164,0.014400000000000001,0.1037,-0.0001,0.00030000000000000003,0.0001,0.9943000000000001,-0.297,-0.321,-2.073
2025-10-27 11:13:07.208,122.21,-0.001,-0.001,0.0,-0.027,0.024,-1.0030000000000001,-36.33,8.91,-115.22,0.0165,0.014400000000000001,0.1037,-0.0001,-0.0001,0.0,0.9943000000000001,-0.298,-0.321,-2.073
2025-10-27 11:13:07.265,122.2125,0.0,0.001,0.0,-0.028,0.022,-1.0030000000000001,-36.33,8.91,-115.22,0.0164,0.014400000000000001,0.1037,0.0,0.0001,0.0,0.9943000000000001,-0.297,-0.321,-2.073
2025-10-27 11:13:07.267,122.215,0.0,-0.001,0.0,-0.028,0.022,-1.0030000000000001,-36.33,8.91,-115.22,0.0164,0.014400000000000001,0.1037,0.0,-0.0001,0.0,0.9943000000000001,-0.297,-0.322,-2.073
2025-10-27 11:13:07.269,122.2175,0.0,0.0,0.0,-0.026000000000000002,0.022,-1.002,-36.33,8.91,-115.22,0.0164,0.014400000000000001,0.1037,0.0,0.0,0.0,0.9943000000000001,-0.297,-0.321,-2.073
2025-10-27 11:13:07.325,122.22,-0.001,0.003,0.0,-0.027,0.023,-1.002,-36.56,8.3,-115.4,0.0164,0.014400000000000001,0.1037,-0.0001,0.00030000000000000003,0.0,0.9943000000000001,-0.297,-0.321,-2.073
2025-10-27 11:13:07.327,122.2225,0.0,-0.001,0.0,-0.027,0.022,-1.002,-36.56,8.3,-115.4,0.0164,0.014400000000000001,0.1037,0.0,-0.0001,0.0,0.9943000000000001,-0.297,-0.321,-2.073
2025-10-27 11:13:07.329,122.225,0.0,0.0,0.001,-0.027,0.023,-1.0010000000000001,-36.56,8.3,-115.4,0.0164,0.014400000000000001,0.1037,0.0,0.0,0.0001,0.9943000000000001,-0.297,-0.321,-2.073
2025-10-27 11:13:07.386,122.2275,0.0,0.0,0.0,-0.026000000000000002,0.022,-1.0010000000000001,-36.56,8.3,-115.4,0.0164,0.014400000000000001,0.1037,0.0,0.0,0.0,0.9943000000000001,-0.296,-0.321,-2.073
2025-10-27 11:13:07.389,122.23,0.002,0.0,-0.002,-0.026000000000000002,0.024,-1.002,-36.56,8.3,-115.4,0.0164,0.014400000000000001,0.1037,0.0002,0.0,-0.0002,0.9943000000000001,-0.297,-0.32,-2.073
2025-10-27 11:13:07.391,122.2325,0.0,0.0,-0.001,-0.028,0.023,-1.0030000000000001,-36.5,8.71,-114.99000000000001,0.0164,0.014400000000000001,0.1037,0.0,0.0,-0.0001,0.9943000000000001,-0.297,-0.32,-2.073
2025-10-27 11:13:07.445,122.235,0.0,0.0,-0.001,-0.029,0.023,-1.0050000000000001,-36.5,8.71,-114.99000000000001,0.0164,0.014400000000000001,0.1037,0.0,0.0,-0.0001,0.9943000000000001,-0.297,-0.321,-2.073
2025-10-27 11:13:07.448,122.2375,0.0,0.0,0.0,-0.026000000000000002,0.023,-1.0030000000000001,-36.5,8.71,-114.99000000000001,0.0164,0.014400000000000001,0.1037,0.0,0.0,0.0,0.9943000000000001,-0.298,-0.321,-2.073
2025-10-27 11:13:07.449,122.24,0.0,0.0,-0.001,-0.027,0.021,-1.0050000000000001,-36.5,8.71,-114.99000000000001,0.0164,0.014400000000000001,0.1037,0.0,0.0,-0.0001,0.9943000000000001,-0.297,-0.321,-2.073
2025-10-27 11:13:07.506,122.385,0.0,0.0,0.0,-0.026000000000000002,0.023,-1.0010000000000001,-35.83,8.38,-115.43,0.016300000000000002,0.0145,0.1037,0.0,0.0,0.0,0.9943000000000001,-0.295,-0.322,-2.074
2025-10-27 11:13:07.508,122.3875,0.0,-0.001,0.0,-0.029,0.021,-1.004,-35.83,8.38,-115.43,0.016300000000000002,0.0145,0.1037,0.0,-0.0001,0.0,0.9943000000000001,-0.295,-0.323,-2.074
2025-10-27 11:13:07.510,122.39,-0.001,0.0,0.001,-0.027,0.023,-1.0050000000000001,-36.53,8.53,-114.64,0.016300000000000002,0.0145,0.1037,-0.0001,0.0,0.0001,0.9943000000000001,-0.295,-0.322,-2.074
2025-10-27 11:13:07.566,122.3925,0.002,-0.002,0.001,-0.028,0.022,-1.004,-36.53,8.53,-114.64,0.016300000000000002,0.0145,0.1037,0.0002,-0.0002,0.0001,0.9943000000000001,-0.295,-0.323,-2.074
2025-10-27 11:13:07.568,122.395,-0.002,0.0,0.0,-0.027,0.023,-1.002,-36.53,8.53,-114.64,0.016300000000000002,0.0145,0.1037,-0.0002,0.0,0.0,0.9943000000000001,-0.295,-0.323,-2.074
2025-10-27 11:13:07.570,122.3975,0.0,0.0,0.0,-0.028,0.023,-1.002,-36.53,8.53,-114.64,0.016300000000000002,0.0145,0.1037,0.0,0.0,0.0,0.9943000000000001,-0.295,-0.323,-2.074
2025-10-27 11:13:07.626,122.4,-0.001,0.0,0.0,-0.027,0.023,-1.0010000000000001,-36.53,8.53,-114.64,0.0164,0.0145,0.1037,-0.0001,0.0,0.0,0.9943000000000001,-0.296,-0.323,-2.074
2025-10-27 11:13:07.628,122.4025,0.0,0.002,0.001,-0.028,0.023,-1.0030000000000001,-36.39,8.0,-114.79,0.0164,0.0145,0.1037,0.0,0.0002,0.0001,0.9943000000000001,-0.296,-0.323,-2.073
2025-10-27 11:13:07.630,122.405,0.003,0.0,0.0,-0.028,0.021,-1.002,-36.39,8.0,-114.79,0.016300000000000002,0.0145,0.1037,0.00030000000000000003,0.0,0.0,0.9943000000000001,-0.295,-0.324,-2.073
2025-10-27 11:13:07.686,122.4075,0.0,-0.001,0.0,-0.026000000000000002,0.022,-1.002,-36.39,8.0,-114.79,0.016300000000000002,0.0145,0.1037,0.0,-0.0001,0.0,0.9943000000000001,-0.295,-0.323,-2.074
2025-10-27 11:13:07.688,122.41,0.002,-0.001,-0.001,-0.026000000000000002,0.022,-1.0010000000000001,-36.39,8.0,-114.79,0.016300000000000002,0.0145,0.1037,0.0002,-0.0001,-0.0001,0.9943000000000001,-0.295,-0.323,-2.074
2025-10-27 11:13:07.690,122.4125,0.0,-0.002,0.0,-0.027,0.02,-1.002,-36.39,8.0,-114.79,0.016300000000000002,0.0145,0.1037,0.0,-0.0002,0.0,0.9943000000000001,-0.294,-0.322,-2.074
2025-10-27 11:13:07.746,122.415,0.0,0.001,0.0,-0.027,0.022,-1.002,-36.53,8.21,-115.93,0.016300000000000002,0.0145,0.1037,0.0,0.0001,0.0,0.9943000000000001,-0.294,-0.322,-2.074
2025-10-27 11:13:07.806,122.4175,0.0,0.0,0.0,-0.028,0.021,-1.0,-36.53,8.21,-115.93,0.0162,0.0145,0.1037,0.0,0.0,0.0,0.9943000000000001,-0.293,-0.323,-2.074
2025-10-27 11:13:07.808,122.42,0.001,0.0,0.0,-0.027,0.024,-1.0010000000000001,-36.53,8.21,-115.93,0.016300000000000002,0.0145,0.1037,0.0001,0.0,0.0,0.9943000000000001,-0.294,-0.322,-2.074
2025-10-27 11:13:07.866,122.4225,0.0,0.0,0.0,-0.026000000000000002,0.022,-1.002,-36.53,8.21,-115.93,0.016300000000000002,0.0145,0.1037,0.0,0.0,0.0,0.9943000000000001,-0.294,-0.322,-2.074
2025-10-27 11:13:07.868,122.425,-0.002,0.0,0.0,-0.028,0.022,-1.0,-36.53,8.21,-115.93,0.016300000000000002,0.0145,0.1037,-0.0002,0.0,0.0,0.9943000000000001,-0.294,-0.322,-2.074
2025-10-27 11:13:07.869,122.805,0.001,0.001,0.0,-0.028,0.022,-1.002,-36.74,5.67,-114.44,0.0164,0.0145,0.1037,0.0001,0.0001,0.0,0.9943000000000001,-0.296,-0.324,-2.074
2025-10-27 11:13:07.925,122.8075,0.001,-0.001,0.0,-0.028,0.024,-1.002,-36.74,5.67,-114.44,0.0164,0.0145,0.1037,0.0001,-0.0001,0.0,0.9943000000000001,-0.297,-0.324,-2.074
2025-10-27 11:13:07.927,122.81,0.001,0.001,0.0,-0.026000000000000002,0.024,-1.002,-36.74,5.67,-114.44,0.0164,0.0145,0.1037,0.0001,0.0001,0.0,0.9943000000000001,-0.297,-0.323,-2.074
2025-10-27 11:13:07.929,122.8125,0.001,-0.001,0.0,-0.027,0.024,-1.0030000000000001,-36.74,5.67,-114.44,0.0165,0.0145,0.1037,0.0001,-0.0001,0.0,0.9943000000000001,-0.298,-0.323,-2.074
2025-10-27 11:13:08.046,122.815,0.0,0.001,0.0,-0.027,0.023,-1.0010000000000001,-37.38,8.71,-114.64,0.0165,0.0145,0.1037,0.0,0.0001,0.0,0.9943000000000001,-0.298,-0.323,-2.074
2025-10-27 11:13:08.048,122.8175,-0.001,0.002,0.001,-0.026000000000000002,0.022,-1.0010000000000001,-37.38,8.71,-114.64,0.0164,0.0145,0.1037,-0.0001,0.0002,0.0001,0.9943000000000001,-0.298,-0.322,-2.073
2025-10-27 11:13:08.050,122.82,0.0,-0.001,0.001,-0.028,0.022,-1.0,-37.38,8.71,-114.64,0.0164,0.0145,0.1037,0.0,-0.0001,0.0001,0.9943000000000001,-0.297,-0.323,-2.073
2025-10-27 11:13:08.106,122.8225,-0.001,0.001,-0.001,-0.029,0.022,-1.0050000000000001,-37.38,8.71,-114.64,0.0164,0.0145,0.1037,-0.0001,0.0001,-0.0001,0.9943000000000001,-0.297,-0.323,-2.074
2025-10-27 11:13:08.108,122.825,0.0,0.0,0.0,-0.027,0.023,-1.004,-37.38,8.71,-114.64,0.0164,0.0145,0.1037,0.0,0.0,0.0,0.9943000000000001,-0.297,-0.323,-2.074
2025-10-27 11:13:08.109,122.8275,0.0,0.001,0.0,-0.028,0.024,-1.002,-37.12,8.38,-114.76,0.0165,0.0145,0.1037,0.0,0.0001,0.0,0.9943000000000001,-0.298,-0.323,-2.074
2025-10-27 11:13:08.165,122.83,0.0,-0.001,0.0,-0.027,0.023,-1.002,-37.12,8.38,-114.76,0.0165,0.0145,0.1037,0.0,-0.0001,0.0,0.9943000000000001,-0.298,-0.323,-2.074
2025-10-27 11:13:08.167,122.8325,0.0,-0.001,0.0,-0.027,0.023,-1.0030000000000001,-37.12,8.38,-114.76,0.0165,0.0145,0.1037,0.0,-0.0001,0.0,0.9943000000000001,-0.298,-0.323,-2.074
2025-10-27 11:13:08.169,122.835,0.0,-0.001,0.0,-0.027,0.021,-1.0050000000000001,-37.12,8.38,-114.76,0.0164,0.0145,0.1037,0.0,-0.0001,0.0,0.9943000000000001,-0.297,-0.323,-2.074
2025-10-27 11:13:08.286,122.8375,-0.001,0.0,0.0,-0.027,0.023,-1.002,-37.12,8.38,-114.76,0.0164,0.0145,0.1037,-0.0001,0.0,0.0,0.9943000000000001,-0.297,-0.323,-2.074
2025-10-27 11:13:08.288,122.84,-0.002,0.0,0.0,-0.028,0.023,-1.004,-37.38,9.0,-115.43,0.0164,0.0145,0.1037,-0.0002,0.0,0.0,0.9943000000000001,-0.297,-0.323,-2.074
2025-10-27 11:13:08.290,122.8425,0.0,-0.001,0.001,-0.028,0.021,-1.0030000000000001,-37.38,9.0,-115.43,0.0164,0.0145,0.1037,0.0,-0.0001,0.0001,0.9943000000000001,-0.296,-0.324,-2.074
2025-10-27 11:13:08.346,122.845,0.0,-0.001,0.0,-0.028,0.023,-1.0010000000000001,-37.38,9.0,-115.43,0.0164,0.0145,0.1037,0.0,-0.0001,0.0,0.9943000000000001,-0.297,-0.324,-2.074
2025-10-27 11:13:08.348,123.2225,0.0,0.002,0.0,-0.027,0.022,-1.002,-35.800000000000004,8.53,-116.48,0.016300000000000002,0.0145,0.1037,0.0,0.0002,0.0,0.9943000000000001,-0.295,-0.323,-2.074
2025-10-27 11:13:08.351,123.225,0.0,0.0,0.0,-0.026000000000000002,0.024,-1.0030000000000001,-35.800000000000004,8.53,-116.48,0.0164,0.0145,0.1037,0.0,0.0,0.0,0.9943000000000001,-0.296,-0.323,-2.074
2025-10-27 11:13:08.406,123.2275,0.0,-0.003,0.0,-0.028,0.024,-1.0050000000000001,-35.800000000000004,8.53,-116.48,0.0164,0.0145,0.1037,0.0,-0.00030000000000000003,0.0,0.9943000000000001,-0.296,-0.323,-2.074
2025-10-27 11:13:08.408,123.23,0.0,-0.002,0.0,-0.027,0.024,-1.002,-36.65,8.76,-115.55,0.0164,0.0145,0.1037,0.0,-0.0002,0.0,0.9943000000000001,-0.297,-0.323,-2.074
2025-10-27 11:13:08.466,123.2325,-0.001,0.001,0.0,-0.029,0.022,-1.002,-36.65,8.76,-115.55,0.0164,0.0145,0.1037,-0.0001,0.0001,0.0,0.9943000000000001,-0.297,-0.324,-2.074
2025-10-27 11:13:08.468,123.235,-0.002,0.002,0.0,-0.027,0.025,-1.002,-36.65,8.76,-115.55,0.0164,0.0145,0.1037,-0.0002,0.0002,0.0,0.9943000000000001,-0.298,-0.323,-2.074
2025-10-27 11:13:08.470,123.2375,0.0,0.001,0.0,-0.028,0.024,-1.0010000000000001,-36.65,8.76,-115.55,0.0165,0.0145,0.1037,0.0,0.0001,0.0,0.9943000000000001,-0.298,-0.324,-2.074
2025-10-27 11:13:08.525,123.24,0.002,0.001,0.0,-0.027,0.022,-1.0030000000000001,-36.65,8.76,-115.55,0.0165,0.0145,0.1037,0.0002,0.0001,0.0,0.9943000000000001,-0.298,-0.323,-2.074
2025-10-27 11:13:08.527,123.2425,0.003,0.0,0.0,-0.027,0.021,-1.002,-36.480000000000004,8.74,-115.22,0.0164,0.0145,0.1037,0.00030000000000000003,0.0,0.0,0.9943000000000001,-0.297,-0.323,-2.074
2025-10-27 11:13:08.529,123.245,0.002,0.002,0.0,-0.028,0.021,-1.002,-36.480000000000004,8.74,-115.22,0.0164,0.0145,0.1037,0.0002,0.0002,0.0,0.9943000000000001,-0.296,-0.323,-2.074
2025-10-27 11:13:08.585,123.2475,0.002,0.001,0.0,-0.026000000000000002,0.021,-1.0050000000000001,-36.480000000000004,8.74,-115.22,0.016300000000000002,0.0145,0.1037,0.0002,0.0001,0.0,0.9943000000000001,-0.295,-0.323,-2.074
2025-10-27 11:13:08.587,123.25,0.0,0.001,0.0,-0.028,0.023,-1.004,-36.480000000000004,8.74,-115.22,0.016300000000000002,0.0145,0.1037,0.0,0.0001,0.0,0.9943000000000001,-0.295,-0.323,-2.074
2025-10-27 11:13:08.589,123.2525,0.0,0.001,-0.001,-0.028,0.022,-1.004,-36.480000000000004,8.74,-115.22,0.016300000000000002,0.0145,0.1037,0.0,0.0001,-0.0001,0.9943000000000001,-0.295,-0.323,-2.074
2025-10-27 11:13:08.645,123.255,0.0,-0.001,-0.003,-0.027,0.022,-1.002,-36.300000000000004,9.120000000000001,-114.84,0.016300000000000002,0.0145,0.1037,0.0,-0.0001,-0.00030000000000000003,0.9943000000000001,-0.295,-0.324,-2.074
2025-10-27 11:13:08.647,123.2575,-0.002,0.001,-0.003,-0.029,0.023,-1.0010000000000001,-36.300000000000004,9.120000000000001,-114.84,0.016300000000000002,0.0146,0.1037,-0.0002,0.0001,-0.00030000000000000003,0.9943000000000001,-0.295,-0.324,-2.074
2025-10-27 11:13:08.649,123.26,-0.001,0.0,0.0,-0.027,0.023,-1.0030000000000001,-36.300000000000004,9.120000000000001,-114.84,0.016300000000000002,0.0145,0.1037,-0.0001,0.0,0.0,0.9943000000000001,-0.296,-0.324,-2.074
2025-10-27 11:13:08.705,123.2625,-0.002,0.002,-0.001,-0.026000000000000002,0.022,-1.004,-36.300000000000004,9.120000000000001,-114.84,0.016300000000000002,0.0145,0.1037,-0.0002,0.0002,-0.0001,0.9943000000000001,-0.295,-0.323,-2.074
2025-10-27 11:13:08.707,123.7,0.001,0.001,0.0,-0.028,0.021,-1.0010000000000001,-37.18,8.5,-114.87,0.0164,0.0145,0.1037,0.0001,0.0001,0.0,0.9943000000000001,-0.297,-0.324,-2.074
2025-10-27 11:13:08.709,123.7025,0.0,0.0,0.0,-0.027,0.022,-1.002,-37.18,8.5,-114.87,0.0164,0.0145,0.1037,0.0,0.0,0.0,0.9943000000000001,-0.296,-0.323,-2.074
2025-10-27 11:13:08.765,123.705,0.0,0.0,0.0,-0.028,0.023,-1.002,-36.53,7.2700000000000005,-114.2,0.0164,0.0145,0.1037,0.0,0.0,0.0,0.9943000000000001,-0.296,-0.324,-2.074
2025-10-27 11:13:08.767,123.7075,0.0,0.0,0.0,-0.028,0.024,-1.0,-36.53,7.2700000000000005,-114.2,0.0164,0.0145,0.1037,0.0,0.0,0.0,0.9943000000000001,-0.297,-0.324,-2.074
2025-10-27 11:13:08.769,123.71,0.001,0.002,0.0,-0.028,0.021,-1.0030000000000001,-36.53,7.2700000000000005,-114.2,0.0164,0.0145,0.1037,0.0001,0.0002,0.0,0.9943000000000001,-0.296,-0.324,-2.074
2025-10-27 11:13:08.824,123.7125,0.0,0.0,0.0,-0.026000000000000002,0.021,-1.002,-36.53,7.2700000000000005,-114.2,0.016300000000000002,0.0145,0.1037,0.0,0.0,0.0,0.9943000000000001,-0.295,-0.323,-2.074
2025-10-27 11:13:08.826,123.715,-0.001,0.0,-0.001,-0.027,0.021,-1.004,-36.53,7.2700000000000005,-114.2,0.016300000000000002,0.0145,0.1037,-0.0001,0.0,-0.0001,0.9943000000000001,-0.295,-0.323,-2.074
2025-10-27 11:13:08.828,123.7175,0.0,0.0,0.0,-0.029,0.019,-1.0030000000000001,-37.21,8.3,-115.4,0.0162,0.0146,0.1037,0.0,0.0,0.0,0.9943000000000001,-0.294,-0.324,-2.074
2025-10-27 11:13:08.884,123.72,0.0,-0.005,0.0,-0.028,0.022,-1.0030000000000001,-37.21,8.3,-115.4,0.016300000000000002,0.0146,0.1037,0.0,-0.0005,0.0,0.9943000000000001,-0.294,-0.324,-2.074
2025-10-27 11:13:08.886,123.7225,0.0,-0.001,0.0,-0.026000000000000002,0.023,-1.004,-37.21,8.3,-115.4,0.016300000000000002,0.0145,0.1037,0.0,-0.0001,0.0,0.9943000000000001,-0.294,-0.324,-2.074
2025-10-27 11:13:08.888,123.725,-0.001,-0.002,0.0,-0.028,0.024,-1.0030000000000001,-37.21,8.3,-115.4,0.016300000000000002,0.0146,0.1037,-0.0001,-0.0002,0.0,0.9943000000000001,-0.294,-0.324,-2.074
