System_Time,Timestamp,device_id,Gyro_X,Gyro_Y,Gyro_Z,Acc_X,Acc_Y,Acc_Z,Mag_X,Mag_Y,Mag_Z,Quat_W,Quat_X,Quat_Y,Quat_Z,Linear_Acc_X,Linear_Acc_Y,Linear_Acc_Z
2026-01-05 21:26:47.319,259.235,-0.012,0.017,0.001,-0.03,0.008,-0.988,89.62,-41.33,-103.24000000000001,0.9991000000000001,0.0028,0.015000000000000001,-0.0388,0.0,-0.002,-0.01
2026-01-05 21:26:47.321,259.24,-0.007,0.008,-0.001,-0.028,0.008,-0.995,87.16,-41.65,-102.48,0.9991000000000001,0.0029000000000000002,0.0149,-0.0388,-0.001,-0.001,-0.004
2026-01-05 21:26:47.322,259.245,0.003,-0.001,0.001,-0.027,0.007,-0.992,87.16,-41.65,-102.48,0.9991000000000001,0.0029000000000000002,0.0149,-0.0388,-0.001,0.0,-0.007
2026-01-05 21:26:47.322,259.25,0.008,-0.009000000000000001,-0.001,-0.029,0.007,-0.986,87.16,-41.65,-102.48,0.9991000000000001,0.0029000000000000002,0.0149,-0.0388,0.0,0.0,-0.012
2026-01-05 21:26:47.322,259.255,0.002,0.001,0.0,-0.028,0.006,-0.987,87.48,-41.36,-102.57000000000001,0.9991000000000001,0.0028,0.0149,-0.0388,0.0,0.0,-0.012
2026-01-05 21:26:47.323,259.26,-0.005,0.005,-0.001,-0.028,0.006,-0.986,87.48,-41.36,-102.57000000000001,0.9991000000000001,0.0029000000000000002,0.0149,-0.0388,-0.001,0.0,-0.013000000000000001
2026-01-05 21:26:47.323,259.265,-0.005,0.006,0.0,-0.029,0.007,-0.99,87.07000000000001,-40.980000000000004,-102.45,0.9991000000000001,0.0029000000000000002,0.0148,-0.0388,0.0,0.0,-0.009000000000000001
2026-01-05 21:26:47.333,259.27,0.0,-0.002,0.0,-0.028,0.007,-0.988,87.07000000000001,-40.980000000000004,-102.45,0.9991000000000001,0.0029000000000000002,0.0148,-0.0388,0.0,0.0,-0.01
2026-01-05 21:26:47.334,259.275,0.003,-0.003,0.001,-0.03,0.006,-0.989,86.84,-41.71,-102.95,0.9991000000000001,0.0029000000000000002,0.0149,-0.0388,0.0,0.0,-0.009000000000000001
2026-01-05 21:26:47.334,259.28,0.0,0.0,0.0,-0.029,0.006,-0.988,86.84,-41.71,-102.95,0.9991000000000001,0.0029000000000000002,0.0149,-0.0388,0.0,0.0,-0.011
2026-01-05 21:26:47.337,259.285,-0.002,0.003,0.0,-0.029,0.008,-0.985,86.84,-41.71,-102.95,0.9991000000000001,0.0029000000000000002,0.0149,-0.0388,0.0,-0.001,-0.014
2026-01-05 21:26:47.338,259.29,-0.002,0.0,0.0,-0.028,0.006,-0.989,87.4,-41.39,-103.06,0.9991000000000001,0.0029000000000000002,0.0148,-0.0388,0.0,0.0,-0.01
2026-01-05 21:26:47.338,259.295,0.0,0.002,0.0,-0.029,0.008,-0.99,87.4,-41.39,-103.06,0.9991000000000001,0.003,0.0149,-0.0388,0.0,-0.001,-0.008
2026-01-05 21:26:47.339,259.3,0.0,0.002,-0.001,-0.028,0.006,-0.989,86.93,-41.24,-103.3,0.9991000000000001,0.0029000000000000002,0.0148,-0.0388,-0.001,0.0,-0.01
2026-01-05 21:26:47.343,259.305,0.0,-0.001,0.001,-0.03,0.007,-0.988,86.93,-41.24,-103.3,0.9991000000000001,0.003,0.0149,-0.0388,0.0,0.0,-0.011
2026-01-05 21:26:47.343,259.31,0.0,-0.001,0.0,-0.029,0.007,-0.984,86.93,-41.24,-103.3,0.9991000000000001,0.003,0.0149,-0.0388,0.0,0.0,-0.015
2026-01-05 21:26:47.344,259.315,0.0,0.001,0.0,-0.027,0.007,-0.987,86.99,-41.24,-102.95,0.9991000000000001,0.003,0.0148,-0.0388,-0.001,0.0,-0.011
2026-01-05 21:26:47.344,259.32,-0.001,0.003,0.0,-0.03,0.008,-0.99,86.99,-41.24,-102.95,0.9991000000000001,0.0031000000000000003,0.0149,-0.0388,0.0,-0.001,-0.008
2026-01-05 21:26:47.345,259.325,-0.001,0.005,-0.001,-0.026000000000000002,0.007,-0.987,87.19,-40.89,-102.66,0.9991000000000001,0.0031000000000000003,0.014700000000000001,-0.0388,-0.002,0.0,-0.011
2026-01-05 21:26:47.349,259.33,0.0,0.0,0.0,-0.029,0.007,-0.987,87.19,-40.89,-102.66,0.9991000000000001,0.0031000000000000003,0.014700000000000001,-0.0388,0.0,0.0,-0.012
2026-01-05 21:26:47.349,259.335,0.002,-0.002,0.001,-0.029,0.009000000000000001,-0.987,87.43,-41.36,-102.36,0.9991000000000001,0.0032,0.0148,-0.0388,0.0,-0.001,-0.011
2026-01-05 21:26:47.350,292.105,2.626,0.687,-1.624,-0.026000000000000002,0.009000000000000001,-0.988,88.36,-38.43,-101.87,0.9993000000000001,-0.0063,0.014,-0.033800000000000004,-0.003,-0.017,-0.011
2026-01-05 21:26:47.351,292.11,8.225,2.661,-5.623,-0.024,0.01,-0.986,54.480000000000004,-34.05,-88.21000000000001,0.9994000000000001,-0.0245,0.006900000000000001,-0.0199,0.005,-0.048,-0.012
2026-01-05 21:26:47.351,292.115,4.259,1.629,-3.478,-0.026000000000000002,0.011,-0.985,54.480000000000004,-34.05,-88.21000000000001,0.9994000000000001,-0.0317,0.0034000000000000002,-0.0106,0.018000000000000002,-0.075,-0.012
2026-01-05 21:26:47.354,292.12,0.044,-0.165,0.201,-0.026000000000000002,0.007,-0.987,54.63,-34.31,-87.83,0.9995,-0.0287,0.0046,-0.0106,0.016,-0.066,-0.01
2026-01-05 21:26:47.354,292.125,-0.009000000000000001,0.001,0.0,-0.025,0.01,-0.994,54.63,-34.31,-87.83,0.9995,-0.0257,0.0054,-0.0103,0.014,-0.063,-0.004
2026-01-05 21:26:47.356,292.13,-0.005,-0.001,0.001,-0.024,0.01,-0.99,54.54,-34.17,-88.59,0.9996,-0.023,0.006,-0.0103,0.012,-0.058,-0.008
2026-01-05 21:26:47.356,292.135,-0.004,0.0,0.0,-0.025,0.009000000000000001,-0.986,54.54,-34.17,-88.59,0.9997,-0.0206,0.0066,-0.010100000000000001,0.011,-0.051000000000000004,-0.012
2026-01-05 21:26:47.357,292.14,-0.002,0.003,0.0,-0.024,0.01,-0.987,54.54,-34.17,-88.59,0.9997,-0.0184,0.0071,-0.010100000000000001,0.01,-0.047,-0.012
2026-01-05 21:26:47.357,292.145,0.001,0.0,0.0,-0.025,0.01,-0.992,53.96,-34.11,-88.77,0.9997,-0.0164,0.0076,-0.0099,0.009000000000000001,-0.043000000000000003,-0.007
2026-01-05 21:26:47.357,292.15,0.0,-0.001,0.0,-0.022,0.008,-0.991,53.96,-34.11,-88.77,0.9998,-0.0146,0.0079,-0.010400000000000001,0.006,-0.038,-0.008
2026-01-05 21:26:47.357,292.155,0.0,-0.003,0.0,-0.026000000000000002,0.009000000000000001,-0.99,54.1,-33.230000000000004,-89.0,0.9998,-0.0129,0.008400000000000001,-0.0098,0.009000000000000001,-0.036000000000000004,-0.008
2026-01-05 21:26:47.358,292.16,0.0,0.001,0.0,-0.025,0.01,-0.99,54.1,-33.230000000000004,-89.0,0.9998,-0.0114,0.0088,-0.0097,0.007,-0.034,-0.009000000000000001
2026-01-05 21:26:47.358,292.165,0.001,0.002,0.002,-0.024,0.011,-0.988,54.1,-33.230000000000004,-89.0,0.9998,-0.0099,0.0091,-0.0098,0.006,-0.031,-0.011
2026-01-05 21:26:47.358,292.17,0.0,-0.001,0.0,-0.024,0.01,-0.99,54.160000000000004,-34.17,-88.83,0.9998,-0.0086,0.0094,-0.0098,0.005,-0.027,-0.008
2026-01-05 21:26:47.359,292.175,0.0,-0.001,0.0,-0.023,0.009000000000000001,-0.989,54.160000000000004,-34.17,-88.83,0.9998,-0.0074,0.009600000000000001,-0.0103,0.004,-0.025,-0.01
2026-01-05 21:26:47.359,292.18,0.001,0.0,0.0,-0.024,0.01,-0.987,54.22,-33.61,-88.48,0.9998,-0.0064,0.0098,-0.0105,0.004,-0.023,-0.012
2026-01-05 21:26:47.359,292.185,0.0,0.001,0.0,-0.025,0.01,-0.992,54.22,-33.61,-88.48,0.9998,-0.0053,0.010100000000000001,-0.010400000000000001,0.004,-0.021,-0.007
2026-01-05 21:26:47.360,292.19,0.0,0.0,0.001,-0.024,0.008,-0.989,53.75,-33.410000000000004,-88.86,0.9998,-0.0045000000000000005,0.0103,-0.0102,0.003,-0.017,-0.01
2026-01-05 21:26:47.360,292.195,0.001,-0.002,0.0,-0.024,0.01,-0.988,53.75,-33.410000000000004,-88.86,0.9998,-0.0037,0.010400000000000001,-0.0105,0.003,-0.018000000000000002,-0.011
2026-01-05 21:26:47.360,292.2,0.0,0.0,-0.001,-0.023,0.009000000000000001,-0.989,53.75,-33.410000000000004,-88.86,0.9998,-0.0029000000000000002,0.0106,-0.010700000000000001,0.002,-0.015,-0.01
2026-01-05 21:26:47.361,292.205,0.0,0.0,0.0,-0.025,0.008,-0.988,53.9,-34.17,-88.62,0.9998,-0.0023,0.0108,-0.0103,0.003,-0.013000000000000001,-0.011
2026-01-05 21:26:47.361,292.21,-0.001,0.0,0.0,-0.024,0.01,-0.992,53.9,-34.17,-88.62,0.9998,-0.0016,0.0109,-0.010400000000000001,0.002,-0.014,-0.007
2026-01-05 21:26:47.361,292.215,0.0,0.001,0.0,-0.024,0.009000000000000001,-0.987,54.42,-33.79,-88.51,0.9998,-0.0011,0.0111,-0.010400000000000001,0.002,-0.011,-0.011
2026-01-05 21:26:47.361,292.22,0.0,-0.001,0.0,-0.024,0.009000000000000001,-0.989,54.42,-33.79,-88.51,0.9998,-0.0006000000000000001,0.0112,-0.0102,0.002,-0.01,-0.01
2026-01-05 21:26:47.374,292.225,0.0,0.0,0.0,-0.026000000000000002,0.01,-0.99,54.42,-33.79,-88.51,0.9998,-0.0001,0.0114,-0.0098,0.003,-0.01,-0.009000000000000001
2026-01-05 21:26:47.374,292.23,-0.001,0.002,0.001,-0.026000000000000002,0.009000000000000001,-0.992,53.99,-33.730000000000004,-88.33,0.9998,0.0002,0.011600000000000001,-0.009300000000000001,0.003,-0.008,-0.007
2026-01-05 21:26:47.376,292.235,0.002,0.0,0.0,-0.025,0.01,-0.99,53.99,-33.730000000000004,-88.33,0.9998,0.0006000000000000001,0.0117,-0.0092,0.001,-0.009000000000000001,-0.009000000000000001
2026-01-05 21:26:47.378,292.24,-0.002,-0.001,-0.001,-0.025,0.011,-0.989,54.69,-33.82,-88.54,0.9998,0.0011,0.0118,-0.0092,0.001,-0.009000000000000001,-0.01
2026-01-05 21:26:47.378,292.245,-0.001,0.002,0.001,-0.025,0.007,-0.989,54.69,-33.82,-88.54,0.9998,0.0013000000000000002,0.0119,-0.0091,0.001,-0.004,-0.01
2026-01-05 21:26:47.378,292.25,0.0,-0.001,-0.001,-0.026000000000000002,0.009000000000000001,-0.99,54.160000000000004,-33.32,-88.04,0.9998,0.0016,0.012,-0.0089,0.002,-0.006,-0.009000000000000001
2026-01-05 21:26:47.379,292.255,0.0,0.001,0.0,-0.026000000000000002,0.01,-0.988,54.160000000000004,-33.32,-88.04,0.9998,0.0019,0.012100000000000001,-0.0088,0.001,-0.006,-0.011
2026-01-05 21:26:47.379,292.26,0.0,0.001,0.0,-0.025,0.009000000000000001,-0.993,54.160000000000004,-33.32,-88.04,0.9998,0.0021000000000000003,0.012100000000000001,-0.0088,0.0,-0.004,-0.005
2026-01-05 21:26:47.382,292.265,0.002,0.0,0.0,-0.023,0.01,-0.982,54.28,-33.49,-88.68,0.9998,0.0024000000000000002,0.012100000000000001,-0.0091,0.0,-0.005,-0.017
2026-01-05 21:26:47.383,292.27,0.004,-0.001,0.0,-0.025,0.009000000000000001,-0.991,54.28,-33.49,-88.68,0.9998,0.0026000000000000003,0.0122,-0.0089,0.001,-0.004,-0.008
2026-01-05 21:26:47.383,292.275,0.0,0.003,0.0,-0.026000000000000002,0.008,-0.992,54.160000000000004,-33.46,-88.07000000000001,0.9998,0.0027,0.0123,-0.0085,0.002,-0.002,-0.007
2026-01-05 21:26:47.383,292.28,-0.003,0.003,0.0,-0.025,0.011,-0.993,54.160000000000004,-33.46,-88.07000000000001,0.9998,0.003,0.0123,-0.008700000000000001,0.0,-0.005,-0.006
2026-01-05 21:26:47.383,292.285,0.0,0.001,-0.001,-0.025,0.01,-0.996,54.160000000000004,-33.46,-88.07000000000001,0.9998,0.0032,0.012400000000000001,-0.008700000000000001,0.0,-0.004,-0.003
2026-01-05 21:26:47.384,292.29,0.0,0.001,0.0,-0.023,0.007,-0.989,54.1,-33.730000000000004,-87.92,0.9998,0.0032,0.0123,-0.009000000000000001,-0.001,0.0,-0.01
2026-01-05 21:26:47.384,292.295,0.0,0.0,0.0,-0.024,0.009000000000000001,-0.987,54.1,-33.730000000000004,-87.92,0.9998,0.0033,0.0123,-0.009000000000000001,0.0,-0.002,-0.012
2026-01-05 21:26:47.384,292.3,-0.001,0.001,0.003,-0.023,0.01,-0.986,53.99,-33.58,-87.92,0.9998,0.0035,0.0123,-0.0094,-0.001,-0.002,-0.013000000000000001
2026-01-05 21:26:47.385,292.305,0.0,0.0,0.001,-0.023,0.011,-0.99,53.99,-33.58,-87.92,0.9998,0.0037,0.0122,-0.0097,-0.001,-0.004,-0.009000000000000001
2026-01-05 21:26:47.385,292.31,0.0,0.0,0.0,-0.026000000000000002,0.009000000000000001,-0.995,53.96,-33.93,-88.36,0.9998,0.0037,0.0123,-0.0094,0.002,-0.001,-0.004
2026-01-05 21:26:47.392,292.315,0.0,-0.003,-0.001,-0.024,0.009000000000000001,-0.991,53.96,-33.93,-88.36,0.9998,0.0038,0.0123,-0.0094,0.0,-0.001,-0.008
2026-01-05 21:26:47.392,292.32,0.002,0.0,0.001,-0.025,0.011,-0.991,53.96,-33.93,-88.36,0.9998,0.004,0.012400000000000001,-0.0094,0.0,-0.003,-0.008
2026-01-05 21:26:47.393,292.325,0.001,0.004,0.003,-0.024,0.006,-0.985,54.19,-33.82,-88.65,0.9998,0.0039000000000000003,0.012400000000000001,-0.009300000000000001,0.0,0.001,-0.014
2026-01-05 21:26:47.394,292.33,-0.002,0.003,0.0,-0.025,0.006,-0.987,54.19,-33.82,-88.65,0.9998,0.0038,0.012400000000000001,-0.0092,0.0,0.001,-0.012
2026-01-05 21:26:47.394,292.335,0.0,0.002,0.001,-0.024,0.015,-0.996,55.01,-33.55,-88.68,0.9998,0.004200000000000001,0.012400000000000001,-0.0094,0.0,-0.006,-0.003
2026-01-05 21:26:47.396,292.34,0.003,0.001,0.001,-0.024,0.013000000000000001,-0.99,55.01,-33.55,-88.68,0.9998,0.0043,0.012400000000000001,-0.0095,0.0,-0.004,-0.008
2026-01-05 21:26:47.396,292.345,0.002,-0.001,0.0,-0.023,0.007,-0.985,55.01,-33.55,-88.68,0.9998,0.0043,0.012400000000000001,-0.009600000000000001,-0.001,0.001,-0.014
2026-01-05 21:26:47.397,292.35,0.0,0.0,0.0,-0.025,0.01,-0.988,54.480000000000004,-33.96,-88.10000000000001,0.9998,0.0044,0.012400000000000001,-0.0095,0.0,-0.001,-0.01
2026-01-05 21:26:47.397,292.355,0.001,0.002,0.0,-0.025,0.01,-0.993,54.480000000000004,-33.96,-88.10000000000001,0.9998,0.0044,0.0125,-0.0094,0.0,-0.001,-0.005
2026-01-05 21:26:47.397,292.36,0.0,-0.001,0.0,-0.023,0.009000000000000001,-0.989,54.22,-33.61,-87.83,0.9998,0.0044,0.012400000000000001,-0.0095,0.0,0.0,-0.009000000000000001
2026-01-05 21:26:47.398,292.365,0.0,0.001,-0.001,-0.025,0.012,-0.991,54.22,-33.61,-87.83,0.9998,0.0045000000000000005,0.0125,-0.0094,0.0,-0.002,-0.008
2026-01-05 21:26:47.398,292.37,0.001,-0.001,0.0,-0.024,0.007,-0.988,54.31,-33.84,-87.89,0.9998,0.0045000000000000005,0.0125,-0.0094,0.0,0.002,-0.011
2026-01-05 21:26:47.398,292.375,0.0,0.0,-0.001,-0.024,0.009000000000000001,-0.989,54.31,-33.84,-87.89,0.9998,0.0045000000000000005,0.0125,-0.0094,0.0,0.0,-0.01
2026-01-05 21:26:47.399,292.38,0.0,0.001,0.001,-0.026000000000000002,0.011,-0.992,54.31,-33.84,-87.89,0.9998,0.0046,0.0126,-0.009300000000000001,0.001,-0.002,-0.007
2026-01-05 21:26:47.399,292.385,0.0,0.0,0.001,-0.024,0.007,-0.99,54.01,-34.17,-88.19,0.9998,0.0045000000000000005,0.0125,-0.0094,0.0,0.001,-0.009000000000000001
2026-01-05 21:26:47.399,292.39,0.001,0.0,0.0,-0.023,0.011,-0.987,54.01,-34.17,-88.19,0.9998,0.0046,0.0125,-0.0095,-0.001,-0.001,-0.012
2026-01-05 21:26:47.399,292.395,0.0,0.002,0.0,-0.024,0.008,-0.99,53.58,-33.730000000000004,-88.36,0.9998,0.0046,0.0125,-0.0095,0.0,0.0,-0.009000000000000001
2026-01-05 21:26:47.400,292.4,0.0,-0.001,0.0,-0.023,0.007,-0.99,53.58,-33.730000000000004,-88.36,0.9998,0.0045000000000000005,0.0125,-0.0095,-0.001,0.001,-0.008
2026-01-05 21:26:47.400,292.405,0.0,0.001,0.001,-0.024,0.01,-0.99,53.58,-33.730000000000004,-88.36,0.9998,0.0046,0.012400000000000001,-0.009600000000000001,0.0,-0.001,-0.009000000000000001
2026-01-05 21:26:47.400,292.41,0.0,0.0,0.0,-0.025,0.01,-0.99,53.46,-33.410000000000004,-87.81,0.9998,0.0046,0.0125,-0.0095,0.0,0.0,-0.008
2026-01-05 21:26:47.401,292.415,-0.001,0.0,-0.001,-0.024,0.009000000000000001,-0.99,53.46,-33.410000000000004,-87.81,0.9998,0.0046,0.0125,-0.0095,0.0,0.0,-0.008
2026-01-05 21:26:47.401,292.42,-0.001,0.0,0.0,-0.025,0.011,-0.99,53.34,-33.87,-87.78,0.9998,0.0047,0.0125,-0.0095,0.0,-0.001,-0.009000000000000001
2026-01-05 21:26:47.401,292.425,0.0,0.0,0.0,-0.023,0.008,-0.99,53.34,-33.87,-87.78,0.9998,0.0047,0.0125,-0.0095,-0.001,0.0,-0.009000000000000001
2026-01-05 21:26:47.401,292.43,0.0,-0.001,0.0,-0.023,0.008,-0.988,53.69,-33.46,-88.04,0.9998,0.0046,0.012400000000000001,-0.009600000000000001,0.0,0.0,-0.011
2026-01-05 21:26:47.402,292.435,0.0,-0.001,0.0,-0.024,0.009000000000000001,-0.989,53.69,-33.46,-88.04,0.9998,0.0046,0.012400000000000001,-0.009600000000000001,0.0,0.0,-0.01
2026-01-05 21:26:47.402,292.44,-0.001,-0.001,0.0,-0.023,0.008,-0.991,53.69,-33.46,-88.04,0.9998,0.0046,0.012400000000000001,-0.009600000000000001,0.0,0.001,-0.008
2026-01-05 21:26:47.416,292.445,0.0,0.0,-0.001,-0.024,0.011,-0.991,53.72,-33.06,-88.16,0.9998,0.0047,0.012400000000000001,-0.009600000000000001,0.0,-0.002,-0.008
2026-01-05 21:26:47.417,292.45,0.0,0.0,0.0,-0.025,0.011,-0.99,53.72,-33.06,-88.16,0.9998,0.0047,0.012400000000000001,-0.009600000000000001,0.0,-0.001,-0.009000000000000001
2026-01-05 21:26:47.417,292.455,0.0,0.0,-0.001,-0.025,0.007,-0.985,53.02,-33.06,-88.57000000000001,0.9998,0.0046,0.0125,-0.0095,0.0,0.002,-0.013000000000000001
2026-01-05 21:26:47.419,292.46,0.0,0.0,0.0,-0.024,0.01,-0.99,53.02,-33.06,-88.57000000000001,0.9998,0.0047,0.0125,-0.0095,0.0,-0.001,-0.009000000000000001
2026-01-05 21:26:47.420,292.465,0.0,0.001,0.0,-0.024,0.008,-0.991,53.02,-33.06,-88.57000000000001,0.9998,0.0047,0.0125,-0.0095,0.0,0.0,-0.008
2026-01-05 21:26:47.421,292.47,0.0,0.0,0.0,-0.023,0.01,-0.991,53.550000000000004,-33.44,-87.92,0.9998,0.0047,0.012400000000000001,-0.009600000000000001,-0.001,0.0,-0.008
2026-01-05 21:26:47.421,292.475,0.0,-0.003,0.002,-0.023,0.008,-0.987,53.550000000000004,-33.44,-87.92,0.9998,0.0047,0.012400000000000001,-0.009600000000000001,-0.001,0.0,-0.011
2026-01-05 21:26:47.422,292.48,0.002,0.0,0.001,-0.026000000000000002,0.008,-0.988,53.11,-33.64,-88.42,0.9998,0.0046,0.012400000000000001,-0.009600000000000001,0.001,0.001,-0.011
2026-01-05 21:26:47.422,292.485,0.0,0.001,0.0,-0.023,0.007,-0.988,53.11,-33.64,-88.42,0.9998,0.0045000000000000005,0.012400000000000001,-0.009600000000000001,-0.001,0.001,-0.01
2026-01-05 21:26:47.422,292.49,0.002,0.002,0.0,-0.024,0.01,-0.99,52.96,-33.08,-88.77,0.9998,0.0046,0.012400000000000001,-0.009600000000000001,0.0,-0.001,-0.008
2026-01-05 21:26:47.423,292.495,0.003,0.0,-0.001,-0.024,0.009000000000000001,-0.99,52.96,-33.08,-88.77,0.9998,0.0046,0.012400000000000001,-0.009600000000000001,0.0,0.0,-0.009000000000000001
2026-01-05 21:26:47.423,292.5,0.004,0.0,0.0,-0.025,0.009000000000000001,-0.988,52.96,-33.08,-88.77,0.9998,0.0046,0.012400000000000001,-0.009600000000000001,0.0,0.0,-0.011
2026-01-05 21:26:47.423,292.505,0.002,0.0,0.0,-0.024,0.009000000000000001,-0.988,53.4,-33.7,-88.13,0.9998,0.0046,0.012400000000000001,-0.009600000000000001,0.0,0.0,-0.011
2026-01-05 21:26:47.423,292.51,0.0,0.001,0.0,-0.024,0.009000000000000001,-0.986,53.4,-33.7,-88.13,0.9998,0.0046,0.012400000000000001,-0.009600000000000001,0.0,0.0,-0.012
2026-01-05 21:26:47.424,292.515,-0.002,-0.001,0.0,-0.026000000000000002,0.011,-0.99,53.61,-32.88,-88.04,0.9998,0.0047,0.0125,-0.009600000000000001,0.001,-0.001,-0.008
2026-01-05 21:26:47.429,292.52,0.0,0.0,0.0,-0.026000000000000002,0.01,-0.986,53.61,-32.88,-88.04,0.9998,0.0048000000000000004,0.0126,-0.0095,0.001,0.0,-0.013000000000000001
2026-01-05 21:26:47.430,292.525,0.0,0.0,0.0,-0.025,0.008,-0.989,53.61,-32.88,-88.04,0.9998,0.0047,0.0126,-0.0095,0.0,0.001,-0.01
2026-01-05 21:26:47.430,292.53,0.0,0.003,0.002,-0.025,0.011,-0.991,53.99,-32.62,-87.89,0.9998,0.0048000000000000004,0.0126,-0.0095,0.0,-0.001,-0.007
2026-01-05 21:26:47.430,292.535,0.002,-0.003,0.001,-0.025,0.009000000000000001,-0.989,53.99,-32.62,-87.89,0.9998,0.0048000000000000004,0.0126,-0.0095,0.0,0.0,-0.01
2026-01-05 21:26:47.430,292.54,0.0,-0.004,0.0,-0.024,0.01,-0.988,53.46,-33.14,-88.65,0.9998,0.0048000000000000004,0.0126,-0.0095,0.0,0.0,-0.011
2026-01-05 21:26:47.431,292.545,-0.002,0.002,0.001,-0.026000000000000002,0.011,-0.989,53.46,-33.14,-88.65,0.9998,0.0048000000000000004,0.0126,-0.0095,0.0,-0.001,-0.01
2026-01-05 21:26:47.435,292.55,0.0,-0.001,0.001,-0.024,0.007,-0.989,53.550000000000004,-33.9,-88.21000000000001,0.9998,0.0047,0.0126,-0.0095,0.0,0.002,-0.01
2026-01-05 21:26:47.435,292.555,0.0,-0.001,0.0,-0.023,0.009000000000000001,-0.993,53.550000000000004,-33.9,-88.21000000000001,0.9998,0.0047,0.0125,-0.0095,-0.001,0.0,-0.006
2026-01-05 21:26:47.436,292.56,0.0,-0.001,0.0,-0.024,0.011,-0.989,53.550000000000004,-33.9,-88.21000000000001,0.9998,0.0048000000000000004,0.0125,-0.0095,0.0,-0.001,-0.01
2026-01-05 21:26:47.436,292.565,0.0,0.001,0.001,-0.023,0.008,-0.986,53.69,-33.93,-88.39,0.9998,0.0047,0.0125,-0.0095,-0.001,0.001,-0.013000000000000001
2026-01-05 21:26:47.439,292.57,0.0,0.004,0.0,-0.024,0.009000000000000001,-0.994,53.69,-33.93,-88.39,0.9998,0.0047,0.0125,-0.0095,0.0,0.0,-0.005
2026-01-05 21:26:47.439,292.575,0.002,0.001,0.001,-0.024,0.01,-0.989,53.230000000000004,-33.49,-87.69,0.9998,0.0048000000000000004,0.0125,-0.009600000000000001,0.0,0.0,-0.009000000000000001
2026-01-05 21:26:47.439,292.58,0.002,0.003,0.0,-0.024,0.008,-0.99,53.230000000000004,-33.49,-87.69,0.9998,0.0047,0.0125,-0.009600000000000001,0.0,0.001,-0.009000000000000001
2026-01-05 21:26:47.440,292.585,0.002,0.0,0.0,-0.025,0.009000000000000001,-0.989,53.230000000000004,-33.49,-87.69,0.9998,0.0047,0.0125,-0.0095,0.0,0.0,-0.01
2026-01-05 21:26:47.442,292.59,0.0,0.003,0.0,-0.025,0.01,-0.987,53.58,-33.0,-88.54,0.9998,0.0047,0.0125,-0.0095,0.0,0.0,-0.011
2026-01-05 21:26:47.443,292.595,0.0,0.003,-0.001,-0.023,0.008,-0.989,53.58,-33.0,-88.54,0.9998,0.0046,0.0125,-0.0095,-0.001,0.001,-0.009000000000000001
2026-01-05 21:26:47.445,292.6,0.0,0.0,0.0,-0.023,0.011,-0.989,53.52,-33.46,-88.21000000000001,0.9998,0.0048000000000000004,0.012400000000000001,-0.009600000000000001,-0.001,-0.002,-0.01
2026-01-05 21:26:47.445,292.605,0.002,-0.002,0.0,-0.023,0.01,-0.988,53.52,-33.46,-88.21000000000001,0.9998,0.0048000000000000004,0.012400000000000001,-0.009600000000000001,0.0,0.0,-0.011
2026-01-05 21:26:47.447,292.61,0.002,-0.001,-0.001,-0.022,0.007,-0.988,52.9,-33.38,-87.89,0.9998,0.0047,0.0123,-0.009600000000000001,-0.001,0.002,-0.011
2026-01-05 21:26:47.448,292.615,0.0,0.002,0.0,-0.024,0.01,-0.99,52.9,-33.38,-87.89,0.9998,0.0047,0.0123,-0.009600000000000001,0.0,0.0,-0.008
2026-01-05 21:26:47.449,292.62,0.002,0.001,0.0,-0.024,0.008,-0.988,52.9,-33.38,-87.89,0.9998,0.0047,0.0123,-0.009600000000000001,0.0,0.001,-0.011
2026-01-05 21:26:47.449,292.625,0.001,-0.003,-0.002,-0.025,0.01,-0.988,53.63,-33.26,-88.07000000000001,0.9998,0.0047,0.0123,-0.009600000000000001,0.0,0.0,-0.011
2026-01-05 21:26:47.449,292.63,0.001,0.0,-0.001,-0.025,0.01,-0.989,53.63,-33.26,-88.07000000000001,0.9998,0.0047,0.012400000000000001,-0.009600000000000001,0.0,0.0,-0.01
2026-01-05 21:26:47.449,292.635,0.0,-0.001,0.001,-0.025,0.009000000000000001,-0.99,54.57,-33.44,-88.48,0.9998,0.0047,0.012400000000000001,-0.009600000000000001,0.0,0.0,-0.009000000000000001
2026-01-05 21:26:47.453,292.64,0.0,-0.001,0.0,-0.024,0.009000000000000001,-0.99,54.57,-33.44,-88.48,0.9998,0.0047,0.012400000000000001,-0.009600000000000001,0.0,0.0,-0.009000000000000001
2026-01-05 21:26:47.453,292.645,0.002,0.0,0.0,-0.025,0.01,-0.986,54.57,-33.44,-88.07000000000001,0.9998,0.0048000000000000004,0.012400000000000001,-0.009600000000000001,0.0,0.0,-0.012
2026-01-05 21:26:47.454,292.65,0.0,0.0,0.0,-0.025,0.007,-0.991,53.17,-33.52,-88.07000000000001,0.9998,0.0047,0.0125,-0.0095,0.0,0.002,-0.008
2026-01-05 21:26:47.456,292.655,0.0,-0.005,-0.001,-0.024,0.011,-0.989,53.17,-33.52,-88.07000000000001,0.9998,0.0047,0.0125,-0.0095,0.0,-0.001,-0.01
2026-01-05 21:26:47.456,292.66,0.002,0.002,0.001,-0.024,0.007,-0.99,53.49,-33.2,-89.24,0.9998,0.0046,0.0125,-0.0095,0.0,0.001,-0.009000000000000001
2026-01-05 21:26:47.456,292.665,0.0,-0.001,0.0,-0.023,0.009000000000000001,-0.988,53.49,-33.2,-89.24,0.9998,0.0046,0.012400000000000001,-0.009600000000000001,-0.001,0.0,-0.011
2026-01-05 21:26:47.457,292.67,0.0,0.0,0.0,-0.024,0.012,-0.987,53.02,-32.94,-87.43,0.9998,0.0048000000000000004,0.012400000000000001,-0.009600000000000001,0.0,-0.002,-0.011
2026-01-05 21:26:47.460,292.675,0.0,0.002,0.001,-0.025,0.008,-0.988,53.02,-32.94,-87.43,0.9998,0.0047,0.0125,-0.0095,0.0,0.0,-0.01
2026-01-05 21:26:47.460,292.68,0.0,0.002,0.0,-0.025,0.008,-0.99,53.02,-32.94,-87.43,0.9998,0.0047,0.0125,-0.0095,0.0,0.001,-0.008
2026-01-05 21:26:47.460,292.685,0.0,-0.001,0.0,-0.025,0.01,-0.989,54.25,-33.46,-87.51,0.9998,0.0047,0.0126,-0.0095,0.0,0.0,-0.01
2026-01-05 21:26:47.461,292.69,0.0,-0.001,0.0,-0.024,0.008,-0.986,54.25,-33.46,-87.51,0.9998,0.0047,0.0126,-0.0095,0.0,0.0,-0.013000000000000001
2026-01-05 21:26:47.461,292.695,0.001,0.0,-0.001,-0.025,0.011,-0.99,53.25,-32.88,-87.98,0.9998,0.0048000000000000004,0.0126,-0.0095,0.0,-0.001,-0.009000000000000001
2026-01-05 21:26:47.461,292.7,0.0,0.002,0.0,-0.025,0.009000000000000001,-0.99,53.25,-32.88,-87.98,0.9998,0.0048000000000000004,0.0126,-0.0095,0.0,0.0,-0.009000000000000001
2026-01-05 21:26:47.465,292.705,0.0,0.0,0.0,-0.023,0.008,-0.99,53.58,-33.29,-87.81,0.9998,0.0047,0.0125,-0.0095,-0.001,0.001,-0.009000000000000001
2026-01-05 21:26:47.466,292.71,0.002,-0.001,0.0,-0.024,0.012,-0.988,53.58,-33.29,-87.81,0.9998,0.0048000000000000004,0.0125,-0.009600000000000001,0.0,-0.002,-0.01
2026-01-05 21:26:47.466,292.715,0.0,0.002,0.0,-0.025,0.009000000000000001,-0.986,53.58,-33.29,-87.81,0.9998,0.0048000000000000004,0.0125,-0.0095,0.0,0.0,-0.013000000000000001
2026-01-05 21:26:47.468,292.72,0.0,0.003,0.0,-0.024,0.008,-0.99,53.28,-33.06,-87.63,0.9998,0.0047,0.0125,-0.0095,0.0,0.001,-0.009000000000000001
2026-01-05 21:26:47.468,292.725,0.0,0.0,0.001,-0.025,0.009000000000000001,-0.989,53.28,-33.06,-87.63,0.9998,0.0047,0.0126,-0.0095,0.0,0.0,-0.01
2026-01-05 21:26:47.468,292.73,0.0,0.001,0.0,-0.025,0.008,-0.988,53.370000000000005,-33.14,-87.98,0.9998,0.0047,0.0126,-0.0095,0.0,0.0,-0.01
2026-01-05 21:26:47.470,292.735,0.0,0.0,0.001,-0.024,0.007,-0.986,53.370000000000005,-33.14,-87.98,0.9998,0.0046,0.0126,-0.0095,0.0,0.002,-0.012
2026-01-05 21:26:47.471,292.74,0.0,0.0,0.0,-0.025,0.01,-0.991,53.370000000000005,-33.14,-87.98,0.9998,0.0047,0.0126,-0.0095,0.0,0.0,-0.008
2026-01-05 21:26:47.471,292.745,0.0,0.0,0.001,-0.024,0.007,-0.988,53.46,-33.2,-87.83,0.9998,0.0046,0.0126,-0.0095,0.0,0.002,-0.01
2026-01-05 21:26:47.471,292.75,0.0,0.0,0.001,-0.024,0.007,-0.991,53.46,-33.2,-87.83,0.9998,0.0045000000000000005,0.0126,-0.0095,-0.001,0.001,-0.008
2026-01-05 21:26:47.472,292.755,-0.001,0.0,0.0,-0.024,0.009000000000000001,-0.986,53.63,-33.17,-87.51,0.9998,0.0045000000000000005,0.0126,-0.0095,0.0,0.0,-0.012
2026-01-05 21:26:47.475,292.76,0.0,0.002,0.0,-0.025,0.009000000000000001,-0.988,53.63,-33.17,-87.51,0.9998,0.0045000000000000005,0.0126,-0.0095,0.0,0.0,-0.011
2026-01-05 21:26:47.476,292.765,0.0,0.0,0.001,-0.025,0.009000000000000001,-0.992,54.39,-33.230000000000004,-88.10000000000001,0.9998,0.0046,0.0126,-0.0095,0.0,0.0,-0.007
2026-01-05 21:26:47.476,292.77,0.0,0.0,0.0,-0.024,0.009000000000000001,-0.987,54.39,-33.230000000000004,-88.10000000000001,0.9998,0.0046,0.0126,-0.0095,0.0,0.0,-0.011
2026-01-05 21:26:47.476,292.775,-0.003,0.0,0.001,-0.024,0.01,-0.988,54.39,-33.230000000000004,-88.10000000000001,0.9998,0.0046,0.0126,-0.0095,0.0,0.0,-0.01
2026-01-05 21:26:47.479,292.78,0.0,0.0,0.0,-0.026000000000000002,0.01,-0.987,53.9,-33.49,-88.68,0.9998,0.0047,0.0126,-0.0095,0.001,-0.001,-0.011
2026-01-05 21:26:47.479,292.785,0.001,0.001,0.0,-0.025,0.008,-0.986,53.9,-33.49,-88.68,0.9998,0.0046,0.012700000000000001,-0.0095,0.0,0.001,-0.012
2026-01-05 21:26:47.480,292.79,0.0,0.0,-0.001,-0.023,0.008,-0.994,54.54,-33.06,-88.33,0.9998,0.0046,0.0126,-0.0095,-0.001,0.0,-0.005
2026-01-05 21:26:47.480,292.795,0.0,-0.001,0.0,-0.025,0.011,-0.991,54.54,-33.06,-88.33,0.9998,0.0047,0.0126,-0.0095,0.0,-0.002,-0.008
2026-01-05 21:26:47.481,292.8,0.001,-0.001,-0.002,-0.024,0.008,-0.985,54.54,-33.06,-88.33,0.9998,0.0046,0.0126,-0.0095,0.0,0.001,-0.014
2026-01-05 21:26:47.481,292.805,0.0,0.0,-0.001,-0.025,0.009000000000000001,-0.988,53.63,-32.94,-87.98,0.9998,0.0046,0.0126,-0.0095,0.0,0.0,-0.011
2026-01-05 21:26:47.481,292.81,0.0,0.003,0.001,-0.026000000000000002,0.011,-0.991,53.63,-32.94,-87.98,0.9998,0.0047,0.012700000000000001,-0.0095,0.001,-0.001,-0.007
2026-01-05 21:26:47.485,292.815,0.001,-0.002,0.001,-0.024,0.01,-0.99,53.4,-32.85,-87.83,0.9998,0.0048000000000000004,0.0126,-0.0095,0.0,0.0,-0.009000000000000001
2026-01-05 21:26:47.485,292.82,0.002,0.0,0.0,-0.023,0.011,-0.988,53.4,-32.85,-87.83,0.9998,0.0048000000000000004,0.0126,-0.0095,-0.001,-0.001,-0.011
2026-01-05 21:26:47.487,292.825,0.0,0.0,0.001,-0.023,0.009000000000000001,-0.989,52.76,-33.26,-88.59,0.9998,0.0048000000000000004,0.0125,-0.0095,-0.001,0.0,-0.01
2026-01-05 21:26:47.487,292.83,0.0,0.001,0.0,-0.024,0.01,-0.987,52.76,-33.26,-88.59,0.9998,0.0048000000000000004,0.0125,-0.0095,0.0,0.0,-0.012
2026-01-05 21:26:47.487,292.835,0.0,0.0,0.0,-0.024,0.01,-0.989,52.76,-33.26,-88.59,0.9998,0.0048000000000000004,0.0125,-0.0095,0.0,0.0,-0.01
2026-01-05 21:26:47.488,292.84,0.002,0.001,0.0,-0.024,0.009000000000000001,-0.988,52.93,-33.58,-88.54,0.9998,0.0048000000000000004,0.0125,-0.0095,0.0,0.0,-0.01
2026-01-05 21:26:47.488,292.845,-0.002,0.0,0.0,-0.023,0.008,-0.988,52.93,-33.58,-88.54,0.9998,0.0047,0.012400000000000001,-0.009600000000000001,-0.001,0.001,-0.011
2026-01-05 21:26:47.488,292.85,0.0,0.0,-0.001,-0.025,0.01,-0.988,53.370000000000005,-33.38,-88.16,0.9998,0.0048000000000000004,0.012400000000000001,-0.0095,0.0,0.0,-0.011
2026-01-05 21:26:47.489,292.855,0.0,0.0,0.0,-0.024,0.011,-0.991,53.370000000000005,-33.38,-88.16,0.9998,0.0048000000000000004,0.012400000000000001,-0.0095,0.0,-0.001,-0.008
2026-01-05 21:26:47.489,292.86,0.002,0.0,0.0,-0.023,0.009000000000000001,-0.988,53.370000000000005,-33.38,-88.16,0.9998,0.0048000000000000004,0.012400000000000001,-0.009600000000000001,0.0,0.0,-0.011
2026-01-05 21:26:47.489,292.865,0.0,0.0,0.0,-0.024,0.011,-0.989,52.730000000000004,-33.26,-87.57000000000001,0.9998,0.0049,0.012400000000000001,-0.009600000000000001,0.0,-0.001,-0.009000000000000001
2026-01-05 21:26:47.489,292.87,0.002,0.001,-0.001,-0.024,0.008,-0.989,52.730000000000004,-33.26,-87.57000000000001,0.9998,0.0048000000000000004,0.012400000000000001,-0.009600000000000001,0.0,0.001,-0.009000000000000001
2026-01-05 21:26:47.490,292.875,0.0,0.001,0.0,-0.025,0.009000000000000001,-0.989,52.67,-33.2,-88.07000000000001,0.9998,0.0048000000000000004,0.012400000000000001,-0.009600000000000001,0.0,0.0,-0.01
2026-01-05 21:26:47.490,292.88,0.002,0.001,0.001,-0.024,0.009000000000000001,-0.987,52.67,-33.2,-88.07000000000001,0.9998,0.0048000000000000004,0.012400000000000001,-0.009600000000000001,0.0,0.0,-0.012
2026-01-05 21:26:47.490,292.885,0.0,0.001,0.0,-0.025,0.009000000000000001,-0.991,53.34,-32.79,-88.36,0.9998,0.0048000000000000004,0.012400000000000001,-0.009600000000000001,0.0,0.0,-0.008
2026-01-05 21:26:47.491,292.89,-0.001,0.003,0.0,-0.024,0.008,-0.991,53.34,-32.79,-88.36,0.9998,0.0047,0.012400000000000001,-0.009600000000000001,0.0,0.001,-0.008
2026-01-05 21:26:47.491,292.895,-0.001,0.0,0.0,-0.025,0.008,-0.988,53.34,-32.79,-88.36,0.9998,0.0046,0.012400000000000001,-0.009600000000000001,0.0,0.001,-0.01
2026-01-05 21:26:47.491,292.9,-0.002,-0.003,0.0,-0.025,0.009000000000000001,-0.988,53.2,-33.03,-87.63,0.9998,0.0047,0.0125,-0.009600000000000001,0.0,0.0,-0.011
2026-01-05 21:26:47.491,292.905,0.0,-0.001,0.0,-0.025,0.01,-0.987,53.2,-33.03,-87.63,0.9998,0.0047,0.0125,-0.009600000000000001,0.0,0.0,-0.012
2026-01-05 21:26:47.492,292.91,0.0,0.004,0.001,-0.025,0.007,-0.987,53.08,-32.82,-87.75,0.9998,0.0046,0.0125,-0.009600000000000001,0.0,0.002,-0.012
2026-01-05 21:26:47.492,292.915,0.0,0.002,-0.001,-0.023,0.009000000000000001,-0.99,53.08,-32.82,-87.75,0.9998,0.0046,0.0125,-0.009600000000000001,-0.001,0.0,-0.009000000000000001
2026-01-05 21:26:47.492,292.92,0.0,0.0,0.0,-0.023,0.009000000000000001,-0.992,53.08,-32.82,-87.75,0.9998,0.0046,0.012400000000000001,-0.0095,-0.001,0.0,-0.007
2026-01-05 21:26:47.492,292.925,0.001,0.0,0.0,-0.024,0.008,-0.985,53.34,-33.06,-87.4,0.9998,0.0046,0.012400000000000001,-0.0095,0.0,0.0,-0.013000000000000001
2026-01-05 21:26:47.507,292.93,0.0,0.003,0.0,-0.025,0.01,-0.987,53.34,-33.06,-87.4,0.9998,0.0046,0.012400000000000001,-0.009600000000000001,0.0,0.0,-0.012
2026-01-05 21:26:47.507,292.935,0.0,0.0,0.0,-0.025,0.009000000000000001,-0.988,54.1,-32.47,-87.45,0.9998,0.0046,0.0125,-0.009600000000000001,0.0,0.0,-0.011
2026-01-05 21:26:47.508,292.94,0.001,0.001,0.0,-0.023,0.008,-0.988,54.1,-32.47,-87.45,0.9998,0.0046,0.012400000000000001,-0.009600000000000001,-0.001,0.0,-0.011
2026-01-05 21:26:47.508,292.945,0.0,-0.001,0.0,-0.024,0.01,-0.989,53.63,-32.88,-88.10000000000001,0.9998,0.0046,0.012400000000000001,-0.009600000000000001,0.0,-0.001,-0.009000000000000001
2026-01-05 21:26:47.508,292.95,0.0,-0.003,0.0,-0.025,0.008,-0.987,53.63,-32.88,-88.10000000000001,0.9998,0.0046,0.0125,-0.009600000000000001,0.0,0.0,-0.012
2026-01-05 21:26:47.508,292.955,0.0,0.001,0.002,-0.025,0.006,-0.989,53.63,-32.88,-88.10000000000001,0.9998,0.0045000000000000005,0.0125,-0.009600000000000001,0.0,0.003,-0.01
2026-01-05 21:26:47.512,292.96,0.0,-0.001,0.0,-0.025,0.009000000000000001,-0.989,53.72,-33.49,-88.36,0.9998,0.0045000000000000005,0.0126,-0.009600000000000001,0.0,0.0,-0.01
2026-01-05 21:26:47.513,292.965,0.0,0.003,0.001,-0.024,0.008,-0.988,53.72,-33.49,-88.36,0.9998,0.0044,0.0126,-0.009600000000000001,0.0,0.001,-0.011
2026-01-05 21:26:47.513,292.97,0.0,0.0,0.001,-0.025,0.007,-0.988,53.34,-32.62,-88.62,0.9998,0.0044,0.0126,-0.0095,0.0,0.001,-0.011
2026-01-05 21:26:47.513,292.975,0.002,-0.001,-0.001,-0.026000000000000002,0.01,-0.992,53.34,-32.62,-88.62,0.9998,0.0044,0.0126,-0.009600000000000001,0.0,-0.001,-0.007
2026-01-05 21:26:47.513,292.98,0.002,0.005,0.002,-0.025,0.007,-0.99,53.34,-32.62,-88.62,0.9998,0.0044,0.0126,-0.009600000000000001,0.0,0.001,-0.009000000000000001
2026-01-05 21:26:47.514,292.985,0.0,-0.003,0.0,-0.024,0.01,-0.986,54.04,-33.2,-87.92,0.9998,0.0044,0.0126,-0.009600000000000001,-0.001,-0.001,-0.013000000000000001
2026-01-05 21:26:47.514,292.99,0.0,0.0,0.0,-0.023,0.01,-0.988,54.04,-33.2,-87.92,0.9998,0.0045000000000000005,0.0125,-0.009600000000000001,-0.001,-0.001,-0.011
2026-01-05 21:26:47.514,292.995,0.0,0.002,0.0,-0.024,0.009000000000000001,-0.983,53.46,-33.17,-87.92,0.9998,0.0045000000000000005,0.0125,-0.009600000000000001,0.0,0.0,-0.015
2026-01-05 21:26:47.515,293.0,-0.002,0.0,0.0,-0.025,0.011,-0.993,53.46,-33.17,-87.92,0.9998,0.0046,0.0126,-0.009600000000000001,0.0,-0.002,-0.005
2026-01-05 21:26:47.515,293.005,0.002,0.001,0.0,-0.024,0.01,-0.991,53.660000000000004,-32.59,-87.4,0.9998,0.0047,0.0126,-0.009600000000000001,0.0,0.0,-0.008
2026-01-05 21:26:47.515,293.01,0.0,-0.003,0.0,-0.024,0.008,-0.984,53.660000000000004,-32.59,-87.4,0.9998,0.0046,0.0126,-0.009600000000000001,0.0,0.0,-0.014
2026-01-05 21:26:47.515,293.015,-0.002,0.0,-0.001,-0.024,0.009000000000000001,-0.989,53.660000000000004,-32.59,-87.4,0.9998,0.0046,0.0125,-0.009600000000000001,0.0,0.0,-0.01
2026-01-05 21:26:47.516,293.02,0.0,-0.003,0.0,-0.025,0.008,-0.99,53.63,-32.59,-87.98,0.9998,0.0046,0.0126,-0.009600000000000001,0.0,0.0,-0.008
2026-01-05 21:26:47.516,293.025,0.0,0.0,0.0,-0.024,0.007,-0.988,53.63,-32.59,-87.98,0.9998,0.0045000000000000005,0.0125,-0.009600000000000001,0.0,0.001,-0.01
2026-01-05 21:26:47.516,293.03,0.0,0.0,0.0,-0.024,0.011,-0.99,54.1,-32.97,-88.39,0.9998,0.0046,0.0125,-0.009600000000000001,0.0,-0.001,-0.008
2026-01-05 21:26:47.517,293.035,0.003,0.003,-0.001,-0.025,0.01,-0.986,54.1,-32.97,-88.39,0.9998,0.0046,0.0125,-0.009600000000000001,0.0,0.0,-0.012
2026-01-05 21:26:47.517,293.04,0.0,0.001,0.001,-0.023,0.009000000000000001,-0.988,54.1,-32.97,-88.39,0.9998,0.0046,0.0125,-0.009600000000000001,-0.001,0.0,-0.011
2026-01-05 21:26:47.517,293.045,0.0,0.001,0.0,-0.025,0.011,-0.992,53.230000000000004,-32.85,-88.04,0.9998,0.0047,0.0125,-0.009600000000000001,0.0,-0.001,-0.007
2026-01-05 21:26:47.517,293.05,0.0,0.0,0.0,-0.023,0.008,-0.989,53.230000000000004,-32.85,-88.04,0.9998,0.0047,0.012400000000000001,-0.009600000000000001,-0.001,0.001,-0.009000000000000001
2026-01-05 21:26:47.530,293.055,0.0,-0.001,0.0,-0.023,0.009000000000000001,-0.988,53.81,-32.94,-87.98,0.9998,0.0047,0.012400000000000001,-0.009600000000000001,0.0,0.0,-0.011
2026-01-05 21:26:47.530,293.06,-0.001,0.001,0.0,-0.026000000000000002,0.009000000000000001,-0.992,53.81,-32.94,-87.98,0.9998,0.0047,0.0125,-0.009600000000000001,0.001,0.0,-0.007
2026-01-05 21:26:47.531,293.065,0.0,0.0,0.0,-0.024,0.009000000000000001,-0.988,52.96,-32.730000000000004,-88.04,0.9998,0.0046,0.0125,-0.009600000000000001,0.0,0.0,-0.011
2026-01-05 21:26:47.533,293.07,-0.001,-0.001,0.0,-0.024,0.009000000000000001,-0.99,52.96,-32.730000000000004,-88.04,0.9998,0.0047,0.0125,-0.009600000000000001,0.0,0.0,-0.009000000000000001
2026-01-05 21:26:47.533,293.075,0.0,0.004,0.001,-0.026000000000000002,0.009000000000000001,-0.988,52.96,-32.730000000000004,-88.04,0.9998,0.0046,0.0125,-0.009600000000000001,0.001,0.0,-0.01
2026-01-05 21:26:47.534,293.08,-0.001,0.0,0.0,-0.025,0.008,-0.988,54.13,-33.58,-88.04,0.9998,0.0046,0.0126,-0.009600000000000001,0.0,0.0,-0.011
2026-01-05 21:26:47.536,293.085,-0.001,0.001,0.0,-0.024,0.011,-0.99,54.13,-33.58,-88.04,0.9998,0.0047,0.0125,-0.009600000000000001,0.0,-0.002,-0.009000000000000001
2026-01-05 21:26:47.536,293.09,0.0,-0.003,0.0,-0.024,0.01,-0.989,53.370000000000005,-32.88,-87.78,0.9998,0.0048000000000000004,0.0125,-0.009600000000000001,0.0,0.0,-0.01
2026-01-05 21:26:47.536,293.095,-0.001,-0.002,-0.001,-0.023,0.008,-0.988,53.370000000000005,-32.88,-87.78,0.9998,0.0047,0.0125,-0.009600000000000001,-0.001,0.001,-0.011
2026-01-05 21:26:47.536,293.1,-0.001,0.001,-0.001,-0.024,0.011,-0.986,53.370000000000005,-32.88,-87.78,0.9998,0.0048000000000000004,0.0125,-0.009600000000000001,0.0,-0.001,-0.013000000000000001
2026-01-05 21:26:47.537,293.105,0.0,0.0,0.0,-0.023,0.009000000000000001,-0.99,53.99,-33.32,-87.66,0.9998,0.0048000000000000004,0.012400000000000001,-0.009600000000000001,0.0,0.0,-0.008
2026-01-05 21:26:47.537,293.11,-0.002,-0.001,0.0,-0.025,0.01,-0.989,53.99,-33.32,-87.66,0.9998,0.0048000000000000004,0.0125,-0.009600000000000001,0.0,0.0,-0.01
2026-01-05 21:26:47.537,293.115,0.0,0.001,0.0,-0.025,0.01,-0.991,53.14,-32.65,-87.69,0.9998,0.0048000000000000004,0.0125,-0.009600000000000001,0.0,0.0,-0.007
2026-01-05 21:26:47.542,293.12,0.0,0.0,0.0,-0.024,0.007,-0.987,53.14,-32.65,-87.69,0.9998,0.0047,0.0125,-0.009600000000000001,0.0,0.001,-0.011
2026-01-05 21:26:47.542,293.125,0.0,0.001,0.001,-0.024,0.008,-0.986,53.49,-33.49,-88.13,0.9998,0.0047,0.0125,-0.009600000000000001,0.0,0.0,-0.013000000000000001
2026-01-05 21:26:47.543,293.13,-0.001,-0.001,-0.002,-0.025,0.008,-0.99,53.49,-33.49,-88.13,0.9998,0.0047,0.0125,-0.009600000000000001,0.0,0.001,-0.008
2026-01-05 21:26:47.543,293.135,0.0,0.0,0.001,-0.025,0.007,-0.988,53.49,-33.49,-88.13,0.9998,0.0046,0.0125,-0.009600000000000001,0.0,0.002,-0.011
2026-01-05 21:26:47.543,293.14,0.0,-0.001,0.0,-0.026000000000000002,0.01,-0.99,53.69,-33.14,-87.51,0.9998,0.0046,0.0126,-0.009600000000000001,0.0,0.0,-0.009000000000000001
2026-01-05 21:26:47.544,293.145,0.0,0.003,0.0,-0.025,0.007,-0.988,53.69,-33.14,-87.51,0.9998,0.0045000000000000005,0.0126,-0.009600000000000001,0.0,0.001,-0.01
2026-01-05 21:26:47.544,293.15,0.0,0.0,0.0,-0.024,0.008,-0.989,53.34,-33.17,-87.72,0.9998,0.0045000000000000005,0.0126,-0.009600000000000001,0.0,0.0,-0.009000000000000001
2026-01-05 21:26:47.548,293.155,0.0,0.0,0.001,-0.024,0.012,-0.99,53.34,-33.17,-87.72,0.9998,0.0046,0.0126,-0.009600000000000001,-0.001,-0.003,-0.008
2026-01-05 21:26:47.549,293.16,0.0,-0.002,0.0,-0.024,0.009000000000000001,-0.989,53.34,-33.17,-87.72,0.9998,0.0046,0.0125,-0.009600000000000001,0.0,0.0,-0.01
2026-01-05 21:26:47.550,293.165,0.001,-0.001,0.0,-0.024,0.008,-0.987,53.11,-32.62,-88.01,0.9998,0.0046,0.0125,-0.009600000000000001,0.0,0.001,-0.011
2026-01-05 21:26:47.551,293.17,-0.001,0.001,-0.001,-0.024,0.011,-0.987,53.11,-32.62,-88.01,0.9998,0.0047,0.0125,-0.009600000000000001,0.0,-0.001,-0.012
2026-01-05 21:26:47.552,293.175,0.0,0.001,0.0,-0.023,0.008,-0.989,52.9,-33.06,-87.92,0.9998,0.0046,0.012400000000000001,-0.009600000000000001,-0.001,0.0,-0.01
2026-01-05 21:26:47.552,293.18,0.0,-0.001,-0.001,-0.023,0.009000000000000001,-0.987,52.9,-33.06,-87.92,0.9998,0.0046,0.012400000000000001,-0.009600000000000001,-0.001,0.0,-0.011
2026-01-05 21:26:47.554,293.185,-0.001,-0.001,-0.001,-0.025,0.01,-0.988,53.11,-33.410000000000004,-87.98,0.9998,0.0047,0.012400000000000001,-0.009600000000000001,0.0,-0.001,-0.01
2026-01-05 21:26:47.555,293.19,0.0,0.002,0.0,-0.024,0.006,-0.987,53.11,-33.410000000000004,-87.98,0.9998,0.0046,0.012400000000000001,-0.009600000000000001,0.0,0.002,-0.012
2026-01-05 21:26:47.555,293.195,0.0,0.002,0.0,-0.026000000000000002,0.009000000000000001,-0.993,53.11,-33.410000000000004,-87.98,0.9998,0.0046,0.0125,-0.009600000000000001,0.001,0.0,-0.006
2026-01-05 21:26:47.556,293.2,0.0,0.0,0.001,-0.024,0.009000000000000001,-0.989,53.25,-32.76,-87.43,0.9998,0.0046,0.0125,-0.009600000000000001,0.0,0.0,-0.01
2026-01-05 21:26:47.556,293.205,0.0,0.0,0.0,-0.025,0.007,-0.985,53.25,-32.76,-87.43,0.9998,0.0045000000000000005,0.0125,-0.009600000000000001,0.0,0.001,-0.014
2026-01-05 21:26:47.558,293.21,0.0,0.0,0.0,-0.025,0.01,-0.988,53.63,-32.85,-87.63,0.9998,0.0046,0.0126,-0.009600000000000001,0.0,-0.001,-0.011
2026-01-05 21:26:47.560,293.215,0.001,0.0,0.0,-0.024,0.009000000000000001,-0.988,53.63,-32.85,-87.63,0.9998,0.0046,0.0126,-0.009600000000000001,0.0,0.0,-0.011
2026-01-05 21:26:47.560,293.22,0.0,-0.003,0.001,-0.023,0.009000000000000001,-0.987,53.63,-32.85,-87.63,0.9998,0.0046,0.0125,-0.009600000000000001,-0.001,0.0,-0.011
2026-01-05 21:26:47.560,293.225,-0.001,0.0,0.001,-0.024,0.011,-0.988,53.4,-33.03,-88.16,0.9998,0.0046,0.0125,-0.009600000000000001,0.0,-0.001,-0.011
2026-01-05 21:26:47.562,293.23,0.0,0.001,0.0,-0.025,0.01,-0.985,53.4,-33.03,-88.16,0.9998,0.0047,0.0125,-0.009600000000000001,0.0,0.0,-0.013000000000000001
2026-01-05 21:26:47.562,293.235,0.0,0.001,0.0,-0.024,0.008,-0.988,53.34,-33.7,-87.48,0.9998,0.0046,0.0125,-0.009600000000000001,0.0,0.0,-0.01
2026-01-05 21:26:47.562,293.24,0.0,0.003,0.001,-0.023,0.011,-0.992,53.34,-33.7,-87.48,0.9998,0.0047,0.0125,-0.009600000000000001,-0.001,-0.001,-0.007
2026-01-05 21:26:47.563,293.245,0.0,0.0,0.0,-0.022,0.008,-0.984,52.870000000000005,-33.49,-87.66,0.9998,0.0047,0.012400000000000001,-0.009600000000000001,-0.002,0.001,-0.015
2026-01-05 21:26:47.563,293.25,0.001,0.001,0.0,-0.025,0.011,-0.99,52.870000000000005,-33.49,-87.66,0.9998,0.0048000000000000004,0.012400000000000001,-0.009600000000000001,0.0,-0.002,-0.009000000000000001
2026-01-05 21:26:47.563,293.255,0.0,0.0,0.0,-0.024,0.01,-0.989,52.870000000000005,-33.49,-87.66,0.9998,0.0048000000000000004,0.012400000000000001,-0.009600000000000001,0.0,0.0,-0.01
2026-01-05 21:26:47.563,293.26,0.0,0.001,0.0,-0.026000000000000002,0.008,-0.99,53.4,-33.61,-87.78,0.9998,0.0047,0.0125,-0.009600000000000001,0.001,0.001,-0.009000000000000001
2026-01-05 21:26:47.564,293.265,0.0,0.001,-0.001,-0.025,0.01,-0.988,53.4,-33.61,-87.78,0.9998,0.0048000000000000004,0.0125,-0.009600000000000001,0.0,0.0,-0.01
2026-01-05 21:26:47.564,293.27,0.0,-0.003,0.001,-0.024,0.009000000000000001,-0.987,53.61,-33.38,-87.89,0.9998,0.0047,0.0125,-0.009600000000000001,0.0,0.0,-0.012
2026-01-05 21:26:47.564,293.275,0.0,0.0,0.0,-0.025,0.006,-0.989,53.61,-33.38,-87.89,0.9998,0.0046,0.0126,-0.009600000000000001,0.0,0.003,-0.009000000000000001
2026-01-05 21:26:47.564,293.28,0.0,0.002,0.0,-0.024,0.012,-0.992,53.61,-33.38,-87.89,0.9998,0.0047,0.0125,-0.009600000000000001,0.0,-0.002,-0.006
2026-01-05 21:26:47.565,293.285,0.0,-0.002,0.0,-0.023,0.009000000000000001,-0.99,54.25,-32.88,-87.78,0.9998,0.0047,0.0125,-0.009600000000000001,-0.001,0.0,-0.008
2026-01-05 21:26:47.565,293.29,-0.002,0.0,0.0,-0.025,0.008,-0.983,54.25,-32.88,-87.78,0.9998,0.0047,0.0125,-0.009600000000000001,0.0,0.0,-0.015
2026-01-05 21:26:47.565,293.295,0.0,0.004,0.0,-0.026000000000000002,0.009000000000000001,-0.992,53.96,-33.14,-87.98,0.9998,0.0047,0.0126,-0.009600000000000001,0.001,0.0,-0.007
2026-01-05 21:26:47.566,293.3,0.0,-0.001,0.0,-0.024,0.007,-0.987,53.96,-33.14,-87.98,0.9998,0.0046,0.0126,-0.009600000000000001,0.0,0.001,-0.012
2026-01-05 21:26:47.566,293.305,0.0,0.0,0.0,-0.024,0.009000000000000001,-0.989,54.25,-33.410000000000004,-87.78,0.9998,0.0046,0.0126,-0.009600000000000001,0.0,0.0,-0.01
2026-01-05 21:26:47.577,293.31,0.003,0.006,0.003,-0.025,0.011,-0.991,54.25,-33.410000000000004,-87.78,0.9998,0.0047,0.0126,-0.009600000000000001,0.0,-0.001,-0.008
2026-01-05 21:26:47.577,293.315,0.001,0.001,0.0,-0.025,0.007,-0.985,54.25,-33.410000000000004,-87.78,0.9998,0.0046,0.0126,-0.009600000000000001,0.0,0.002,-0.014
2026-01-05 21:26:47.578,293.32,0.0,0.001,-0.001,-0.025,0.011,-0.991,53.230000000000004,-33.14,-88.10000000000001,0.9998,0.0047,0.0126,-0.009600000000000001,0.0,-0.001,-0.007
2026-01-05 21:26:47.578,293.325,0.001,-0.003,0.0,-0.025,0.011,-0.993,53.230000000000004,-33.14,-88.10000000000001,0.9998,0.0048000000000000004,0.0126,-0.009600000000000001,0.0,-0.001,-0.006
2026-01-05 21:26:47.580,293.33,0.002,0.0,0.0,-0.025,0.009000000000000001,-0.985,53.52,-32.56,-87.95,0.9998,0.0048000000000000004,0.0126,-0.009600000000000001,0.0,0.0,-0.014
2026-01-05 21:26:47.581,293.335,0.0,-0.001,0.0,-0.024,0.009000000000000001,-0.989,53.52,-32.56,-87.95,0.9998,0.0047,0.0126,-0.009600000000000001,0.0,0.0,-0.009000000000000001
2026-01-05 21:26:47.581,293.34,0.0,0.0,0.0,-0.026000000000000002,0.01,-0.988,53.52,-32.56,-87.95,0.9998,0.0048000000000000004,0.012700000000000001,-0.009600000000000001,0.0,0.0,-0.011
2026-01-05 21:26:47.584,293.345,0.0,0.0,0.001,-0.025,0.008,-0.99,54.07,-33.52,-87.75,0.9998,0.0047,0.012700000000000001,-0.009600000000000001,0.0,0.0,-0.008
2026-01-05 21:26:47.584,293.35,0.0,0.0,0.0,-0.025,0.01,-0.988,54.07,-33.52,-87.75,0.9998,0.0048000000000000004,0.012700000000000001,-0.009600000000000001,0.0,0.0,-0.01
2026-01-05 21:26:47.586,293.355,0.001,0.0,0.0,-0.025,0.007,-0.986,53.69,-33.06,-88.04,0.9998,0.0047,0.012700000000000001,-0.009600000000000001,0.0,0.001,-0.013000000000000001
2026-01-05 21:26:47.586,293.36,0.001,0.002,0.0,-0.024,0.006,-0.986,53.69,-33.06,-88.04,0.9998,0.0046,0.012700000000000001,-0.009600000000000001,0.0,0.002,-0.012
2026-01-05 21:26:47.586,293.365,0.0,0.001,0.001,-0.025,0.01,-0.989,53.370000000000005,-33.17,-87.60000000000001,0.9998,0.0046,0.012700000000000001,-0.009600000000000001,0.0,0.0,-0.01
2026-01-05 21:26:47.587,293.37,0.0,-0.001,0.0,-0.025,0.009000000000000001,-0.987,53.370000000000005,-33.17,-87.60000000000001,0.9998,0.0046,0.012700000000000001,-0.009600000000000001,0.0,0.0,-0.012
2026-01-05 21:26:47.589,293.375,0.001,0.001,0.0,-0.025,0.012,-0.99,53.370000000000005,-33.17,-87.60000000000001,0.9998,0.0047,0.0128,-0.009600000000000001,0.0,-0.002,-0.009000000000000001
2026-01-05 21:26:47.590,293.38,0.0,0.003,0.0,-0.025,0.006,-0.99,53.14,-33.11,-87.89,0.9998,0.0046,0.0128,-0.009600000000000001,0.0,0.003,-0.009000000000000001
2026-01-05 21:26:47.590,293.385,0.0,-0.003,0.001,-0.025,0.006,-0.983,53.14,-33.11,-87.89,0.9998,0.0045000000000000005,0.0128,-0.009600000000000001,0.0,0.002,-0.016
2026-01-05 21:26:47.590,293.39,-0.001,-0.002,0.0,-0.024,0.013000000000000001,-0.993,53.46,-33.87,-88.01,0.9998,0.0047,0.012700000000000001,-0.009600000000000001,-0.001,-0.003,-0.006
2026-01-05 21:26:47.593,293.395,0.001,-0.001,0.001,-0.024,0.012,-0.986,53.46,-33.87,-88.01,0.9998,0.0048000000000000004,0.012700000000000001,-0.009600000000000001,-0.001,-0.002,-0.013000000000000001
2026-01-05 21:26:47.594,293.4,0.002,0.001,-0.001,-0.024,0.007,-0.988,53.46,-33.87,-88.07000000000001,0.9998,0.0047,0.0126,-0.009600000000000001,-0.001,0.002,-0.011
2026-01-05 21:26:47.595,293.405,0.0,0.0,0.0,-0.025,0.008,-0.989,53.58,-33.49,-88.07000000000001,0.9998,0.0046,0.0126,-0.009600000000000001,0.0,0.0,-0.009000000000000001
2026-01-05 21:26:47.595,293.41,0.0,0.004,0.002,-0.023,0.009000000000000001,-0.993,53.58,-33.49,-88.07000000000001,0.9998,0.0046,0.0126,-0.009600000000000001,-0.001,0.0,-0.005
2026-01-05 21:26:47.595,293.415,0.0,-0.001,0.0,-0.024,0.009000000000000001,-0.989,53.46,-33.14,-87.66,0.9998,0.0046,0.0126,-0.009600000000000001,0.0,0.0,-0.01
2026-01-05 21:26:47.596,293.42,0.0,-0.001,0.002,-0.027,0.01,-0.987,53.46,-33.14,-87.66,0.9998,0.0047,0.012700000000000001,-0.009600000000000001,0.001,0.0,-0.011
2026-01-05 21:26:47.596,293.425,0.0,-0.004,0.0,-0.023,0.007,-0.986,53.050000000000004,-33.76,-88.89,0.9998,0.0046,0.0126,-0.009600000000000001,-0.001,0.001,-0.013000000000000001
2026-01-05 21:26:47.599,293.43,-0.001,0.002,0.001,-0.022,0.008,-0.991,53.050000000000004,-33.76,-88.89,0.9998,0.0045000000000000005,0.0125,-0.009600000000000001,-0.002,0.0,-0.008
2026-01-05 21:26:47.599,293.435,0.0,0.0,0.0,-0.024,0.013000000000000001,-0.992,53.050000000000004,-33.76,-88.89,0.9998,0.0047,0.0125,-0.009600000000000001,0.0,-0.003,-0.006
2026-01-05 21:26:47.600,293.44,0.002,-0.001,0.0,-0.024,0.009000000000000001,-0.986,52.96,-33.64,-88.36,0.9998,0.0047,0.0125,-0.009600000000000001,0.0,0.0,-0.012
2026-01-05 21:26:47.600,293.445,0.0,0.001,0.001,-0.024,0.009000000000000001,-0.988,52.96,-33.64,-88.36,0.9998,0.0047,0.0125,-0.009600000000000001,0.0,0.0,-0.011
2026-01-05 21:26:47.603,293.45,0.0,0.001,0.0,-0.024,0.01,-0.989,53.14,-33.32,-88.48,0.9998,0.0047,0.0125,-0.009600000000000001,0.0,-0.001,-0.01
2026-01-05 21:26:47.603,293.455,0.0,0.0,0.0,-0.024,0.008,-0.989,53.14,-33.32,-88.48,0.9998,0.0047,0.012400000000000001,-0.009600000000000001,0.0,0.001,-0.01
2026-01-05 21:26:47.604,293.46,0.0,0.001,0.002,-0.024,0.01,-0.989,54.19,-33.32,-88.97,0.9998,0.0047,0.012400000000000001,-0.009600000000000001,0.0,0.0,-0.009000000000000001
2026-01-05 21:26:47.606,293.465,0.0,0.004,0.001,-0.024,0.009000000000000001,-0.988,54.19,-34.22,-88.97,0.9998,0.0047,0.012400000000000001,-0.009600000000000001,0.0,0.0,-0.01
2026-01-05 21:26:47.606,293.47,-0.003,-0.002,0.001,-0.024,0.007,-0.989,54.19,-34.22,-88.97,0.9998,0.0046,0.012400000000000001,-0.009600000000000001,0.0,0.002,-0.009000000000000001
2026-01-05 21:26:47.607,293.475,0.0,-0.001,0.0,-0.024,0.01,-0.99,54.54,-33.99,-88.68,0.9998,0.0047,0.012400000000000001,-0.009600000000000001,0.0,0.0,-0.008
2026-01-05 21:26:47.608,293.48,0.0,0.0,0.0,-0.024,0.009000000000000001,-0.987,54.54,-33.99,-88.68,0.9998,0.0047,0.012400000000000001,-0.009600000000000001,0.0,0.0,-0.011
2026-01-05 21:26:47.608,293.485,-0.001,-0.003,0.0,-0.025,0.009000000000000001,-0.988,53.43,-33.730000000000004,-89.12,0.9998,0.0047,0.012400000000000001,-0.009600000000000001,0.0,0.0,-0.01
2026-01-05 21:26:47.610,293.49,0.0,0.0,0.001,-0.026000000000000002,0.012,-0.99,53.43,-33.730000000000004,-89.12,0.9998,0.0048000000000000004,0.0125,-0.009600000000000001,0.001,-0.002,-0.008
2026-01-05 21:26:47.610,293.495,-0.002,0.001,0.002,-0.025,0.009000000000000001,-0.988,53.43,-33.730000000000004,-89.12,0.9998,0.0048000000000000004,0.0125,-0.009600000000000001,0.0,0.0,-0.011
2026-01-05 21:26:47.611,293.5,0.0,0.0,0.001,-0.024,0.01,-0.989,53.25,-33.84,-88.42,0.9998,0.0048000000000000004,0.0125,-0.009600000000000001,0.0,0.0,-0.01
2026-01-05 21:26:47.611,293.505,-0.002,-0.001,0.0,-0.024,0.011,-0.988,53.25,-33.84,-88.42,0.9998,0.0049,0.0125,-0.009600000000000001,0.0,-0.001,-0.01
2026-01-05 21:26:47.613,293.51,0.0,0.0,0.0,-0.025,0.007,-0.988,52.64,-33.99,-89.0,0.9998,0.0048000000000000004,0.0125,-0.009600000000000001,0.0,0.002,-0.01
2026-01-05 21:26:47.613,293.515,0.0,-0.001,-0.001,-0.024,0.01,-0.989,52.64,-33.99,-89.0,0.9998,0.0048000000000000004,0.0125,-0.009600000000000001,0.0,0.0,-0.01
2026-01-05 21:26:47.614,293.52,0.0,-0.001,0.0,-0.024,0.008,-0.987,53.230000000000004,-33.84,-88.33,0.9998,0.0047,0.0125,-0.009600000000000001,0.0,0.001,-0.012
2026-01-05 21:26:47.614,293.525,0.0,-0.001,0.001,-0.024,0.008,-0.987,53.230000000000004,-33.84,-88.33,0.9998,0.0047,0.0125,-0.009600000000000001,0.0,0.001,-0.011
2026-01-05 21:26:47.617,293.53,-0.002,0.0,0.0,-0.024,0.01,-0.988,53.230000000000004,-33.84,-88.33,0.9998,0.0047,0.0125,-0.009600000000000001,0.0,0.0,-0.011
2026-01-05 21:26:47.617,293.535,0.0,0.002,0.0,-0.023,0.008,-0.989,53.28,-33.64,-88.68,0.9998,0.0047,0.012400000000000001,-0.009600000000000001,-0.001,0.001,-0.01
2026-01-05 21:26:47.618,293.54,0.0,0.0,0.0,-0.026000000000000002,0.007,-0.986,53.28,-33.64,-88.68,0.9998,0.0046,0.0125,-0.009600000000000001,0.001,0.001,-0.013000000000000001
2026-01-05 21:26:47.620,293.545,-0.003,-0.002,0.0,-0.024,0.01,-0.989,53.43,-33.64,-88.01,0.9998,0.0046,0.0125,-0.009600000000000001,0.0,0.0,-0.009000000000000001
2026-01-05 21:26:47.620,293.55,0.0,-0.001,0.0,-0.024,0.009000000000000001,-0.989,53.43,-33.64,-88.01,0.9998,0.0046,0.0125,-0.009600000000000001,0.0,0.0,-0.009000000000000001
2026-01-05 21:26:47.621,293.555,0.0,0.0,0.0,-0.025,0.01,-0.991,53.43,-33.64,-88.01,0.9998,0.0047,0.0125,-0.009600000000000001,0.0,0.0,-0.007
2026-01-05 21:26:47.621,293.56,0.001,0.001,0.001,-0.024,0.01,-0.988,53.14,-33.58,-88.3,0.9998,0.0047,0.0125,-0.009600000000000001,0.0,0.0,-0.01
2026-01-05 21:26:47.624,293.565,0.0,0.0,0.0,-0.024,0.008,-0.986,53.14,-33.58,-88.3,0.9998,0.0047,0.012400000000000001,-0.009600000000000001,0.0,0.0,-0.013000000000000001
2026-01-05 21:26:47.624,293.57,0.0,0.001,0.001,-0.025,0.01,-0.986,53.14,-33.67,-88.16,0.9998,0.0047,0.0125,-0.009600000000000001,0.0,-0.001,-0.013000000000000001
2026-01-05 21:26:47.624,293.575,0.0,0.003,0.001,-0.024,0.009000000000000001,-0.991,53.14,-33.67,-88.16,0.9998,0.0047,0.0125,-0.009600000000000001,0.0,0.0,-0.007
2026-01-05 21:26:47.625,293.58,0.0,-0.003,0.0,-0.024,0.008,-0.989,53.52,-33.730000000000004,-87.89,0.9998,0.0047,0.0125,-0.009600000000000001,0.0,0.001,-0.01
2026-01-05 21:26:47.625,293.585,0.0,-0.001,0.0,-0.024,0.01,-0.988,53.52,-33.730000000000004,-87.89,0.9998,0.0047,0.0125,-0.009600000000000001,0.0,0.0,-0.01
2026-01-05 21:26:47.625,293.59,0.0,0.001,0.0,-0.024,0.01,-0.984,53.52,-33.730000000000004,-87.89,0.9998,0.0047,0.0125,-0.009600000000000001,0.0,0.0,-0.015
2026-01-05 21:26:47.625,293.595,0.0,0.0,0.0,-0.025,0.007,-0.986,52.870000000000005,-33.03,-88.24,0.9998,0.0046,0.0125,-0.009600000000000001,0.0,0.002,-0.013000000000000001
2026-01-05 21:26:47.626,293.6,-0.002,0.001,-0.001,-0.026000000000000002,0.01,-0.991,52.870000000000005,-33.03,-88.24,0.9998,0.0047,0.0126,-0.009600000000000001,0.001,0.0,-0.008
2026-01-05 21:26:47.631,293.605,-0.002,0.0,-0.001,-0.024,0.009000000000000001,-0.988,53.43,-33.49,-87.95,0.9998,0.0046,0.0126,-0.009600000000000001,0.0,0.0,-0.01
2026-01-05 21:26:47.631,293.61,0.0,0.0,0.0,-0.025,0.008,-0.985,53.43,-33.49,-87.95,0.9998,0.0046,0.0126,-0.009600000000000001,0.0,0.0,-0.013000000000000001
2026-01-05 21:26:47.632,293.615,0.0,-0.001,0.0,-0.023,0.01,-0.986,53.43,-33.49,-87.95,0.9998,0.0046,0.0125,-0.009600000000000001,-0.001,0.0,-0.012
2026-01-05 21:26:47.633,293.62,0.0,0.0,0.001,-0.025,0.009000000000000001,-0.988,53.61,-33.2,-87.72,0.9998,0.0046,0.0125,-0.009600000000000001,0.0,0.0,-0.011
2026-01-05 21:26:47.634,293.625,-0.003,-0.001,0.0,-0.023,0.011,-0.989,53.61,-33.2,-87.72,0.9998,0.0047,0.0125,-0.009600000000000001,-0.001,-0.002,-0.01
2026-01-05 21:26:47.634,293.63,0.002,0.002,-0.001,-0.024,0.009000000000000001,-0.99,53.550000000000004,-32.65,-87.34,0.9998,0.0047,0.0125,-0.009600000000000001,0.0,0.0,-0.009000000000000001
2026-01-05 21:26:47.635,293.635,0.002,-0.001,0.0,-0.025,0.008,-0.983,53.550000000000004,-32.65,-87.34,0.9998,0.0046,0.0126,-0.009600000000000001,0.0,0.001,-0.016
2026-01-05 21:26:47.637,293.64,-0.002,0.002,0.0,-0.026000000000000002,0.01,-0.988,54.69,-32.97,-87.86,0.9998,0.0047,0.0126,-0.009600000000000001,0.0,0.0,-0.011
2026-01-05 21:26:47.637,293.645,0.0,0.0,0.0,-0.024,0.008,-0.989,54.69,-32.97,-87.86,0.9998,0.0046,0.0126,-0.009600000000000001,0.0,0.001,-0.009000000000000001
2026-01-05 21:26:47.639,293.65,-0.001,0.0,0.0,-0.024,0.008,-0.988,54.69,-32.97,-87.86,0.9998,0.0046,0.0126,-0.009600000000000001,0.0,0.001,-0.011
2026-01-05 21:26:47.640,293.655,0.0,0.003,0.0,-0.026000000000000002,0.009000000000000001,-0.992,53.08,-33.38,-88.16,0.9998,0.0046,0.0126,-0.009600000000000001,0.001,0.0,-0.007
2026-01-05 21:26:47.640,293.66,0.0,0.003,0.001,-0.025,0.008,-0.989,53.08,-33.38,-88.16,0.9998,0.0045000000000000005,0.0126,-0.009600000000000001,0.0,0.0,-0.01
2026-01-05 21:26:47.640,293.665,0.0,0.0,0.001,-0.023,0.008,-0.988,53.84,-33.29,-88.21000000000001,0.9998,0.0045000000000000005,0.0126,-0.009600000000000001,-0.001,0.0,-0.011
2026-01-05 21:26:47.640,293.67,0.0,0.0,0.0,-0.024,0.012,-0.987,53.84,-33.29,-88.21000000000001,0.9998,0.0046,0.0126,-0.009600000000000001,0.0,-0.002,-0.011
2026-01-05 21:26:47.641,293.675,0.0,0.001,0.0,-0.024,0.008,-0.986,53.84,-33.29,-88.21000000000001,0.9998,0.0046,0.0125,-0.009600000000000001,-0.001,0.0,-0.012
2026-01-05 21:26:47.641,293.68,0.0,0.002,0.0,-0.024,0.008,-0.986,52.52,-33.17,-88.54,0.9998,0.0046,0.0125,-0.009600000000000001,0.0,0.0,-0.012
2026-01-05 21:26:47.641,293.685,0.001,0.0,0.0,-0.024,0.009000000000000001,-0.991,52.52,-33.17,-88.54,0.9998,0.0046,0.0125,-0.009600000000000001,0.0,0.0,-0.008
2026-01-05 21:26:47.647,293.69,0.001,-0.001,-0.001,-0.024,0.008,-0.989,52.96,-33.730000000000004,-87.89,0.9998,0.0046,0.0125,-0.009600000000000001,0.0,0.0,-0.01
2026-01-05 21:26:47.647,293.695,0.0,0.0,0.0,-0.025,0.009000000000000001,-0.988,52.96,-33.730000000000004,-87.89,0.9998,0.0046,0.0125,-0.009600000000000001,0.0,0.0,-0.011
2026-01-05 21:26:47.647,293.7,0.0,0.0,0.0,-0.023,0.01,-0.985,53.870000000000005,-33.06,-87.81,0.9998,0.0046,0.0125,-0.009600000000000001,-0.001,0.0,-0.014
2026-01-05 21:26:47.647,293.705,-0.002,0.0,-0.001,-0.024,0.007,-0.99,53.870000000000005,-33.06,-87.81,0.9998,0.0045000000000000005,0.0125,-0.009600000000000001,0.0,0.002,-0.009000000000000001
2026-01-05 21:26:47.648,293.71,0.0,0.0,-0.001,-0.025,0.01,-0.992,53.870000000000005,-33.06,-87.81,0.9998,0.0045000000000000005,0.0125,-0.009600000000000001,0.0,0.0,-0.006
2026-01-05 21:26:47.648,293.715,0.002,0.0,0.001,-0.023,0.01,-0.989,52.14,-33.410000000000004,-88.13,0.9998,0.0046,0.0125,-0.009600000000000001,-0.001,0.0,-0.009000000000000001
2026-01-05 21:26:47.648,293.72,0.002,-0.001,-0.001,-0.025,0.008,-0.986,52.14,-33.410000000000004,-88.13,0.9998,0.0045000000000000005,0.0125,-0.009600000000000001,0.0,0.001,-0.012
2026-01-05 21:26:47.649,293.725,0.001,0.003,-0.001,-0.023,0.01,-0.988,53.31,-33.2,-88.57000000000001,0.9998,0.0046,0.0125,-0.009600000000000001,-0.001,-0.001,-0.011
2026-01-05 21:26:47.649,293.73,0.0,0.002,0.001,-0.024,0.009000000000000001,-0.989,53.31,-33.2,-88.57000000000001,0.9998,0.0046,0.0125,-0.009600000000000001,0.0,0.0,-0.009000000000000001
2026-01-05 21:26:47.649,293.735,0.0,0.0,0.0,-0.022,0.011,-0.992,53.31,-33.2,-88.57000000000001,0.9998,0.0047,0.012400000000000001,-0.009600000000000001,-0.002,-0.002,-0.007
2026-01-05 21:26:47.650,293.74,0.002,-0.001,0.0,-0.024,0.011,-0.99,53.050000000000004,-33.08,-88.13,0.9998,0.0048000000000000004,0.012400000000000001,-0.009600000000000001,0.0,-0.001,-0.009000000000000001
2026-01-05 21:26:47.650,293.745,0.0,0.001,0.0,-0.024,0.007,-0.984,53.050000000000004,-33.08,-88.13,0.9998,0.0047,0.012400000000000001,-0.009600000000000001,0.0,0.002,-0.014
2026-01-05 21:26:47.650,293.75,0.0,0.0,0.0,-0.024,0.008,-0.987,53.34,-33.55,-88.54,0.9998,0.0046,0.012400000000000001,-0.009600000000000001,0.0,0.001,-0.012
2026-01-05 21:26:47.650,293.755,0.0,0.0,0.0,-0.025,0.01,-0.988,53.34,-33.55,-88.54,0.9998,0.0047,0.012400000000000001,-0.009600000000000001,0.0,0.0,-0.01
2026-01-05 21:26:47.651,293.76,0.0,0.0,-0.001,-0.026000000000000002,0.007,-0.987,52.85,-33.29,-88.39,0.9998,0.0046,0.0125,-0.009600000000000001,0.001,0.001,-0.011
2026-01-05 21:26:47.651,293.765,0.0,0.0,0.0,-0.025,0.01,-0.99,52.85,-33.29,-88.39,0.9998,0.0046,0.0125,-0.009600000000000001,0.0,0.0,-0.009000000000000001
2026-01-05 21:26:47.651,293.77,0.0,-0.001,0.0,-0.026000000000000002,0.009000000000000001,-0.99,52.85,-33.29,-88.39,0.9998,0.0046,0.0126,-0.009600000000000001,0.001,0.0,-0.008
2026-01-05 21:26:47.652,293.775,0.0,-0.002,0.0,-0.024,0.007,-0.988,52.79,-33.55,-88.04,0.9998,0.0045000000000000005,0.0126,-0.009600000000000001,0.0,0.002,-0.011
2026-01-05 21:26:47.652,293.78,0.0,-0.001,0.0,-0.024,0.011,-0.988,52.79,-33.55,-88.04,0.9998,0.0046,0.0126,-0.009600000000000001,-0.001,-0.002,-0.011
2026-01-05 21:26:47.652,293.785,0.001,0.002,0.002,-0.024,0.007,-0.988,53.660000000000004,-34.11,-87.81,0.9998,0.0046,0.0125,-0.009600000000000001,0.0,0.001,-0.011
2026-01-05 21:26:47.652,293.79,0.0,0.0,0.001,-0.023,0.009000000000000001,-0.99,53.660000000000004,-34.11,-87.81,0.9998,0.0045000000000000005,0.0125,-0.009600000000000001,-0.001,0.0,-0.009000000000000001
2026-01-05 21:26:47.653,293.795,-0.002,-0.001,0.001,-0.024,0.011,-0.99,53.660000000000004,-34.11,-87.81,0.9998,0.0046,0.0125,-0.009600000000000001,0.0,-0.001,-0.008
2026-01-05 21:26:47.653,293.8,0.0,0.0,0.0,-0.023,0.01,-0.99,52.9,-33.9,-88.19,0.9998,0.0047,0.012400000000000001,-0.009600000000000001,-0.001,-0.001,-0.009000000000000001
2026-01-05 21:26:47.653,293.805,0.002,0.003,0.001,-0.026000000000000002,0.011,-0.986,52.9,-33.9,-88.19,0.9998,0.0048000000000000004,0.0125,-0.009600000000000001,0.001,-0.001,-0.012
2026-01-05 21:26:47.654,293.81,0.0,0.001,0.001,-0.025,0.009000000000000001,-0.988,53.9,-33.46,-88.39,0.9998,0.0047,0.0125,-0.009600000000000001,0.0,0.0,-0.011
2026-01-05 21:26:47.654,293.815,0.0,0.001,0.0,-0.025,0.007,-0.991,53.9,-33.46,-88.39,0.9998,0.0047,0.0125,-0.009600000000000001,0.0,0.001,-0.008
2026-01-05 21:26:47.654,293.82,0.0,0.001,0.0,-0.024,0.008,-0.987,52.79,-33.61,-88.8,0.9998,0.0046,0.0125,-0.009600000000000001,0.0,0.0,-0.011
2026-01-05 21:26:47.654,293.825,0.001,-0.002,0.002,-0.025,0.009000000000000001,-0.985,52.79,-33.61,-88.8,0.9998,0.0046,0.0125,-0.009600000000000001,0.0,0.0,-0.014
2026-01-05 21:26:47.655,293.83,0.0,-0.001,0.0,-0.026000000000000002,0.006,-0.987,52.79,-33.61,-88.8,0.9998,0.0045000000000000005,0.0126,-0.009600000000000001,0.0,0.002,-0.012
2026-01-05 21:26:47.655,293.835,0.0,0.003,0.0,-0.025,0.009000000000000001,-0.989,53.34,-33.67,-88.54,0.9998,0.0045000000000000005,0.0126,-0.009600000000000001,0.0,0.0,-0.009000000000000001
2026-01-05 21:26:47.655,293.84,0.0,0.003,0.0,-0.025,0.008,-0.989,53.34,-33.67,-88.54,0.9998,0.0045000000000000005,0.0126,-0.009600000000000001,0.0,0.0,-0.009000000000000001
2026-01-05 21:26:47.656,293.845,0.0,-0.002,0.001,-0.024,0.008,-0.987,52.79,-33.44,-88.16,0.9998,0.0045000000000000005,0.0126,-0.009600000000000001,0.0,0.0,-0.011
2026-01-05 21:26:47.656,293.85,-0.001,0.0,0.001,-0.024,0.01,-0.988,52.79,-33.44,-88.16,0.9998,0.0045000000000000005,0.0126,-0.009600000000000001,0.0,-0.001,-0.01
2026-01-05 21:26:47.656,293.855,-0.001,0.001,0.0,-0.026000000000000002,0.007,-0.986,52.79,-33.44,-88.16,0.9998,0.0045000000000000005,0.012700000000000001,-0.009600000000000001,0.001,0.001,-0.013000000000000001
2026-01-05 21:26:47.656,293.86,0.0,-0.001,-0.001,-0.024,0.008,-0.988,52.26,-33.67,-88.39,0.9998,0.0045000000000000005,0.012700000000000001,-0.009600000000000001,-0.001,0.0,-0.01
2026-01-05 21:26:47.657,293.865,0.0,0.0,0.0,-0.023,0.011,-0.987,52.26,-33.67,-88.39,0.9998,0.0046,0.0126,-0.009600000000000001,-0.001,-0.002,-0.012
2026-01-05 21:26:47.657,293.87,0.0,-0.001,0.0,-0.024,0.008,-0.986,53.4,-33.99,-88.83,0.9998,0.0045000000000000005,0.0126,-0.009600000000000001,-0.001,0.001,-0.013000000000000001
2026-01-05 21:26:47.657,293.875,0.0,0.0,0.0,-0.027,0.009000000000000001,-0.99,53.4,-33.99,-88.83,0.9998,0.0045000000000000005,0.012700000000000001,-0.009600000000000001,0.001,0.0,-0.008
2026-01-05 21:26:47.657,293.88,0.001,0.004,0.0,-0.024,0.011,-0.992,52.79,-33.58,-88.62,0.9998,0.0046,0.0126,-0.009600000000000001,0.0,-0.001,-0.007
2026-01-05 21:26:47.658,293.885,0.0,0.001,0.0,-0.024,0.008,-0.986,52.79,-33.58,-88.62,0.9998,0.0045000000000000005,0.0126,-0.009600000000000001,0.0,0.0,-0.012
2026-01-05 21:26:47.658,293.89,0.0,0.001,0.0,-0.025,0.011,-0.989,52.79,-33.58,-88.62,0.9998,0.0046,0.0126,-0.009600000000000001,0.0,-0.001,-0.01
2026-01-05 21:26:47.658,293.895,-0.002,0.004,0.001,-0.024,0.009000000000000001,-0.985,52.38,-33.82,-88.54,0.9998,0.0046,0.0126,-0.009600000000000001,-0.001,0.0,-0.013000000000000001
2026-01-05 21:26:47.659,293.9,-0.002,0.0,0.0,-0.025,0.007,-0.99,52.38,-33.82,-88.54,0.9998,0.0045000000000000005,0.0126,-0.009600000000000001,0.0,0.002,-0.009000000000000001
2026-01-05 21:26:47.659,293.905,0.0,0.0,0.0,-0.024,0.011,-0.991,51.94,-33.46,-88.62,0.9998,0.0046,0.0126,-0.009600000000000001,0.0,-0.002,-0.008
2026-01-05 21:26:47.659,293.91,-0.001,0.001,0.001,-0.025,0.009000000000000001,-0.987,51.94,-33.46,-88.62,0.9998,0.0046,0.0126,-0.009600000000000001,0.0,0.0,-0.012
2026-01-05 21:26:47.690,293.915,-0.001,-0.001,0.0,-0.025,0.007,-0.986,51.94,-33.46,-88.62,0.9998,0.0046,0.0126,-0.009600000000000001,0.0,0.001,-0.013000000000000001
2026-01-05 21:26:47.690,293.92,-0.001,0.003,0.0,-0.025,0.011,-0.989,53.230000000000004,-33.730000000000004,-88.57000000000001,0.9998,0.0046,0.012700000000000001,-0.009600000000000001,0.0,-0.001,-0.01
2026-01-05 21:26:47.692,293.925,0.0,0.001,0.0,-0.024,0.01,-0.987,53.230000000000004,-33.730000000000004,-88.57000000000001,0.9998,0.0047,0.0126,-0.009600000000000001,0.0,0.0,-0.011
2026-01-05 21:26:47.692,293.93,0.0,0.001,0.001,-0.023,0.008,-0.987,52.44,-33.11,-88.04,0.9998,0.0046,0.0126,-0.009600000000000001,-0.001,0.001,-0.012
2026-01-05 21:26:47.692,293.935,-0.001,0.0,0.0,-0.025,0.01,-0.987,52.44,-33.11,-88.04,0.9998,0.0047,0.0126,-0.009600000000000001,0.0,-0.001,-0.011
2026-01-05 21:26:47.692,293.94,0.0,0.003,0.001,-0.024,0.008,-0.985,52.32,-33.46,-88.59,0.9998,0.0046,0.0126,-0.009600000000000001,0.0,0.001,-0.014
2026-01-05 21:26:47.693,293.945,0.0,0.001,0.0,-0.024,0.01,-0.99,52.32,-33.46,-88.59,0.9998,0.0047,0.0125,-0.009600000000000001,0.0,0.0,-0.009000000000000001
2026-01-05 21:26:47.696,293.95,0.0,0.001,0.0,-0.023,0.011,-0.99,52.32,-33.46,-88.59,0.9998,0.0048000000000000004,0.0125,-0.009600000000000001,-0.001,-0.001,-0.008
2026-01-05 21:26:47.696,293.955,0.0,0.001,-0.001,-0.024,0.008,-0.987,52.17,-33.7,-87.63,0.9998,0.0047,0.0125,-0.009600000000000001,0.0,0.001,-0.012
2026-01-05 21:26:47.697,293.96,0.0,0.0,0.0,-0.023,0.011,-0.986,52.17,-33.7,-87.63,0.9998,0.0048000000000000004,0.0125,-0.009600000000000001,-0.001,-0.001,-0.012
2026-01-05 21:26:47.699,293.965,0.0,0.0,0.0,-0.024,0.009000000000000001,-0.989,52.96,-33.82,-87.60000000000001,0.9998,0.0048000000000000004,0.012400000000000001,-0.009600000000000001,0.0,0.0,-0.01
2026-01-05 21:26:47.699,293.97,0.0,0.001,-0.001,-0.024,0.008,-0.988,52.96,-33.82,-87.60000000000001,0.9998,0.0047,0.012400000000000001,-0.009600000000000001,0.0,0.001,-0.01
2026-01-05 21:26:47.700,293.975,0.0,0.004,0.0,-0.023,0.012,-0.989,52.96,-33.82,-87.60000000000001,0.9998,0.0049,0.012400000000000001,-0.009600000000000001,-0.001,-0.002,-0.009000000000000001
2026-01-05 21:26:47.700,293.98,0.0,0.001,0.0,-0.025,0.009000000000000001,-0.988,54.1,-33.49,-88.71000000000001,0.9998,0.0048000000000000004,0.012400000000000001,-0.009600000000000001,0.0,0.0,-0.01
2026-01-05 21:26:47.700,293.985,-0.001,0.001,0.0,-0.025,0.009000000000000001,-0.987,54.1,-33.49,-88.71000000000001,0.9998,0.0048000000000000004,0.012400000000000001,-0.009600000000000001,0.0,0.0,-0.011
2026-01-05 21:26:47.704,293.99,0.0,0.0,0.0,-0.025,0.011,-0.991,52.550000000000004,-33.87,-87.83,0.9998,0.0049,0.0125,-0.009600000000000001,0.0,-0.001,-0.008
2026-01-05 21:26:47.705,293.995,0.001,-0.001,0.0,-0.024,0.007,-0.988,52.550000000000004,-33.87,-87.83,0.9998,0.0048000000000000004,0.0125,-0.009600000000000001,0.0,0.002,-0.011
2026-01-05 21:26:47.705,294.0,0.0,-0.001,0.0,-0.025,0.007,-0.989,52.730000000000004,-33.64,-88.21000000000001,0.9998,0.0047,0.0125,-0.009600000000000001,0.0,0.002,-0.01
2026-01-05 21:26:47.706,294.005,-0.001,0.002,0.0,-0.025,0.009000000000000001,-0.988,52.730000000000004,-33.64,-88.21000000000001,0.9998,0.0047,0.0126,-0.009600000000000001,0.0,0.0,-0.011
2026-01-05 21:26:47.706,294.01,0.0,0.004,0.001,-0.024,0.009000000000000001,-0.986,52.730000000000004,-33.64,-88.21000000000001,0.9998,0.0046,0.0125,-0.009600000000000001,0.0,0.0,-0.012
2026-01-05 21:26:47.706,294.015,0.0,0.001,0.0,-0.025,0.01,-0.989,52.96,-33.38,-87.92,0.9998,0.0047,0.0126,-0.009600000000000001,0.0,-0.001,-0.01
2026-01-05 21:26:47.706,294.02,0.0,-0.004,0.001,-0.024,0.01,-0.99,52.96,-33.38,-87.92,0.9998,0.0047,0.0126,-0.009600000000000001,0.0,0.0,-0.009000000000000001
2026-01-05 21:26:47.707,294.025,0.001,0.0,0.0,-0.024,0.007,-0.988,52.49,-33.410000000000004,-88.42,0.9998,0.0046,0.0126,-0.009600000000000001,0.0,0.001,-0.011
2026-01-05 21:26:47.707,294.03,0.0,0.001,0.0,-0.024,0.011,-0.992,52.49,-33.410000000000004,-88.42,0.9998,0.0047,0.0125,-0.009600000000000001,0.0,-0.001,-0.007
2026-01-05 21:26:47.707,294.035,0.001,0.002,0.0,-0.024,0.009000000000000001,-0.989,52.49,-33.410000000000004,-88.42,0.9998,0.0047,0.0125,-0.009600000000000001,0.0,0.0,-0.01
2026-01-05 21:26:47.707,294.04,0.0,0.0,0.0,-0.025,0.007,-0.988,52.11,-33.58,-89.03,0.9998,0.0046,0.0126,-0.009600000000000001,0.0,0.001,-0.011
2026-01-05 21:26:47.708,294.045,0.0,-0.001,-0.001,-0.024,0.011,-0.989,52.11,-33.58,-89.03,0.9998,0.0047,0.0125,-0.009600000000000001,0.0,-0.001,-0.01
2026-01-05 21:26:47.708,294.05,0.001,-0.003,0.0,-0.025,0.007,-0.989,52.96,-34.2,-89.12,0.9998,0.0047,0.0126,-0.009600000000000001,0.0,0.001,-0.01
2026-01-05 21:26:47.708,294.055,-0.001,-0.001,0.0,-0.025,0.008,-0.988,52.96,-34.2,-89.12,0.9998,0.0046,0.0126,-0.009600000000000001,0.0,0.001,-0.011
2026-01-05 21:26:47.709,294.06,0.0,0.0,0.0,-0.024,0.011,-0.99,52.29,-33.61,-88.74,0.9998,0.0047,0.0126,-0.009600000000000001,0.0,-0.001,-0.009000000000000001
2026-01-05 21:26:47.718,294.065,0.0,0.0,0.0,-0.023,0.007,-0.987,52.29,-33.61,-88.74,0.9998,0.0046,0.0125,-0.009600000000000001,-0.001,0.001,-0.012
2026-01-05 21:26:47.719,294.07,0.0,0.0,0.0,-0.024,0.011,-0.992,52.29,-33.61,-88.74,0.9998,0.0047,0.0125,-0.009600000000000001,0.0,-0.002,-0.006
2026-01-05 21:26:47.719,294.075,0.0,0.0,0.0,-0.024,0.008,-0.989,52.38,-33.64,-88.62,0.9998,0.0047,0.0125,-0.009600000000000001,0.0,0.0,-0.01
2026-01-05 21:26:47.720,294.08,0.0,0.0,-0.001,-0.023,0.008,-0.988,52.38,-33.64,-88.62,0.9998,0.0046,0.0125,-0.009600000000000001,-0.001,0.001,-0.011
2026-01-05 21:26:47.722,294.085,0.0,0.001,0.001,-0.023,0.01,-0.988,52.17,-33.44,-88.89,0.9998,0.0047,0.012400000000000001,-0.009600000000000001,-0.001,-0.001,-0.011
2026-01-05 21:26:47.723,294.09,-0.002,0.002,0.0,-0.024,0.008,-0.986,52.17,-33.44,-88.89,0.9998,0.0046,0.012400000000000001,-0.009600000000000001,0.0,0.001,-0.012
2026-01-05 21:26:47.723,294.095,0.0,0.001,0.0,-0.024,0.007,-0.989,52.17,-33.44,-88.89,0.9998,0.0045000000000000005,0.012400000000000001,-0.009600000000000001,0.0,0.001,-0.01
2026-01-05 21:26:47.723,294.1,0.0,0.0,0.003,-0.023,0.01,-0.99,52.82,-33.52,-88.42,0.9998,0.0046,0.012400000000000001,-0.009600000000000001,-0.001,0.0,-0.008
2026-01-05 21:26:47.724,294.105,0.0,0.001,-0.001,-0.024,0.008,-0.987,52.82,-33.52,-88.42,0.9998,0.0045000000000000005,0.012400000000000001,-0.009600000000000001,0.0,0.0,-0.011
2026-01-05 21:26:47.724,294.11,-0.002,-0.002,-0.001,-0.023,0.007,-0.987,52.49,-33.03,-88.77,0.9998,0.0045000000000000005,0.012400000000000001,-0.009600000000000001,0.0,0.001,-0.012
2026-01-05 21:26:47.724,294.115,0.0,0.0,-0.001,-0.023,0.01,-0.994,52.49,-33.03,-88.77,0.9998,0.0045000000000000005,0.0123,-0.009600000000000001,0.0,0.0,-0.005
2026-01-05 21:26:47.724,294.12,0.0,-0.001,0.0,-0.025,0.008,-0.988,52.58,-33.26,-88.68,0.9998,0.0044,0.012400000000000001,-0.009600000000000001,0.001,0.001,-0.011
2026-01-05 21:26:47.725,294.125,-0.002,0.0,0.0,-0.024,0.01,-0.986,52.58,-33.26,-88.68,0.9998,0.0045000000000000005,0.012400000000000001,-0.009600000000000001,0.0,0.0,-0.013000000000000001
2026-01-05 21:26:47.725,294.13,-0.001,0.001,0.0,-0.025,0.011,-0.99,52.58,-33.26,-88.68,0.9998,0.0046,0.012400000000000001,-0.009600000000000001,0.0,-0.001,-0.008
2026-01-05 21:26:47.725,294.135,0.0,0.004,0.001,-0.024,0.009000000000000001,-0.988,52.870000000000005,-33.52,-88.45,0.9998,0.0046,0.012400000000000001,-0.009600000000000001,0.0,0.0,-0.011
2026-01-05 21:26:47.725,294.14,0.0,0.0,0.0,-0.024,0.01,-0.991,52.870000000000005,-33.52,-88.45,0.9998,0.0047,0.012400000000000001,-0.009600000000000001,0.0,-0.001,-0.008
2026-01-05 21:26:47.726,294.145,0.0,0.003,0.0,-0.024,0.009000000000000001,-0.988,52.96,-33.2,-88.51,0.9998,0.0047,0.012400000000000001,-0.009600000000000001,0.0,0.0,-0.01
2026-01-05 21:26:47.735,294.15,0.0,0.001,0.001,-0.024,0.008,-0.984,52.96,-33.2,-88.51,0.9998,0.0046,0.012400000000000001,-0.009600000000000001,0.0,0.0,-0.015
2026-01-05 21:26:47.735,294.155,0.0,-0.001,0.0,-0.026000000000000002,0.009000000000000001,-0.989,52.96,-33.2,-88.51,0.9998,0.0046,0.0125,-0.009600000000000001,0.001,0.0,-0.01
2026-01-05 21:26:47.735,294.16,0.0,0.0,0.0,-0.025,0.008,-0.988,52.82,-33.03,-87.54,0.9998,0.0046,0.0125,-0.009600000000000001,0.0,0.001,-0.01
2026-01-05 21:26:47.736,294.165,0.0,0.001,0.0,-0.025,0.008,-0.988,52.82,-33.03,-87.54,0.9998,0.0046,0.0125,-0.009600000000000001,0.0,0.0,-0.01
2026-01-05 21:26:47.738,294.17,0.0,0.0,-0.001,-0.025,0.011,-0.989,53.34,-32.94,-88.68,0.9998,0.0046,0.0125,-0.009600000000000001,0.0,-0.001,-0.009000000000000001
2026-01-05 21:26:47.738,294.175,0.0,0.0,0.0,-0.024,0.008,-0.988,53.34,-32.94,-88.68,0.9998,0.0046,0.0125,-0.009600000000000001,0.0,0.0,-0.01
2026-01-05 21:26:47.739,294.18,0.0,0.001,0.0,-0.024,0.009000000000000001,-0.991,52.99,-32.82,-88.51,0.9998,0.0046,0.0125,-0.009600000000000001,0.0,0.0,-0.007
2026-01-05 21:26:47.741,294.185,0.0,0.0,0.003,-0.024,0.011,-0.991,52.99,-32.82,-88.51,0.9998,0.0047,0.0125,-0.009600000000000001,0.0,-0.001,-0.008
2026-01-05 21:26:47.741,294.19,-0.001,0.003,0.0,-0.024,0.008,-0.985,52.99,-32.82,-88.51,0.9998,0.0046,0.0125,-0.009600000000000001,0.0,0.001,-0.013000000000000001
2026-01-05 21:26:47.742,294.195,0.0,0.0,0.0,-0.023,0.01,-0.989,52.52,-32.7,-88.04,0.9998,0.0047,0.012400000000000001,-0.009600000000000001,-0.001,0.0,-0.01
2026-01-05 21:26:47.744,294.2,-0.003,-0.002,0.0,-0.023,0.01,-0.991,52.52,-32.7,-88.04,0.9998,0.0047,0.012400000000000001,-0.009600000000000001,-0.001,-0.001,-0.008
2026-01-05 21:26:47.744,294.205,-0.001,0.0,0.0,-0.023,0.007,-0.988,52.58,-32.7,-88.27,0.9998,0.0046,0.0123,-0.009600000000000001,-0.001,0.002,-0.011
2026-01-05 21:26:47.744,294.21,0.0,-0.001,0.0,-0.023,0.011,-0.987,52.58,-32.7,-88.27,0.9998,0.0047,0.0123,-0.009600000000000001,0.0,-0.001,-0.012
2026-01-05 21:26:47.745,294.215,0.0,0.0,0.0,-0.024,0.008,-0.985,52.58,-32.7,-88.27,0.9998,0.0046,0.0123,-0.009600000000000001,0.0,0.001,-0.013000000000000001
2026-01-05 21:26:47.745,294.22,-0.002,0.0,0.001,-0.025,0.008,-0.99,53.25,-33.14,-87.98,0.9998,0.0046,0.0123,-0.009600000000000001,0.0,0.001,-0.009000000000000001
2026-01-05 21:26:47.745,294.225,-0.002,0.002,0.0,-0.025,0.009000000000000001,-0.991,53.25,-33.14,-87.98,0.9998,0.0046,0.012400000000000001,-0.009600000000000001,0.0,0.0,-0.008
2026-01-05 21:26:47.745,294.23,0.0,0.002,0.0,-0.024,0.008,-0.987,52.76,-32.47,-87.51,0.9998,0.0046,0.012400000000000001,-0.009600000000000001,0.0,0.001,-0.012
2026-01-05 21:26:47.746,294.235,0.0,0.003,0.0,-0.024,0.009000000000000001,-0.986,52.76,-32.47,-87.51,0.9998,0.0046,0.012400000000000001,-0.009600000000000001,0.0,0.0,-0.013000000000000001
2026-01-05 21:26:47.746,294.24,0.0,0.001,0.0,-0.024,0.011,-0.99,52.61,-33.52,-87.78,0.9998,0.0046,0.012400000000000001,-0.009600000000000001,0.0,-0.001,-0.009000000000000001
2026-01-05 21:26:47.746,294.245,0.0,-0.001,0.0,-0.024,0.008,-0.989,52.61,-33.52,-87.78,0.9998,0.0046,0.012400000000000001,-0.009600000000000001,0.0,0.001,-0.009000000000000001
2026-01-05 21:26:47.747,294.25,0.0,-0.002,-0.001,-0.024,0.01,-0.989,52.61,-33.52,-87.78,0.9998,0.0046,0.012400000000000001,-0.009600000000000001,0.0,0.0,-0.009000000000000001
2026-01-05 21:26:47.747,294.255,0.002,0.0,0.0,-0.025,0.01,-0.987,52.82,-33.11,-87.19,0.9998,0.0047,0.012400000000000001,-0.009600000000000001,0.0,0.0,-0.012
2026-01-05 21:26:47.747,294.26,0.0,0.001,0.0,-0.025,0.007,-0.986,52.82,-33.11,-87.19,0.9998,0.0046,0.0125,-0.009600000000000001,0.0,0.001,-0.012
2026-01-05 21:26:47.747,294.265,-0.001,-0.001,0.0,-0.025,0.009000000000000001,-0.989,53.25,-32.94,-88.3,0.9998,0.0046,0.0125,-0.009600000000000001,0.0,0.0,-0.01
2026-01-05 21:26:47.748,294.27,0.0,0.0,0.0,-0.024,0.01,-0.987,53.25,-32.94,-88.3,0.9998,0.0046,0.0125,-0.009600000000000001,0.0,0.0,-0.012
2026-01-05 21:26:47.758,294.275,0.0,-0.003,0.0,-0.023,0.008,-0.988,53.25,-32.94,-88.3,0.9998,0.0046,0.0125,-0.009600000000000001,-0.001,0.0,-0.011
2026-01-05 21:26:47.758,294.28,0.0,-0.001,0.001,-0.026000000000000002,0.009000000000000001,-0.989,53.660000000000004,-32.53,-88.21000000000001,0.9998,0.0046,0.0125,-0.009600000000000001,0.001,0.0,-0.009000000000000001
2026-01-05 21:26:47.758,294.285,0.0,0.0,-0.001,-0.023,0.011,-0.987,53.660000000000004,-32.53,-88.21000000000001,0.9998,0.0047,0.0125,-0.0097,-0.001,-0.001,-0.012
2026-01-05 21:26:47.761,294.29,0.0,0.0,0.0,-0.024,0.008,-0.989,53.28,-33.14,-87.72,0.9998,0.0046,0.0125,-0.0097,0.0,0.001,-0.009000000000000001
2026-01-05 21:26:47.761,294.295,0.001,-0.001,0.0,-0.024,0.011,-0.988,53.28,-33.14,-87.72,0.9998,0.0047,0.0125,-0.0097,0.0,-0.002,-0.01
2026-01-05 21:26:47.761,294.3,0.0,0.001,0.0,-0.024,0.008,-0.986,53.31,-33.11,-87.89,0.9998,0.0047,0.0125,-0.0097,0.0,0.001,-0.013000000000000001
2026-01-05 21:26:47.762,294.305,-0.001,0.006,0.001,-0.025,0.008,-0.988,53.31,-33.11,-87.89,0.9998,0.0046,0.0125,-0.0097,0.0,0.001,-0.01
2026-01-05 21:26:47.762,294.31,0.0,0.0,0.0,-0.024,0.011,-0.99,53.31,-33.11,-87.89,0.9998,0.0047,0.0125,-0.0097,0.0,-0.002,-0.009000000000000001
2026-01-05 21:26:47.762,294.315,0.0,-0.001,0.0,-0.024,0.008,-0.986,52.9,-33.08,-87.75,0.9998,0.0047,0.0125,-0.0097,0.0,0.001,-0.013000000000000001
2026-01-05 21:26:47.762,294.32,0.0,-0.002,0.0,-0.025,0.008,-0.986,52.9,-33.08,-87.75,0.9998,0.0046,0.0125,-0.0097,0.0,0.0,-0.012
2026-01-05 21:26:47.763,294.325,0.001,0.004,0.001,-0.026000000000000002,0.009000000000000001,-0.989,52.9,-32.76,-88.04,0.9998,0.0046,0.0126,-0.0097,0.0,0.0,-0.01
2026-01-05 21:26:47.763,294.33,0.0,0.0,0.0,-0.025,0.006,-0.988,52.9,-32.76,-88.04,0.9998,0.0045000000000000005,0.0126,-0.0097,0.0,0.003,-0.01
2026-01-05 21:26:47.763,294.335,-0.001,-0.003,0.0,-0.026000000000000002,0.01,-0.991,52.9,-32.76,-88.10000000000001,0.9998,0.0046,0.012700000000000001,-0.0097,0.001,-0.001,-0.007
2026-01-05 21:26:47.764,294.34,0.001,-0.001,0.0,-0.024,0.009000000000000001,-0.988,53.17,-33.03,-88.10000000000001,0.9998,0.0046,0.0126,-0.0097,0.0,0.0,-0.011
2026-01-05 21:26:47.764,294.345,-0.001,0.0,-0.001,-0.024,0.007,-0.984,53.17,-33.03,-88.10000000000001,0.9998,0.0045000000000000005,0.0126,-0.0097,0.0,0.001,-0.014
2026-01-05 21:26:47.764,294.35,0.0,0.003,0.0,-0.024,0.009000000000000001,-0.991,54.19,-33.17,-88.33,0.9998,0.0045000000000000005,0.0126,-0.0097,0.0,0.0,-0.007
2026-01-05 21:26:47.764,294.355,0.0,0.002,0.0,-0.024,0.011,-0.988,54.19,-33.17,-88.33,0.9998,0.0046,0.0126,-0.0097,0.0,-0.001,-0.01
2026-01-05 21:26:47.773,294.36,0.0,0.0,0.0,-0.024,0.009000000000000001,-0.989,53.58,-32.76,-88.3,0.9998,0.0046,0.0126,-0.0097,0.0,0.0,-0.01
2026-01-05 21:26:47.773,294.365,0.0,0.0,0.0,-0.024,0.011,-0.989,53.58,-32.76,-88.3,0.9998,0.0047,0.0126,-0.0097,0.0,-0.001,-0.01
2026-01-05 21:26:47.774,294.37,0.001,0.001,-0.001,-0.023,0.008,-0.989,53.58,-32.76,-88.3,0.9998,0.0046,0.0125,-0.0097,-0.001,0.001,-0.009000000000000001
2026-01-05 21:26:47.774,294.375,0.0,0.0,0.001,-0.024,0.01,-0.99,53.660000000000004,-32.65,-88.39,0.9998,0.0046,0.0125,-0.0097,0.0,0.0,-0.009000000000000001
2026-01-05 21:26:47.777,294.38,0.0,0.0,0.001,-0.024,0.011,-0.99,53.660000000000004,-32.65,-88.39,0.9998,0.0047,0.0125,-0.0097,0.0,-0.002,-0.008
2026-01-05 21:26:47.778,294.385,0.0,0.0,-0.001,-0.023,0.007,-0.987,54.01,-32.97,-88.8,0.9998,0.0046,0.0125,-0.0097,0.0,0.002,-0.012
2026-01-05 21:26:47.779,294.39,0.0,0.001,0.0,-0.024,0.009000000000000001,-0.989,54.01,-32.97,-88.8,0.9998,0.0046,0.012400000000000001,-0.0097,0.0,0.0,-0.009000000000000001
2026-01-05 21:26:47.779,294.395,0.001,0.0,0.0,-0.023,0.01,-0.99,52.99,-32.97,-88.89,0.9998,0.0047,0.012400000000000001,-0.0097,-0.001,-0.001,-0.009000000000000001
2026-01-05 21:26:47.781,294.4,-0.001,-0.001,0.0,-0.023,0.008,-0.988,52.99,-33.49,-88.89,0.9998,0.0046,0.012400000000000001,-0.0097,0.0,0.001,-0.01
2026-01-05 21:26:47.781,294.405,0.0,-0.001,0.0,-0.024,0.008,-0.988,52.99,-33.49,-88.89,0.9998,0.0046,0.012400000000000001,-0.0097,0.0,0.0,-0.011
2026-01-05 21:26:47.782,294.41,0.0,0.0,0.001,-0.024,0.009000000000000001,-0.988,53.17,-33.2,-88.86,0.9998,0.0046,0.0123,-0.0097,0.0,0.0,-0.011
2026-01-05 21:26:47.782,294.415,0.0,0.001,0.0,-0.026000000000000002,0.006,-0.989,53.17,-33.2,-88.86,0.9998,0.0045000000000000005,0.012400000000000001,-0.0097,0.001,0.002,-0.01
2026-01-05 21:26:47.785,294.42,0.0,0.0,0.0,-0.024,0.012,-0.989,52.96,-33.03,-88.36,0.9998,0.0047,0.012400000000000001,-0.0097,0.0,-0.003,-0.01
2026-01-05 21:26:47.786,294.425,0.001,-0.001,0.001,-0.024,0.01,-0.988,52.96,-33.03,-88.36,0.9998,0.0047,0.012400000000000001,-0.0097,0.0,0.0,-0.01
2026-01-05 21:26:47.786,294.43,0.002,0.005,0.002,-0.026000000000000002,0.009000000000000001,-0.986,52.96,-33.03,-88.36,0.9998,0.0047,0.0125,-0.0097,0.001,0.0,-0.012
2026-01-05 21:26:47.788,294.435,0.0,0.0,0.0,-0.025,0.01,-0.992,52.11,-33.06,-88.27,0.9998,0.0047,0.0125,-0.0097,0.0,-0.001,-0.007
2026-01-05 21:26:47.789,294.44,0.002,0.0,0.0,-0.024,0.007,-0.988,52.11,-33.06,-88.27,0.9998,0.0047,0.0125,-0.0097,0.0,0.001,-0.01
2026-01-05 21:26:47.789,294.445,-0.002,-0.002,0.0,-0.024,0.009000000000000001,-0.988,52.96,-33.49,-87.78,0.9998,0.0046,0.0125,-0.0097,0.0,0.0,-0.011
2026-01-05 21:26:47.789,294.45,0.0,0.001,0.0,-0.023,0.01,-0.986,52.96,-33.49,-87.78,0.9998,0.0047,0.012400000000000001,-0.0097,-0.001,0.0,-0.013000000000000001
2026-01-05 21:26:47.790,294.455,0.0,0.001,0.0,-0.024,0.006,-0.988,53.370000000000005,-32.85,-87.81,0.9998,0.0045000000000000005,0.012400000000000001,-0.0097,0.0,0.002,-0.01
2026-01-05 21:26:47.790,294.46,-0.001,0.0,0.0,-0.024,0.009000000000000001,-0.991,53.370000000000005,-32.85,-87.81,0.9998,0.0046,0.012400000000000001,-0.0097,0.0,0.0,-0.007
2026-01-05 21:26:47.790,294.465,-0.001,0.0,-0.001,-0.025,0.009000000000000001,-0.989,53.370000000000005,-32.85,-87.81,0.9998,0.0046,0.0125,-0.0097,0.0,0.0,-0.01
2026-01-05 21:26:47.791,294.47,0.002,0.0,-0.001,-0.024,0.007,-0.986,53.84,-33.0,-87.98,0.9998,0.0045000000000000005,0.012400000000000001,-0.0097,0.0,0.001,-0.012
2026-01-05 21:26:47.791,294.475,0.001,0.0,0.0,-0.024,0.01,-0.988,53.84,-33.0,-87.98,0.9998,0.0046,0.012400000000000001,-0.0097,0.0,-0.001,-0.011
2026-01-05 21:26:47.791,294.48,0.0,0.0,0.0,-0.025,0.009000000000000001,-0.99,53.4,-33.06,-88.27,0.9998,0.0046,0.0125,-0.0097,0.0,0.0,-0.008
2026-01-05 21:26:47.791,294.485,0.0,0.001,0.0,-0.026000000000000002,0.009000000000000001,-0.99,53.4,-33.06,-88.27,0.9998,0.0046,0.0125,-0.0097,0.001,0.0,-0.009000000000000001
2026-01-05 21:26:47.799,294.49,0.0,0.0,0.001,-0.024,0.011,-0.989,53.4,-33.06,-88.27,0.9998,0.0047,0.0125,-0.0097,0.0,-0.001,-0.009000000000000001
2026-01-05 21:26:47.799,294.495,0.0,0.001,0.0,-0.025,0.009000000000000001,-0.985,53.230000000000004,-33.08,-87.89,0.9998,0.0047,0.0126,-0.0097,0.0,0.0,-0.014
2026-01-05 21:26:47.799,294.5,-0.002,0.0,0.0,-0.024,0.011,-0.988,53.230000000000004,-33.08,-87.89,0.9998,0.0047,0.0126,-0.0097,0.0,-0.001,-0.011
2026-01-05 21:26:47.799,294.505,0.0,0.0,0.0,-0.024,0.012,-0.99,53.52,-33.17,-87.78,0.9998,0.0048000000000000004,0.0125,-0.0097,0.0,-0.002,-0.008
2026-01-05 21:26:47.802,294.51,0.0,0.0,0.0,-0.023,0.009000000000000001,-0.987,53.52,-33.17,-87.78,0.9998,0.0048000000000000004,0.0125,-0.0097,-0.001,0.0,-0.012
2026-01-05 21:26:47.803,294.515,0.0,0.0,0.0,-0.025,0.009000000000000001,-0.988,53.14,-33.17,-87.48,0.9998,0.0048000000000000004,0.0125,-0.0097,0.0,0.0,-0.01
2026-01-05 21:26:47.804,294.52,0.0,0.0,0.0,-0.025,0.009000000000000001,-0.988,53.14,-33.17,-87.48,0.9998,0.0048000000000000004,0.0126,-0.0097,0.0,0.0,-0.011
2026-01-05 21:26:47.804,294.525,0.001,0.0,0.0,-0.025,0.007,-0.988,53.14,-33.17,-87.48,0.9998,0.0047,0.0126,-0.0097,0.0,0.001,-0.011
2026-01-05 21:26:47.804,294.53,0.001,0.0,0.0,-0.024,0.011,-0.988,53.17,-33.230000000000004,-87.81,0.9998,0.0048000000000000004,0.0125,-0.0097,0.0,-0.001,-0.011
2026-01-05 21:26:47.805,294.535,0.0,0.002,0.001,-0.024,0.01,-0.987,53.17,-33.230000000000004,-87.81,0.9998,0.0048000000000000004,0.0125,-0.0097,0.0,0.0,-0.012
2026-01-05 21:26:47.805,294.54,0.0,-0.001,0.0,-0.024,0.008,-0.988,53.46,-33.0,-87.60000000000001,0.9998,0.0048000000000000004,0.0125,-0.0097,0.0,0.001,-0.011
2026-01-05 21:26:47.809,294.545,0.0,0.001,0.0,-0.023,0.01,-0.991,53.46,-33.0,-87.60000000000001,0.9998,0.0048000000000000004,0.012400000000000001,-0.0097,-0.001,0.0,-0.008
2026-01-05 21:26:47.809,294.55,0.002,-0.001,0.0,-0.024,0.009000000000000001,-0.989,53.46,-33.0,-87.60000000000001,0.9998,0.0048000000000000004,0.012400000000000001,-0.0097,0.0,0.0,-0.01
2026-01-05 21:26:47.812,294.555,0.001,0.001,0.0,-0.024,0.007,-0.985,53.660000000000004,-32.85,-88.27,0.9998,0.0047,0.012400000000000001,-0.0097,0.0,0.002,-0.014
2026-01-05 21:26:47.812,294.56,0.0,0.001,-0.001,-0.025,0.011,-0.988,53.660000000000004,-32.85,-88.27,0.9998,0.0048000000000000004,0.0125,-0.0097,0.001,-0.001,-0.01
2026-01-05 21:26:47.812,294.565,0.0,0.003,0.0,-0.023,0.008,-0.989,53.58,-33.06,-88.24,0.9998,0.0047,0.012400000000000001,-0.0097,-0.001,0.001,-0.01
2026-01-05 21:26:47.815,294.57,0.0,0.001,0.001,-0.024,0.011,-0.989,53.58,-33.06,-88.24,0.9998,0.0048000000000000004,0.012400000000000001,-0.0097,0.0,-0.001,-0.01
2026-01-05 21:26:47.815,294.575,0.003,0.001,0.001,-0.025,0.009000000000000001,-0.99,53.4,-32.88,-88.19,0.9998,0.0047,0.012400000000000001,-0.0097,0.0,0.0,-0.009000000000000001
2026-01-05 21:26:47.815,294.58,0.001,-0.001,0.001,-0.025,0.006,-0.985,53.4,-32.88,-88.19,0.9998,0.0046,0.0125,-0.0097,0.0,0.003,-0.014
2026-01-05 21:26:47.815,294.585,0.0,0.003,0.0,-0.025,0.009000000000000001,-0.988,53.4,-32.88,-88.19,0.9998,0.0046,0.0125,-0.0097,0.0,0.0,-0.01
2026-01-05 21:26:47.815,294.59,0.0,0.004,0.0,-0.025,0.011,-0.989,52.9,-33.06,-88.21000000000001,0.9998,0.0047,0.0125,-0.0097,0.0,-0.001,-0.009000000000000001
2026-01-05 21:26:47.818,294.595,0.0,0.0,0.0,-0.025,0.008,-0.988,52.9,-33.06,-88.21000000000001,0.9998,0.0046,0.0126,-0.0097,0.0,0.0,-0.011
2026-01-05 21:26:47.819,294.6,0.0,0.0,0.0,-0.024,0.009000000000000001,-0.989,53.230000000000004,-33.49,-88.19,0.9998,0.0046,0.0125,-0.0097,0.0,0.0,-0.01
2026-01-05 21:26:47.819,294.605,0.0,0.001,0.0,-0.025,0.009000000000000001,-0.987,53.230000000000004,-33.49,-88.19,0.9998,0.0046,0.0125,-0.0097,0.0,0.0,-0.012
2026-01-05 21:26:47.819,294.61,-0.001,-0.001,0.0,-0.024,0.007,-0.988,53.230000000000004,-33.49,-88.19,0.9998,0.0045000000000000005,0.0125,-0.0097,0.0,0.002,-0.01
2026-01-05 21:26:47.822,294.615,-0.002,0.0,0.0,-0.025,0.011,-0.99,53.34,-32.94,-87.86,0.9998,0.0046,0.0125,-0.0097,0.0,-0.002,-0.009000000000000001
2026-01-05 21:26:47.823,294.62,0.0,-0.001,0.0,-0.023,0.007,-0.988,53.34,-32.94,-87.86,0.9998,0.0046,0.0125,-0.0097,-0.001,0.001,-0.011
2026-01-05 21:26:47.823,294.625,-0.001,0.001,0.0,-0.023,0.007,-0.987,53.49,-33.17,-87.98,0.9998,0.0045000000000000005,0.0125,-0.0097,0.0,0.001,-0.012
2026-01-05 21:26:47.823,294.63,0.0,0.003,0.001,-0.025,0.01,-0.99,53.49,-33.17,-87.98,0.9998,0.0045000000000000005,0.0125,-0.0097,0.0,0.0,-0.008
2026-01-05 21:26:47.823,294.635,0.0,-0.001,0.0,-0.023,0.008,-0.985,53.25,-33.06,-88.13,0.9998,0.0045000000000000005,0.012400000000000001,-0.0097,-0.001,0.001,-0.013000000000000001
2026-01-05 21:26:47.824,294.64,0.001,-0.001,0.0,-0.026000000000000002,0.01,-0.986,53.25,-33.06,-88.13,0.9998,0.0045000000000000005,0.0125,-0.0097,0.001,0.0,-0.012
2026-01-05 21:26:47.824,294.645,0.0,0.001,0.001,-0.025,0.01,-0.989,53.25,-33.06,-88.13,0.9998,0.0046,0.0125,-0.0097,0.0,-0.001,-0.009000000000000001
2026-01-05 21:26:47.824,294.65,0.0,0.0,0.0,-0.026000000000000002,0.009000000000000001,-0.989,53.46,-33.230000000000004,-88.71000000000001,0.9998,0.0046,0.0126,-0.0097,0.0,0.0,-0.01
2026-01-05 21:26:47.830,294.655,0.001,0.0,0.0,-0.023,0.01,-0.99,53.46,-33.230000000000004,-88.71000000000001,0.9998,0.0047,0.0125,-0.0097,-0.001,-0.001,-0.009000000000000001
2026-01-05 21:26:47.830,294.66,0.0,-0.001,-0.001,-0.024,0.008,-0.988,53.370000000000005,-32.88,-88.42,0.9998,0.0046,0.0125,-0.0097,0.0,0.0,-0.011
2026-01-05 21:26:47.830,294.665,0.0,0.0,0.0,-0.024,0.007,-0.985,53.370000000000005,-32.88,-88.42,0.9998,0.0045000000000000005,0.0125,-0.0097,0.0,0.001,-0.013000000000000001
2026-01-05 21:26:47.831,294.67,0.0,0.0,0.0,-0.024,0.011,-0.988,53.370000000000005,-32.88,-88.42,0.9998,0.0046,0.0125,-0.0097,0.0,-0.001,-0.011
2026-01-05 21:26:47.831,294.675,0.0,-0.002,0.001,-0.024,0.008,-0.987,52.79,-33.08,-88.86,0.9998,0.0046,0.0125,-0.0097,0.0,0.001,-0.011
2026-01-05 21:26:47.834,294.68,0.001,0.0,-0.001,-0.025,0.008,-0.99,52.79,-33.08,-88.86,0.9998,0.0046,0.0125,-0.0097,0.0,0.0,-0.008
2026-01-05 21:26:47.835,294.685,0.0,0.0,0.0,-0.024,0.012,-0.987,53.11,-32.62,-88.13,0.9998,0.0047,0.0125,-0.0097,0.0,-0.002,-0.012
2026-01-05 21:26:47.835,294.69,0.0,0.004,0.0,-0.024,0.007,-0.988,53.11,-32.62,-88.13,0.9998,0.0046,0.0125,-0.0097,0.0,0.001,-0.01
2026-01-05 21:26:47.835,294.695,0.0,0.003,0.001,-0.024,0.01,-0.987,52.93,-33.58,-88.8,0.9998,0.0047,0.0125,-0.0097,0.0,-0.001,-0.012
2026-01-05 21:26:47.835,294.7,0.001,0.001,0.001,-0.023,0.009000000000000001,-0.99,52.93,-33.58,-88.8,0.9998,0.0047,0.012400000000000001,-0.0097,-0.001,0.0,-0.009000000000000001
2026-01-05 21:26:47.838,294.705,0.001,0.0,0.001,-0.025,0.008,-0.987,52.93,-33.58,-88.8,0.9998,0.0046,0.012400000000000001,-0.0097,0.0,0.001,-0.012
2026-01-05 21:26:47.838,294.71,0.0,0.001,0.0,-0.024,0.009000000000000001,-0.989,53.370000000000005,-32.97,-88.74,0.9998,0.0046,0.0125,-0.0097,0.0,0.0,-0.009000000000000001
2026-01-05 21:26:47.838,294.715,0.0,0.001,0.0,-0.023,0.009000000000000001,-0.99,53.370000000000005,-32.97,-88.74,0.9998,0.0046,0.012400000000000001,-0.0097,0.0,0.0,-0.009000000000000001
2026-01-05 21:26:47.839,294.72,0.0,-0.001,0.001,-0.024,0.008,-0.986,53.2,-32.85,-88.19,0.9998,0.0046,0.012400000000000001,-0.0097,0.0,0.001,-0.013000000000000001
2026-01-05 21:26:47.843,294.725,0.0,0.0,0.001,-0.024,0.01,-0.989,53.2,-32.85,-88.19,0.9998,0.0046,0.012400000000000001,-0.0097,0.0,-0.001,-0.01
2026-01-05 21:26:47.843,294.73,-0.001,0.002,0.0,-0.025,0.009000000000000001,-0.988,53.2,-32.85,-88.19,0.9998,0.0046,0.012400000000000001,-0.0097,0.0,0.0,-0.011
2026-01-05 21:26:47.843,294.735,-0.001,0.0,0.0,-0.026000000000000002,0.009000000000000001,-0.988,53.14,-33.26,-88.24,0.9998,0.0046,0.0125,-0.0097,0.001,0.0,-0.011
2026-01-05 21:26:47.845,294.74,0.0,0.0,0.0,-0.024,0.01,-0.989,53.14,-33.26,-88.24,0.9998,0.0047,0.0125,-0.0097,0.0,0.0,-0.01
2026-01-05 21:26:47.845,294.745,0.0,0.001,-0.001,-0.024,0.008,-0.984,53.31,-33.49,-88.13,0.9998,0.0046,0.0125,-0.0097,0.0,0.001,-0.014
2026-01-05 21:26:47.845,294.75,-0.001,0.0,0.0,-0.025,0.008,-0.985,53.31,-33.49,-88.13,0.9998,0.0046,0.0125,-0.0097,0.0,0.001,-0.013000000000000001
2026-01-05 21:26:47.846,294.755,-0.001,0.002,0.0,-0.025,0.01,-0.993,53.78,-33.08,-88.10000000000001,0.9998,0.0046,0.0125,-0.0097,0.0,0.0,-0.005
2026-01-05 21:26:47.846,294.76,0.003,0.003,0.0,-0.023,0.008,-0.988,53.78,-33.08,-88.10000000000001,0.9998,0.0045000000000000005,0.0125,-0.0097,-0.001,0.001,-0.011
2026-01-05 21:26:47.846,294.765,0.0,-0.001,0.002,-0.025,0.011,-0.988,53.78,-33.08,-88.10000000000001,0.9998,0.0046,0.0125,-0.0097,0.0,-0.002,-0.01
2026-01-05 21:26:47.846,294.77,0.0,0.0,-0.001,-0.027,0.008,-0.986,52.93,-32.88,-88.16,0.9998,0.0046,0.0126,-0.0097,0.001,0.0,-0.013000000000000001
2026-01-05 21:26:47.851,294.775,0.0,0.001,0.001,-0.023,0.009000000000000001,-0.986,52.93,-32.88,-88.16,0.9998,0.0046,0.0126,-0.0097,-0.001,0.0,-0.012
2026-01-05 21:26:47.851,294.78,0.0,0.0,0.0,-0.025,0.011,-0.99,53.31,-33.35,-88.3,0.9998,0.0047,0.0126,-0.0097,0.0,-0.001,-0.009000000000000001
2026-01-05 21:26:47.852,294.785,0.0,0.0,-0.001,-0.024,0.009000000000000001,-0.988,53.31,-33.35,-88.3,0.9998,0.0047,0.0126,-0.0097,0.0,0.0,-0.011
2026-01-05 21:26:47.852,294.79,0.0,-0.003,-0.001,-0.023,0.009000000000000001,-0.987,53.31,-33.35,-88.3,0.9998,0.0047,0.0125,-0.0097,-0.001,0.0,-0.011
2026-01-05 21:26:47.852,294.795,0.0,0.0,0.001,-0.025,0.01,-0.988,53.370000000000005,-33.55,-88.07000000000001,0.9998,0.0047,0.0126,-0.0097,0.0,-0.001,-0.01
2026-01-05 21:26:47.852,294.8,0.0,0.001,0.0,-0.023,0.009000000000000001,-0.987,53.370000000000005,-33.55,-88.07000000000001,0.9998,0.0047,0.0125,-0.0097,-0.001,0.0,-0.012
2026-01-05 21:26:47.853,294.805,-0.001,0.0,-0.001,-0.025,0.007,-0.99,53.870000000000005,-32.68,-88.01,0.9998,0.0046,0.0125,-0.0097,0.0,0.001,-0.008
2026-01-05 21:26:47.858,294.81,0.0,0.0,-0.001,-0.024,0.011,-0.99,53.870000000000005,-32.68,-88.01,0.9998,0.0047,0.0125,-0.0097,0.0,-0.001,-0.008
2026-01-05 21:26:47.859,294.815,0.0,0.002,0.0,-0.024,0.007,-0.986,53.14,-33.14,-87.86,0.9998,0.0046,0.0125,-0.0097,0.0,0.002,-0.012
2026-01-05 21:26:47.860,294.82,0.0,0.0,0.001,-0.024,0.008,-0.989,53.14,-33.14,-87.86,0.9998,0.0046,0.0125,-0.0097,0.0,0.0,-0.01
2026-01-05 21:26:47.860,294.825,0.0,0.0,0.0,-0.025,0.011,-0.991,53.14,-33.14,-87.86,0.9998,0.0046,0.0125,-0.0097,0.0,-0.001,-0.008
2026-01-05 21:26:47.862,294.83,0.001,0.001,0.0,-0.024,0.008,-0.986,53.31,-33.49,-88.01,0.9998,0.0046,0.0125,-0.0097,0.0,0.0,-0.012
2026-01-05 21:26:47.862,294.835,0.0,-0.001,0.0,-0.025,0.011,-0.987,53.31,-33.49,-88.01,0.9998,0.0047,0.0125,-0.0097,0.0,-0.001,-0.011
2026-01-05 21:26:47.863,294.84,0.0,0.0,0.0,-0.025,0.009000000000000001,-0.987,53.72,-32.910000000000004,-87.43,0.9998,0.0047,0.0126,-0.0097,0.0,0.0,-0.011
2026-01-05 21:26:47.863,294.845,0.0,-0.001,0.0,-0.024,0.007,-0.988,53.72,-32.910000000000004,-87.43,0.9998,0.0046,0.0125,-0.0097,-0.001,0.001,-0.011
2026-01-05 21:26:47.863,294.85,0.0,0.001,0.0,-0.026000000000000002,0.01,-0.992,53.72,-32.910000000000004,-87.43,0.9998,0.0047,0.0126,-0.0097,0.001,-0.001,-0.007
2026-01-05 21:26:47.863,294.855,0.0,-0.003,0.0,-0.024,0.008,-0.986,53.28,-32.59,-87.78,0.9998,0.0046,0.0126,-0.0097,0.0,0.001,-0.013000000000000001
2026-01-05 21:26:47.864,294.86,-0.001,-0.001,-0.001,-0.024,0.008,-0.987,53.28,-32.59,-87.78,0.9998,0.0046,0.0126,-0.0097,0.0,0.0,-0.011
2026-01-05 21:26:47.868,294.865,0.0,0.0,0.0,-0.024,0.011,-0.992,54.13,-33.08,-87.92,0.9998,0.0047,0.0126,-0.0097,0.0,-0.001,-0.007
2026-01-05 21:26:47.869,294.87,0.0,0.001,0.0,-0.024,0.009000000000000001,-0.99,54.13,-33.08,-87.92,0.9998,0.0046,0.0126,-0.0097,0.0,0.0,-0.009000000000000001
2026-01-05 21:26:47.869,294.875,0.0,-0.002,0.001,-0.025,0.008,-0.986,54.07,-33.49,-88.27,0.9998,0.0046,0.0126,-0.0097,0.0,0.001,-0.013000000000000001
2026-01-05 21:26:47.869,294.88,0.0,0.003,0.001,-0.025,0.009000000000000001,-0.988,54.07,-33.49,-88.27,0.9998,0.0046,0.0126,-0.0097,0.0,0.0,-0.01
2026-01-05 21:26:47.869,294.885,0.001,0.001,0.001,-0.024,0.007,-0.989,54.07,-33.49,-88.27,0.9998,0.0045000000000000005,0.0126,-0.0097,0.0,0.001,-0.01
2026-01-05 21:26:47.870,294.89,0.0,0.002,0.001,-0.023,0.009000000000000001,-0.989,54.13,-32.94,-89.06,0.9998,0.0045000000000000005,0.0126,-0.0097,-0.001,0.0,-0.009000000000000001
2026-01-05 21:26:47.870,294.895,0.001,-0.003,0.001,-0.023,0.01,-0.992,54.13,-32.94,-89.06,0.9998,0.0046,0.0125,-0.0097,-0.001,-0.001,-0.007
2026-01-05 21:26:47.870,294.9,0.001,0.004,0.001,-0.023,0.007,-0.987,53.28,-33.06,-88.36,0.9998,0.0045000000000000005,0.012400000000000001,-0.0097,-0.001,0.001,-0.012
2026-01-05 21:26:47.871,294.905,0.0,0.001,0.0,-0.024,0.009000000000000001,-0.989,53.28,-33.06,-88.36,0.9998,0.0045000000000000005,0.012400000000000001,-0.0097,0.0,0.0,-0.009000000000000001
2026-01-05 21:26:47.871,294.91,-0.001,0.001,0.0,-0.024,0.01,-0.988,53.28,-33.06,-88.36,0.9998,0.0046,0.012400000000000001,-0.0097,0.0,0.0,-0.011
2026-01-05 21:26:47.871,294.915,0.0,-0.002,0.001,-0.024,0.008,-0.988,54.04,-33.29,-88.51,0.9998,0.0045000000000000005,0.012400000000000001,-0.0097,0.0,0.001,-0.011
2026-01-05 21:26:47.871,294.92,0.0,0.0,0.0,-0.025,0.009000000000000001,-0.988,54.04,-33.29,-88.51,0.9998,0.0045000000000000005,0.0125,-0.0097,0.0,0.0,-0.011
2026-01-05 21:26:47.872,294.925,0.002,0.0,0.001,-0.023,0.007,-0.988,53.49,-33.58,-88.13,0.9998,0.0044,0.012400000000000001,-0.0097,-0.001,0.001,-0.01
2026-01-05 21:26:47.881,294.93,0.0,0.003,0.001,-0.025,0.007,-0.987,53.49,-33.58,-88.13,0.9998,0.0044,0.012400000000000001,-0.0097,0.0,0.001,-0.011
2026-01-05 21:26:47.881,294.935,0.0,0.004,0.001,-0.024,0.011,-0.988,53.34,-33.08,-88.42,0.9998,0.0045000000000000005,0.012400000000000001,-0.0097,0.0,-0.002,-0.011
2026-01-05 21:26:47.883,294.94,0.001,0.0,0.001,-0.024,0.008,-0.987,53.34,-33.08,-88.42,0.9998,0.0045000000000000005,0.012400000000000001,-0.0097,0.0,0.001,-0.011
2026-01-05 21:26:47.883,294.945,0.0,0.0,0.001,-0.025,0.009000000000000001,-0.989,53.34,-33.08,-88.42,0.9998,0.0045000000000000005,0.012400000000000001,-0.0097,0.0,0.0,-0.01
2026-01-05 21:26:47.884,294.95,0.0,0.0,0.0,-0.025,0.01,-0.99,53.4,-33.29,-88.04,0.9998,0.0046,0.0125,-0.0097,0.0,-0.001,-0.008
2026-01-05 21:26:47.884,294.955,0.0,0.003,0.0,-0.024,0.009000000000000001,-0.989,53.4,-33.29,-88.04,0.9998,0.0046,0.0125,-0.0097,0.0,0.0,-0.01
2026-01-05 21:26:47.884,294.96,-0.001,-0.002,0.0,-0.024,0.009000000000000001,-0.986,54.1,-33.79,-88.48,0.9998,0.0046,0.0125,-0.0097,0.0,0.0,-0.013000000000000001
2026-01-05 21:26:47.884,294.965,0.0,0.0,0.001,-0.024,0.009000000000000001,-0.986,54.1,-33.79,-88.48,0.9998,0.0046,0.012400000000000001,-0.0097,0.0,0.0,-0.013000000000000001
2026-01-05 21:26:47.885,294.97,0.0,0.0,0.001,-0.023,0.007,-0.991,54.1,-33.79,-88.48,0.9998,0.0045000000000000005,0.012400000000000001,-0.0097,-0.001,0.001,-0.007
2026-01-05 21:26:47.885,294.975,-0.002,-0.001,0.0,-0.024,0.009000000000000001,-0.991,53.25,-33.17,-88.21000000000001,0.9998,0.0045000000000000005,0.012400000000000001,-0.0097,0.0,0.0,-0.007
2026-01-05 21:26:47.885,294.98,0.0,-0.003,0.0,-0.024,0.01,-0.988,53.25,-33.17,-88.21000000000001,0.9998,0.0046,0.012400000000000001,-0.0097,0.0,0.0,-0.011
2026-01-05 21:26:47.885,294.985,0.0,0.004,0.0,-0.025,0.008,-0.985,53.61,-33.38,-88.21000000000001,0.9998,0.0046,0.012400000000000001,-0.0097,0.0,0.0,-0.014
2026-01-05 21:26:47.886,294.99,0.0,0.0,0.0,-0.025,0.01,-0.991,53.61,-33.38,-88.21000000000001,0.9998,0.0046,0.0125,-0.0097,0.0,-0.001,-0.008
2026-01-05 21:26:47.886,294.995,0.0,-0.001,-0.001,-0.024,0.008,-0.989,53.58,-33.52,-88.24,0.9998,0.0046,0.0125,-0.0097,0.0,0.001,-0.01
2026-01-05 21:26:47.894,295.0,0.0,-0.003,0.0,-0.025,0.009000000000000001,-0.99,53.58,-33.52,-88.24,0.9998,0.0046,0.0125,-0.0097,0.0,0.0,-0.009000000000000001
2026-01-05 21:26:47.896,295.005,0.0,0.001,0.0,-0.023,0.012,-0.988,53.58,-33.52,-88.24,0.9998,0.0047,0.0125,-0.0097,-0.001,-0.002,-0.011
2026-01-05 21:26:47.896,295.01,0.001,-0.003,-0.001,-0.025,0.008,-0.984,53.72,-33.93,-87.81,0.9998,0.0047,0.0125,-0.0097,0.0,0.0,-0.014
2026-01-05 21:26:47.896,295.015,-0.002,0.003,0.0,-0.024,0.009000000000000001,-0.991,53.72,-33.93,-87.81,0.9998,0.0047,0.0125,-0.0097,0.0,0.0,-0.008
2026-01-05 21:26:47.896,295.02,0.001,0.004,0.0,-0.025,0.011,-0.99,53.9,-33.29,-87.92,0.9998,0.0048000000000000004,0.0125,-0.0097,0.0,-0.001,-0.009000000000000001
2026-01-05 21:26:47.897,295.025,0.0,0.0,0.0,-0.025,0.008,-0.987,53.9,-33.29,-87.92,0.9998,0.0047,0.0125,-0.0097,0.0,0.001,-0.012
2026-01-05 21:26:47.897,295.03,0.0,0.0,0.001,-0.023,0.009000000000000001,-0.989,53.9,-33.29,-87.92,0.9998,0.0047,0.0125,-0.0097,-0.001,0.0,-0.01
2026-01-05 21:26:47.897,295.035,0.001,0.001,0.0,-0.023,0.009000000000000001,-0.989,53.02,-33.79,-87.51,0.9998,0.0047,0.012400000000000001,-0.0097,0.0,0.0,-0.009000000000000001
2026-01-05 21:26:47.898,295.04,0.0,-0.003,0.0,-0.024,0.008,-0.987,53.02,-33.79,-87.51,0.9998,0.0046,0.0125,-0.0097,0.0,0.001,-0.011
2026-01-05 21:26:47.898,295.045,0.0,-0.001,0.0,-0.025,0.011,-0.988,53.61,-33.35,-88.3,0.9998,0.0047,0.0125,-0.0097,0.0,-0.001,-0.01
2026-01-05 21:26:47.898,295.05,0.0,0.001,0.001,-0.025,0.009000000000000001,-0.985,53.61,-33.35,-88.3,0.9998,0.0047,0.0125,-0.0097,0.0,0.0,-0.014
2026-01-05 21:26:47.907,295.055,0.0,0.0,0.0,-0.025,0.008,-0.987,53.31,-33.67,-87.69,0.9998,0.0046,0.0125,-0.0097,0.0,0.001,-0.012
2026-01-05 21:26:47.908,295.06,0.0,-0.001,0.0,-0.025,0.01,-0.991,53.31,-33.67,-87.69,0.9998,0.0046,0.0126,-0.0097,0.0,0.0,-0.008
2026-01-05 21:26:47.910,295.065,-0.001,-0.002,0.0,-0.024,0.008,-0.989,53.31,-33.67,-87.69,0.9998,0.0046,0.0126,-0.0097,0.0,0.001,-0.009000000000000001
2026-01-05 21:26:47.910,295.07,0.0,-0.003,0.0,-0.024,0.009000000000000001,-0.986,53.08,-33.410000000000004,-87.86,0.9998,0.0046,0.0125,-0.0097,0.0,0.0,-0.012
2026-01-05 21:26:47.911,295.075,0.002,0.003,0.0,-0.023,0.011,-0.989,53.08,-33.410000000000004,-87.86,0.9998,0.0047,0.0125,-0.0097,-0.001,-0.001,-0.009000000000000001
2026-01-05 21:26:47.911,295.08,0.0,-0.001,0.0,-0.025,0.007,-0.989,53.58,-32.97,-88.04,0.9998,0.0046,0.0125,-0.0097,0.0,0.001,-0.01
2026-01-05 21:26:47.912,295.085,0.0,0.003,0.0,-0.023,0.009000000000000001,-0.989,53.58,-32.97,-88.04,0.9998,0.0046,0.012400000000000001,-0.0097,-0.001,0.0,-0.009000000000000001
2026-01-05 21:26:47.912,295.09,0.0,-0.002,0.001,-0.025,0.01,-0.987,53.58,-32.97,-88.04,0.9998,0.0046,0.0125,-0.0097,0.0,0.0,-0.012
2026-01-05 21:26:47.912,295.095,0.0,0.0,0.001,-0.026000000000000002,0.007,-0.985,54.370000000000005,-33.49,-87.83,0.9998,0.0046,0.0125,-0.0097,0.001,0.001,-0.014
2026-01-05 21:26:47.912,295.1,0.0,0.0,0.0,-0.024,0.01,-0.992,54.370000000000005,-33.49,-87.83,0.9998,0.0046,0.0125,-0.0097,0.0,-0.001,-0.007
2026-01-05 21:26:47.913,295.105,0.0,0.001,0.0,-0.025,0.008,-0.988,53.31,-32.730000000000004,-88.39,0.9998,0.0046,0.0126,-0.0097,0.0,0.001,-0.01
2026-01-05 21:26:47.913,295.11,0.002,0.0,0.0,-0.024,0.008,-0.988,53.31,-32.730000000000004,-88.39,0.9998,0.0045000000000000005,0.0126,-0.0097,0.0,0.0,-0.011
2026-01-05 21:26:47.913,295.115,0.0,0.0,0.0,-0.024,0.011,-0.985,52.93,-33.49,-88.89,0.9998,0.0046,0.0126,-0.0097,0.0,-0.001,-0.014
2026-01-05 21:26:47.914,295.12,0.0,-0.003,0.0,-0.025,0.009000000000000001,-0.987,52.93,-33.49,-88.89,0.9998,0.0046,0.0126,-0.0097,0.0,0.0,-0.012
2026-01-05 21:26:47.914,295.125,-0.001,0.001,0.001,-0.025,0.01,-0.987,52.93,-33.49,-88.89,0.9998,0.0046,0.0126,-0.0097,0.0,0.0,-0.012
2026-01-05 21:26:47.924,295.13,0.0,0.0,0.0,-0.025,0.011,-0.989,54.45,-33.14,-87.95,0.9998,0.0047,0.0126,-0.0097,0.0,-0.002,-0.01
2026-01-05 21:26:47.925,295.135,0.001,0.001,0.001,-0.025,0.008,-0.985,54.45,-33.14,-87.95,0.9998,0.0047,0.0126,-0.0097,0.0,0.001,-0.014
2026-01-05 21:26:47.926,295.14,0.0,0.0,0.0,-0.023,0.008,-0.987,52.9,-33.46,-88.36,0.9998,0.0046,0.0126,-0.0097,-0.001,0.001,-0.011
2026-01-05 21:26:47.927,295.145,0.0,-0.002,0.001,-0.023,0.01,-0.988,52.9,-33.46,-88.36,0.9998,0.0047,0.0125,-0.0097,-0.001,0.0,-0.011
2026-01-05 21:26:47.927,295.15,0.0,-0.001,-0.001,-0.023,0.007,-0.988,52.9,-33.46,-88.36,0.9998,0.0046,0.012400000000000001,-0.0097,-0.001,0.001,-0.01
2026-01-05 21:26:47.928,295.155,0.002,0.0,0.0,-0.025,0.01,-0.988,53.02,-33.11,-88.65,0.9998,0.0046,0.0125,-0.0097,0.0,0.0,-0.011
2026-01-05 21:26:47.928,295.16,0.002,-0.001,-0.001,-0.026000000000000002,0.008,-0.989,53.02,-33.11,-88.65,0.9998,0.0046,0.0125,-0.0097,0.0,0.0,-0.009000000000000001
2026-01-05 21:26:47.928,295.165,-0.002,-0.001,0.0,-0.024,0.006,-0.988,52.79,-32.85,-88.13,0.9998,0.0045000000000000005,0.0126,-0.0097,0.0,0.002,-0.01
2026-01-05 21:26:47.929,295.17,0.0,0.004,0.0,-0.025,0.011,-0.988,52.79,-32.85,-88.13,0.9998,0.0046,0.0126,-0.0097,0.0,-0.002,-0.011
2026-01-05 21:26:47.929,295.175,0.0,0.0,0.001,-0.025,0.007,-0.988,53.08,-33.08,-88.77,0.9998,0.0045000000000000005,0.0126,-0.0097,0.0,0.001,-0.011
2026-01-05 21:26:47.930,295.18,0.002,0.001,0.0,-0.024,0.009000000000000001,-0.988,53.08,-33.08,-88.77,0.9998,0.0045000000000000005,0.0126,-0.0097,0.0,0.0,-0.011
2026-01-05 21:26:47.930,295.185,0.0,0.0,0.0,-0.025,0.009000000000000001,-0.99,53.08,-33.08,-88.77,0.9998,0.0045000000000000005,0.0126,-0.0097,0.0,0.0,-0.008
2026-01-05 21:26:47.930,295.19,0.001,0.0,0.0,-0.025,0.008,-0.988,53.46,-33.14,-88.45,0.9998,0.0045000000000000005,0.0126,-0.0097,0.0,0.0,-0.01
2026-01-05 21:26:47.931,295.195,0.002,0.003,0.002,-0.024,0.009000000000000001,-0.988,53.46,-33.14,-88.45,0.9998,0.0045000000000000005,0.0126,-0.0097,0.0,0.0,-0.011
2026-01-05 21:26:47.931,295.2,0.0,0.001,0.0,-0.025,0.009000000000000001,-0.988,52.99,-33.03,-88.92,0.9998,0.0045000000000000005,0.0126,-0.0097,0.0,0.0,-0.011
2026-01-05 21:26:47.932,295.205,0.0,0.0,0.0,-0.024,0.006,-0.986,52.99,-33.03,-88.92,0.9998,0.0044,0.0126,-0.0097,0.0,0.002,-0.012
2026-01-05 21:26:47.932,295.21,0.0,0.0,0.0,-0.025,0.009000000000000001,-0.99,53.58,-33.03,-88.19,0.9998,0.0044,0.0126,-0.0097,0.0,0.0,-0.008
2026-01-05 21:26:47.932,295.215,0.0,0.0,0.0,-0.023,0.009000000000000001,-0.988,53.58,-33.26,-88.19,0.9998,0.0044,0.0125,-0.0097,-0.001,0.0,-0.01
2026-01-05 21:26:47.933,295.22,0.0,0.001,0.0,-0.025,0.007,-0.986,53.58,-33.26,-88.19,0.9998,0.0044,0.0126,-0.0097,0.0,0.001,-0.012
2026-01-05 21:26:47.933,295.225,0.0,0.001,0.0,-0.024,0.011,-0.987,53.25,-33.11,-88.86,0.9998,0.0045000000000000005,0.0125,-0.0097,0.0,-0.002,-0.011
2026-01-05 21:26:47.933,295.23,0.0,0.003,0.0,-0.023,0.009000000000000001,-0.989,53.25,-33.11,-88.86,0.9998,0.0045000000000000005,0.0125,-0.0097,-0.001,0.0,-0.01
2026-01-05 21:26:47.934,295.235,0.0,0.0,0.0,-0.024,0.008,-0.988,53.52,-32.76,-88.65,0.9998,0.0044,0.0125,-0.0097,0.0,0.001,-0.01
2026-01-05 21:26:47.934,295.24,0.0,0.001,0.0,-0.024,0.011,-0.987,53.52,-32.76,-88.65,0.9998,0.0045000000000000005,0.0125,-0.0097,0.0,-0.002,-0.012
2026-01-05 21:26:47.934,295.245,0.001,0.001,0.0,-0.025,0.007,-0.985,53.52,-32.76,-88.65,0.9998,0.0044,0.0125,-0.0097,0.0,0.002,-0.013000000000000001
2026-01-05 21:26:47.935,295.25,0.0,0.003,0.0,-0.024,0.008,-0.99,52.49,-33.38,-88.54,0.9998,0.0044,0.0125,-0.0097,0.0,0.0,-0.009000000000000001
2026-01-05 21:26:47.935,295.255,-0.001,0.002,0.0,-0.025,0.011,-0.988,52.49,-33.38,-88.54,0.9998,0.0045000000000000005,0.0125,-0.0097,0.0,-0.002,-0.011
2026-01-05 21:26:47.935,295.26,0.0,0.0,-0.001,-0.025,0.007,-0.984,52.870000000000005,-33.52,-88.16,0.9998,0.0044,0.0126,-0.0097,0.0,0.002,-0.015
2026-01-05 21:26:47.936,295.265,0.0,0.0,0.0,-0.025,0.009000000000000001,-0.988,52.870000000000005,-33.52,-88.16,0.9998,0.0044,0.0126,-0.0097,0.0,0.0,-0.01
2026-01-05 21:26:47.937,295.27,0.0,0.0,0.0,-0.023,0.011,-0.991,53.08,-33.230000000000004,-88.01,0.9998,0.0046,0.0125,-0.0098,-0.001,-0.002,-0.008
2026-01-05 21:26:47.937,295.275,0.0,-0.004,0.0,-0.025,0.008,-0.99,53.08,-33.230000000000004,-88.01,0.9998,0.0045000000000000005,0.0126,-0.0098,0.0,0.001,-0.009000000000000001
2026-01-05 21:26:47.961,295.28,0.0,0.0,0.0,-0.026000000000000002,0.01,-0.988,53.08,-33.230000000000004,-88.01,0.9998,0.0046,0.0126,-0.0098,0.0,-0.001,-0.01
2026-01-05 21:26:47.961,295.285,0.0,0.001,0.0,-0.024,0.009000000000000001,-0.984,53.17,-33.32,-87.72,0.9998,0.0046,0.0126,-0.0098,-0.001,0.0,-0.014
2026-01-05 21:26:47.961,295.29,0.001,-0.001,-0.001,-0.025,0.008,-0.989,53.17,-33.32,-87.72,0.9998,0.0045000000000000005,0.0126,-0.0098,0.0,0.001,-0.01
2026-01-05 21:26:47.962,295.295,0.0,0.0,0.0,-0.025,0.011,-0.989,52.85,-32.79,-87.83,0.9998,0.0046,0.0126,-0.0098,0.0,-0.002,-0.009000000000000001
2026-01-05 21:26:47.962,295.3,0.0,0.0,0.001,-0.024,0.01,-0.989,52.85,-32.79,-87.83,0.9998,0.0047,0.0126,-0.0098,-0.001,0.0,-0.009000000000000001
2026-01-05 21:26:47.962,295.305,0.0,-0.001,0.0,-0.025,0.009000000000000001,-0.984,52.85,-32.79,-87.83,0.9998,0.0046,0.0126,-0.0098,0.0,0.0,-0.015
2026-01-05 21:26:47.963,295.31,-0.001,-0.001,0.0,-0.026000000000000002,0.01,-0.989,53.72,-32.88,-88.16,0.9998,0.0047,0.012700000000000001,-0.0098,0.0,-0.001,-0.01
2026-01-05 21:26:47.963,295.315,0.002,0.001,0.0,-0.025,0.008,-0.989,53.72,-32.88,-88.16,0.9998,0.0046,0.012700000000000001,-0.0098,0.0,0.001,-0.01
2026-01-05 21:26:47.963,295.32,0.0,0.001,0.001,-0.024,0.007,-0.988,53.78,-33.17,-88.24,0.9998,0.0046,0.012700000000000001,-0.0098,0.0,0.001,-0.011
2026-01-05 21:26:47.964,295.325,-0.002,0.001,0.0,-0.024,0.011,-0.989,53.78,-33.17,-88.24,0.9998,0.0047,0.0126,-0.0098,-0.001,-0.001,-0.01
2026-01-05 21:26:47.964,295.33,0.001,0.001,-0.001,-0.024,0.008,-0.986,52.7,-33.0,-88.24,0.9998,0.0046,0.0126,-0.0098,0.0,0.0,-0.013000000000000001
2026-01-05 21:26:47.964,295.335,-0.001,0.0,0.0,-0.024,0.008,-0.988,52.7,-33.0,-88.24,0.9998,0.0046,0.0126,-0.0098,0.0,0.0,-0.011
2026-01-05 21:26:47.972,295.34,0.0,-0.001,0.0,-0.024,0.01,-0.991,52.7,-33.0,-88.24,0.9998,0.0046,0.0126,-0.0098,0.0,0.0,-0.008
2026-01-05 21:26:47.973,295.345,0.0,0.0,0.0,-0.023,0.008,-0.988,53.25,-33.67,-88.65,0.9998,0.0046,0.0125,-0.0098,-0.001,0.0,-0.011
2026-01-05 21:26:47.973,295.35,0.0,0.001,0.001,-0.024,0.01,-0.986,53.25,-33.67,-88.65,0.9998,0.0047,0.0125,-0.0098,0.0,-0.001,-0.012
2026-01-05 21:26:47.973,295.355,0.0,0.001,0.0,-0.025,0.009000000000000001,-0.989,53.02,-33.35,-89.47,0.9998,0.0046,0.0125,-0.0098,0.0,0.0,-0.009000000000000001
2026-01-05 21:26:47.974,295.36,0.0,-0.004,0.0,-0.023,0.008,-0.987,53.02,-33.35,-89.47,0.9998,0.0046,0.0125,-0.0098,-0.001,0.0,-0.012
2026-01-05 21:26:47.974,295.365,-0.001,-0.001,0.0,-0.023,0.011,-0.988,53.02,-33.35,-89.47,0.9998,0.0047,0.012400000000000001,-0.0098,0.0,-0.001,-0.01
2026-01-05 21:26:47.974,295.37,0.0,0.001,0.001,-0.024,0.007,-0.985,52.82,-33.38,-88.8,0.9998,0.0046,0.0125,-0.0098,0.0,0.001,-0.014
2026-01-05 21:26:47.975,295.375,-0.001,0.0,0.0,-0.024,0.009000000000000001,-0.988,52.82,-33.38,-88.8,0.9998,0.0046,0.0125,-0.0098,0.0,0.0,-0.011
2026-01-05 21:26:47.981,295.38,0.0,-0.001,0.0,-0.024,0.01,-0.994,52.85,-33.64,-88.51,0.9998,0.0047,0.012400000000000001,-0.0098,0.0,-0.001,-0.005
2026-01-05 21:26:47.981,295.385,0.002,-0.001,-0.001,-0.025,0.007,-0.99,52.85,-33.64,-88.51,0.9998,0.0046,0.0125,-0.0098,0.0,0.001,-0.009000000000000001
2026-01-05 21:26:47.982,295.39,0.0,0.001,0.0,-0.024,0.01,-0.987,53.230000000000004,-33.67,-88.74,0.9998,0.0046,0.0125,-0.0098,0.0,0.0,-0.012
2026-01-05 21:26:47.982,295.395,0.0,0.0,0.0,-0.025,0.009000000000000001,-0.989,53.230000000000004,-33.67,-88.74,0.9998,0.0046,0.0125,-0.0098,0.0,0.0,-0.01
2026-01-05 21:26:47.982,295.4,0.0,0.001,0.0,-0.023,0.008,-0.987,53.230000000000004,-33.67,-88.74,0.9998,0.0046,0.0125,-0.0098,-0.001,0.001,-0.012
2026-01-05 21:26:47.983,295.405,0.0,0.001,0.0,-0.025,0.008,-0.992,53.25,-33.730000000000004,-88.68,0.9998,0.0045000000000000005,0.0125,-0.0098,0.0,0.0,-0.007
2026-01-05 21:26:47.983,295.41,0.001,-0.003,0.0,-0.022,0.009000000000000001,-0.988,53.25,-33.730000000000004,-88.68,0.9998,0.0045000000000000005,0.012400000000000001,-0.0098,-0.002,0.0,-0.01
2026-01-05 21:26:47.983,295.415,0.0,-0.001,0.0,-0.024,0.007,-0.988,53.31,-33.49,-87.89,0.9998,0.0045000000000000005,0.012400000000000001,-0.0098,0.0,0.001,-0.011
2026-01-05 21:26:47.984,295.42,-0.001,0.001,0.0,-0.025,0.01,-0.991,53.31,-33.49,-87.89,0.9998,0.0045000000000000005,0.012400000000000001,-0.0098,0.0,0.0,-0.008
2026-01-05 21:26:47.984,295.425,0.001,0.0,0.001,-0.024,0.008,-0.99,53.31,-33.49,-87.89,0.9998,0.0045000000000000005,0.012400000000000001,-0.0098,0.0,0.001,-0.009000000000000001
2026-01-05 21:26:47.984,295.43,0.0,-0.001,0.0,-0.024,0.008,-0.99,53.2,-33.61,-87.75,0.9998,0.0044,0.012400000000000001,-0.0098,0.0,0.0,-0.009000000000000001
2026-01-05 21:26:47.985,295.435,0.0,0.0,0.0,-0.024,0.009000000000000001,-0.987,53.2,-33.61,-87.75,0.9998,0.0044,0.012400000000000001,-0.0098,0.0,0.0,-0.012
2026-01-05 21:26:47.985,295.44,0.0,0.001,0.0,-0.024,0.007,-0.989,53.31,-33.410000000000004,-88.62,0.9998,0.0044,0.012400000000000001,-0.0098,0.0,0.001,-0.01
2026-01-05 21:26:47.985,295.445,0.001,-0.001,0.0,-0.026000000000000002,0.009000000000000001,-0.988,53.31,-33.410000000000004,-88.62,0.9998,0.0044,0.0125,-0.0098,0.001,0.0,-0.011
2026-01-05 21:26:47.985,295.45,0.0,-0.001,-0.001,-0.025,0.012,-0.989,54.95,-33.49,-88.86,0.9998,0.0045000000000000005,0.0125,-0.0098,0.0,-0.002,-0.01
2026-01-05 21:26:47.986,295.455,0.0,0.001,0.0,-0.025,0.007,-0.989,54.95,-33.49,-88.86,0.9998,0.0045000000000000005,0.0125,-0.0098,0.0,0.001,-0.009000000000000001
2026-01-05 21:26:47.986,295.46,-0.002,0.0,0.0,-0.026000000000000002,0.01,-0.991,54.95,-33.49,-88.86,0.9998,0.0045000000000000005,0.0126,-0.0098,0.001,0.0,-0.008
2026-01-05 21:26:47.986,295.465,0.0,0.0,0.0,-0.025,0.01,-0.991,53.31,-33.230000000000004,-88.86,0.9998,0.0046,0.0126,-0.0098,0.0,0.0,-0.008
2026-01-05 21:26:48.000,295.47,0.0,0.0,0.0,-0.025,0.008,-0.988,53.31,-33.230000000000004,-88.86,0.9998,0.0045000000000000005,0.0126,-0.0098,0.0,0.0,-0.011
2026-01-05 21:26:48.001,295.475,-0.001,-0.001,0.0,-0.024,0.009000000000000001,-0.988,53.25,-33.64,-89.41,0.9998,0.0046,0.0126,-0.0098,0.0,0.0,-0.011
2026-01-05 21:26:48.002,295.48,0.0,0.002,0.0,-0.025,0.008,-0.986,53.25,-33.64,-89.41,0.9998,0.0045000000000000005,0.0126,-0.0098,0.0,0.0,-0.012
2026-01-05 21:26:48.003,295.485,-0.002,0.001,-0.001,-0.025,0.006,-0.988,53.25,-33.64,-89.41,0.9998,0.0044,0.0126,-0.0098,0.0,0.002,-0.011
2026-01-05 21:26:48.003,295.49,0.0,0.0,0.0,-0.025,0.012,-0.992,53.96,-34.02,-89.3,0.9998,0.0046,0.012700000000000001,-0.0098,0.0,-0.002,-0.007
2026-01-05 21:26:48.003,295.495,0.0,-0.001,0.001,-0.025,0.011,-0.986,53.96,-34.02,-89.3,0.9998,0.0046,0.012700000000000001,-0.0098,0.0,-0.001,-0.012
2026-01-05 21:26:48.004,295.5,0.0,-0.003,0.0,-0.024,0.007,-0.987,53.61,-33.06,-88.36,0.9998,0.0046,0.012700000000000001,-0.0098,0.0,0.001,-0.012
2026-01-05 21:26:48.004,295.505,0.0,0.0,-0.001,-0.023,0.01,-0.99,53.61,-33.06,-88.36,0.9998,0.0046,0.0126,-0.0098,-0.001,0.0,-0.009000000000000001
2026-01-05 21:26:48.004,295.51,0.0,0.0,-0.001,-0.024,0.007,-0.988,52.99,-33.17,-88.01,0.9998,0.0045000000000000005,0.0126,-0.0098,0.0,0.001,-0.011
2026-01-05 21:26:48.004,295.515,0.001,0.0,0.0,-0.024,0.008,-0.989,52.99,-33.17,-88.01,0.9998,0.0045000000000000005,0.0126,-0.0098,0.0,0.0,-0.01
2026-01-05 21:26:48.005,295.52,-0.001,-0.003,-0.001,-0.024,0.011,-0.989,52.99,-33.17,-88.01,0.9998,0.0046,0.0125,-0.0098,0.0,-0.002,-0.01
2026-01-05 21:26:48.005,295.525,0.0,0.002,0.0,-0.025,0.008,-0.987,53.93,-32.94,-88.16,0.9998,0.0046,0.0126,-0.0098,0.0,0.001,-0.012
2026-01-05 21:26:48.005,295.53,0.0,0.0,0.0,-0.024,0.01,-0.99,53.93,-32.94,-88.16,0.9998,0.0046,0.0125,-0.0098,0.0,0.0,-0.009000000000000001
2026-01-05 21:26:48.006,295.535,0.001,0.0,0.001,-0.024,0.009000000000000001,-0.989,53.63,-33.11,-88.86,0.9998,0.0046,0.0125,-0.0098,0.0,0.0,-0.01
2026-01-05 21:26:48.006,295.54,0.001,-0.002,0.0,-0.024,0.009000000000000001,-0.985,53.63,-33.11,-88.86,0.9998,0.0046,0.0125,-0.0098,0.0,0.0,-0.014
2026-01-05 21:26:48.016,295.545,-0.001,0.002,-0.001,-0.025,0.009000000000000001,-0.989,53.63,-33.11,-88.86,0.9998,0.0046,0.0125,-0.0098,0.0,0.0,-0.009000000000000001
2026-01-05 21:26:48.016,295.55,0.0,0.0,-0.001,-0.024,0.009000000000000001,-0.988,53.230000000000004,-33.35,-88.74,0.9998,0.0046,0.0125,-0.0098,0.0,0.0,-0.011
2026-01-05 21:26:48.016,295.555,0.0,0.0,0.0,-0.023,0.008,-0.991,53.230000000000004,-33.35,-88.74,0.9998,0.0046,0.0125,-0.0098,-0.001,0.001,-0.007
2026-01-05 21:26:48.017,295.56,0.0,0.0,0.003,-0.025,0.011,-0.987,53.050000000000004,-33.0,-88.62,0.9998,0.0046,0.0125,-0.0098,0.0,-0.001,-0.011
2026-01-05 21:26:48.017,295.565,0.0,0.0,0.0,-0.025,0.008,-0.988,53.050000000000004,-33.0,-88.62,0.9998,0.0046,0.0126,-0.0098,0.0,0.0,-0.01
2026-01-05 21:26:48.017,295.57,0.0,0.001,0.0,-0.025,0.009000000000000001,-0.988,53.2,-33.11,-89.15,0.9998,0.0046,0.0126,-0.0098,0.0,0.0,-0.01
2026-01-05 21:26:48.021,295.575,0.0,0.001,0.001,-0.025,0.01,-0.993,53.2,-33.11,-89.15,0.9998,0.0046,0.0126,-0.0098,0.0,0.0,-0.006
2026-01-05 21:26:48.022,295.58,0.0,0.0,0.0,-0.024,0.009000000000000001,-0.987,53.2,-33.11,-89.15,0.9998,0.0046,0.0126,-0.0098,0.0,0.0,-0.011
2026-01-05 21:26:48.022,295.585,0.0,-0.001,0.0,-0.025,0.009000000000000001,-0.989,52.9,-33.52,-88.54,0.9998,0.0046,0.0126,-0.0098,0.0,0.0,-0.01
2026-01-05 21:26:48.024,295.59,0.0,0.004,0.0,-0.025,0.009000000000000001,-0.985,52.9,-33.52,-88.54,0.9998,0.0046,0.0126,-0.0098,0.0,0.0,-0.013000000000000001
2026-01-05 21:26:48.024,295.595,0.002,0.0,-0.002,-0.025,0.009000000000000001,-0.99,52.230000000000004,-33.44,-88.92,0.9998,0.0046,0.012700000000000001,-0.0098,0.0,0.0,-0.009000000000000001
2026-01-05 21:26:48.024,295.6,0.0,-0.001,0.001,-0.024,0.01,-0.99,52.230000000000004,-33.44,-88.92,0.9998,0.0047,0.0126,-0.0098,0.0,-0.001,-0.008
2026-01-05 21:26:48.025,295.605,0.0,-0.002,0.0,-0.024,0.01,-0.987,52.230000000000004,-33.44,-88.92,0.9998,0.0047,0.0126,-0.0098,0.0,0.0,-0.012
2026-01-05 21:26:48.029,295.61,-0.001,0.0,-0.001,-0.024,0.007,-0.986,52.410000000000004,-33.7,-89.38,0.9998,0.0046,0.0126,-0.0098,-0.001,0.001,-0.012
2026-01-05 21:26:48.031,295.615,0.001,-0.001,-0.001,-0.024,0.009000000000000001,-0.99,52.410000000000004,-33.7,-89.38,0.9998,0.0046,0.0126,-0.0098,0.0,0.0,-0.009000000000000001
2026-01-05 21:26:48.032,295.62,0.002,0.0,0.001,-0.024,0.008,-0.99,52.47,-33.49,-89.12,0.9998,0.0046,0.0126,-0.0098,0.0,0.0,-0.009000000000000001
2026-01-05 21:26:48.032,295.625,0.0,0.0,0.0,-0.024,0.007,-0.988,52.47,-33.49,-89.12,0.9998,0.0045000000000000005,0.0126,-0.0098,0.0,0.001,-0.011
2026-01-05 21:26:48.033,295.63,0.0,0.001,0.001,-0.025,0.01,-0.987,52.79,-33.52,-88.59,0.9998,0.0046,0.0126,-0.0098,0.0,0.0,-0.011
2026-01-05 21:26:48.033,295.635,0.002,0.002,0.0,-0.026000000000000002,0.009000000000000001,-0.989,52.79,-33.52,-88.59,0.9998,0.0046,0.012700000000000001,-0.0098,0.0,0.0,-0.01
2026-01-05 21:26:48.033,295.64,-0.001,-0.002,0.0,-0.025,0.009000000000000001,-0.991,52.79,-33.52,-88.59,0.9998,0.0046,0.012700000000000001,-0.0098,0.0,0.0,-0.008
2026-01-05 21:26:48.033,295.645,0.0,0.0,0.0,-0.023,0.009000000000000001,-0.99,52.9,-33.55,-88.92,0.9998,0.0046,0.0126,-0.0098,-0.001,0.0,-0.009000000000000001
2026-01-05 21:26:48.034,295.65,0.0,0.001,0.001,-0.024,0.009000000000000001,-0.985,52.9,-33.55,-88.92,0.9998,0.0046,0.0126,-0.0098,-0.001,0.0,-0.014
2026-01-05 21:26:48.034,295.655,0.0,0.002,0.0,-0.025,0.009000000000000001,-0.987,53.02,-33.410000000000004,-88.59,0.9998,0.0046,0.0126,-0.0098,0.0,0.0,-0.012
2026-01-05 21:26:48.040,295.66,0.0,0.002,-0.001,-0.024,0.008,-0.991,53.02,-33.410000000000004,-88.59,0.9998,0.0045000000000000005,0.0126,-0.0098,0.0,0.0,-0.007
2026-01-05 21:26:48.040,295.665,0.0,-0.001,0.0,-0.023,0.008,-0.989,53.02,-33.410000000000004,-88.59,0.9998,0.0045000000000000005,0.0125,-0.0098,-0.001,0.0,-0.01
2026-01-05 21:26:48.041,295.67,0.002,0.0,0.0,-0.025,0.009000000000000001,-0.989,52.17,-34.02,-88.68,0.9998,0.0045000000000000005,0.0126,-0.0098,0.0,0.0,-0.009000000000000001
2026-01-05 21:26:48.041,295.675,0.0,0.0,0.0,-0.024,0.009000000000000001,-0.986,52.17,-34.02,-88.68,0.9998,0.0045000000000000005,0.0125,-0.0098,0.0,0.0,-0.012
2026-01-05 21:26:48.041,295.68,-0.002,0.004,0.001,-0.025,0.007,-0.988,52.38,-33.82,-88.95,0.9998,0.0045000000000000005,0.0126,-0.0098,0.0,0.001,-0.01
2026-01-05 21:26:48.045,295.685,0.0,-0.001,0.0,-0.024,0.011,-0.99,52.38,-33.82,-88.95,0.9998,0.0045000000000000005,0.0125,-0.0098,0.0,-0.001,-0.009000000000000001
2026-01-05 21:26:48.046,295.69,-0.002,0.0,0.0,-0.024,0.009000000000000001,-0.988,52.82,-33.79,-88.95,0.9998,0.0046,0.0125,-0.0098,0.0,0.0,-0.011
2026-01-05 21:26:48.046,295.695,-0.001,0.003,0.0,-0.024,0.007,-0.984,52.82,-33.79,-88.95,0.9998,0.0045000000000000005,0.0125,-0.0098,0.0,0.001,-0.015
2026-01-05 21:26:48.047,295.7,-0.002,0.001,0.0,-0.024,0.011,-0.989,52.82,-33.79,-88.95,0.9998,0.0046,0.0125,-0.0098,0.0,-0.002,-0.009000000000000001
2026-01-05 21:26:48.047,295.705,0.0,0.0,0.0,-0.023,0.007,-0.986,52.9,-33.64,-89.3,0.9998,0.0045000000000000005,0.012400000000000001,-0.0098,-0.001,0.001,-0.013000000000000001
2026-01-05 21:26:48.051,295.71,0.0,0.0,0.0,-0.024,0.011,-0.99,52.9,-33.64,-89.3,0.9998,0.0047,0.012400000000000001,-0.0098,0.0,-0.002,-0.008
2026-01-05 21:26:48.052,295.715,0.0,0.001,0.0,-0.025,0.01,-0.988,52.85,-33.82,-88.77,0.9998,0.0047,0.0125,-0.0098,0.0,0.0,-0.011
2026-01-05 21:26:48.054,295.72,0.0,0.003,-0.001,-0.024,0.006,-0.986,52.85,-33.82,-88.77,0.9998,0.0046,0.0125,-0.0098,0.0,0.002,-0.012
2026-01-05 21:26:48.054,295.725,0.0,0.0,0.0,-0.024,0.01,-0.986,52.85,-33.82,-88.77,0.9998,0.0046,0.0125,-0.0098,0.0,0.0,-0.012
2026-01-05 21:26:48.054,295.73,-0.002,-0.001,0.0,-0.023,0.008,-0.988,52.44,-33.76,-89.33,0.9998,0.0046,0.0125,-0.0098,0.0,0.0,-0.01
2026-01-05 21:26:48.054,295.735,0.0,0.0,0.0,-0.024,0.007,-0.988,52.44,-33.76,-89.33,0.9998,0.0045000000000000005,0.012400000000000001,-0.0098,0.0,0.001,-0.01
2026-01-05 21:26:48.055,295.74,0.0,-0.001,0.001,-0.025,0.008,-0.991,52.38,-33.82,-89.21000000000001,0.9998,0.0045000000000000005,0.0125,-0.0098,0.0,0.0,-0.008
2026-01-05 21:26:48.059,295.745,0.0,0.0,0.0,-0.024,0.009000000000000001,-0.99,52.38,-33.82,-89.21000000000001,0.9998,0.0045000000000000005,0.012400000000000001,-0.0098,0.0,0.0,-0.009000000000000001
2026-01-05 21:26:48.059,295.75,0.0,-0.001,0.0,-0.023,0.008,-0.988,52.96,-33.64,-89.68,0.9998,0.0045000000000000005,0.012400000000000001,-0.0098,0.0,0.0,-0.011
2026-01-05 21:26:48.059,295.755,0.0,-0.002,-0.001,-0.026000000000000002,0.009000000000000001,-0.987,52.96,-33.64,-89.68,0.9998,0.0045000000000000005,0.0125,-0.0098,0.001,0.0,-0.012
2026-01-05 21:26:48.060,295.76,0.0,0.0,0.0,-0.025,0.007,-0.986,52.96,-33.64,-89.68,0.9998,0.0044,0.0125,-0.0098,0.0,0.001,-0.012
2026-01-05 21:26:48.060,295.765,0.0,0.0,0.0,-0.025,0.007,-0.989,53.28,-33.35,-89.12,0.9998,0.0044,0.0126,-0.0098,0.0,0.001,-0.01
