System_Time,Timestamp,device_id,Gyro_X,Gyro_Y,Gyro_Z,Acc_X,Acc_Y,Acc_Z,Mag_X,Mag_Y,Mag_Z,Quat_W,Quat_X,Quat_Y,Quat_Z,Linear_Acc_X,Linear_Acc_Y,Linear_Acc_Z
2026-01-05 21:26:47.320,288.87,-0.076,0.314,-0.171,-0.026000000000000002,0.027,-0.999,-21.01,54.01,-134.28,0.3383,0.0217,-0.5852,0.7365,0.003,0.001,0.0
2026-01-05 21:26:47.321,288.875,-0.729,2.484,-1.588,-0.026000000000000002,0.03,-0.995,13.68,28.26,-141.44,0.3347,0.0181,-0.5899,0.7345,0.012,0.004,0.005
2026-01-05 21:26:47.322,288.88,-1.843,5.115,-3.2,-0.028,0.03,-0.994,13.68,28.26,-141.44,0.32680000000000003,0.011000000000000001,-0.5993,0.7306,0.019,0.009000000000000001,0.026000000000000002
2026-01-05 21:26:47.322,288.885,0.225,0.04,-0.151,-0.026000000000000002,0.029,-1.0,13.68,28.26,-141.44,0.3266,0.010700000000000001,-0.5978,0.7319,0.017,0.005,0.03
2026-01-05 21:26:47.323,288.89,0.20700000000000002,-0.171,0.021,-0.027,0.032,-1.0,13.85,28.0,-141.09,0.32680000000000003,0.0111,-0.5963,0.733,0.018000000000000002,0.003,0.026000000000000002
2026-01-05 21:26:47.323,288.895,0.001,0.002,0.0,-0.026000000000000002,0.029,-0.998,13.85,28.0,-141.09,0.3266,0.011300000000000001,-0.5953,0.7339,0.015,0.006,0.023
2026-01-05 21:26:47.324,288.9,0.0,0.0,0.0,-0.025,0.028,-0.999,14.06,28.060000000000002,-141.09,0.3264,0.0115,-0.5944,0.7347,0.012,0.005,0.021
2026-01-05 21:26:47.333,288.905,-0.001,0.004,0.002,-0.026000000000000002,0.03,-0.993,14.06,28.060000000000002,-141.09,0.3264,0.0119,-0.5936,0.7354,0.015,0.009000000000000001,0.017
2026-01-05 21:26:47.333,288.91,0.002,0.001,0.0,-0.026000000000000002,0.03,-1.0010000000000001,13.530000000000001,29.080000000000002,-141.39000000000001,0.32630000000000003,0.012100000000000001,-0.5929,0.736,0.011,0.003,0.018000000000000002
2026-01-05 21:26:47.334,288.915,-0.002,0.003,-0.001,-0.026000000000000002,0.032,-1.0,13.530000000000001,29.080000000000002,-141.39000000000001,0.3264,0.012700000000000001,-0.5923,0.7364,0.012,0.001,0.014
2026-01-05 21:26:47.334,288.92,0.001,0.0,0.0,-0.027,0.032,-1.002,13.530000000000001,29.080000000000002,-141.39000000000001,0.3265,0.0132,-0.5917,0.7368,0.01,0.0,0.015
2026-01-05 21:26:47.338,288.925,0.002,-0.003,0.001,-0.027,0.029,-1.0,13.5,29.28,-141.74,0.32630000000000003,0.013300000000000001,-0.5911000000000001,0.7374,0.008,0.003,0.014
2026-01-05 21:26:47.338,288.93,0.0,0.002,0.001,-0.026000000000000002,0.03,-0.999,13.5,29.28,-141.74,0.3262,0.0134,-0.5906,0.7379,0.008,0.004,0.012
2026-01-05 21:26:47.339,288.935,-0.005,0.001,0.0,-0.027,0.031,-0.996,13.68,28.79,-141.33,0.32630000000000003,0.013800000000000002,-0.5901000000000001,0.7382000000000001,0.01,0.005,0.009000000000000001
2026-01-05 21:26:47.339,288.94,-0.001,0.0,0.001,-0.025,0.031,-1.002,13.68,28.79,-141.33,0.32630000000000003,0.014,-0.5897,0.7385,0.005,0.0,0.009000000000000001
2026-01-05 21:26:47.343,288.945,0.001,-0.004,0.001,-0.027,0.03,-1.002,13.68,28.79,-141.33,0.3262,0.014100000000000001,-0.5893,0.7389,0.005,0.0,0.01
2026-01-05 21:26:47.344,288.95,-0.003,0.002,0.0,-0.026000000000000002,0.03,-1.0010000000000001,13.91,29.55,-141.04,0.3261,0.0142,-0.5890000000000001,0.7392000000000001,0.006,0.001,0.008
2026-01-05 21:26:47.344,288.955,0.002,0.001,0.0,-0.027,0.031,-0.997,13.91,29.55,-141.04,0.3262,0.0145,-0.5886,0.7394000000000001,0.007,0.005,0.006
2026-01-05 21:26:47.344,288.96,-0.001,0.001,0.001,-0.027,0.031,-0.998,13.35,28.44,-141.18,0.3262,0.014700000000000001,-0.5883,0.7397,0.007,0.004,0.006
2026-01-05 21:26:47.348,288.965,0.0,0.0,0.0,-0.028,0.03,-1.002,13.35,28.44,-141.18,0.3261,0.0148,-0.5880000000000001,0.74,0.004,0.0,0.008
2026-01-05 21:26:47.350,288.97,-0.001,0.0,0.0,-0.027,0.03,-1.002,13.35,28.44,-141.18,0.3261,0.0148,-0.5877,0.7402000000000001,0.003,0.001,0.006
2026-01-05 21:26:47.350,288.975,0.001,0.002,0.001,-0.028,0.031,-1.0010000000000001,13.73,29.26,-141.59,0.3261,0.015000000000000001,-0.5875,0.7404000000000001,0.004,0.001,0.006
2026-01-05 21:26:47.351,288.98,0.001,0.001,-0.001,-0.026000000000000002,0.03,-0.999,13.73,29.26,-141.59,0.326,0.015000000000000001,-0.5873,0.7406,0.003,0.003,0.004
2026-01-05 21:26:47.351,288.985,-0.001,0.004,0.001,-0.027,0.031,-0.999,13.97,28.580000000000002,-141.65,0.3261,0.0152,-0.5871000000000001,0.7407,0.004,0.002,0.003
2026-01-05 21:26:47.354,288.99,-0.001,0.0,0.001,-0.028,0.029,-1.0,13.97,28.580000000000002,-141.65,0.3259,0.0151,-0.5869,0.7409,0.003,0.003,0.005
2026-01-05 21:26:47.354,288.995,-0.002,0.002,0.0,-0.027,0.031,-1.0,13.97,28.580000000000002,-141.36,0.3259,0.0152,-0.5867,0.741,0.003,0.001,0.003
2026-01-05 21:26:47.354,289.0,0.001,0.001,0.001,-0.028,0.031,-1.0,13.68,29.75,-141.36,0.326,0.0154,-0.5865,0.7412000000000001,0.004,0.001,0.004
2026-01-05 21:26:47.356,289.005,-0.001,0.002,0.001,-0.026000000000000002,0.031,-1.0010000000000001,13.68,29.75,-141.36,0.326,0.0155,-0.5864,0.7412000000000001,0.002,0.001,0.002
2026-01-05 21:26:47.356,289.01,0.0,0.002,0.0,-0.026000000000000002,0.03,-1.0030000000000001,13.21,29.11,-141.21,0.3259,0.0154,-0.5863,0.7413000000000001,0.0,0.0,0.002
2026-01-05 21:26:47.357,289.015,-0.005,0.004,0.0,-0.028,0.031,-0.997,13.21,29.11,-141.21,0.326,0.015700000000000002,-0.5862,0.7414000000000001,0.004,0.003,0.001
2026-01-05 21:26:47.357,289.02,0.0,0.001,0.0,-0.027,0.03,-0.997,13.09,29.23,-140.89000000000001,0.326,0.015700000000000002,-0.5861000000000001,0.7415,0.003,0.004,0.001
2026-01-05 21:26:47.357,289.025,0.0,-0.003,0.001,-0.027,0.03,-1.0010000000000001,13.09,29.23,-140.89000000000001,0.3259,0.015600000000000001,-0.5860000000000001,0.7416,0.0,0.001,0.002
2026-01-05 21:26:47.358,289.03,-0.002,0.001,0.0,-0.027,0.03,-1.002,13.09,29.23,-140.89000000000001,0.3259,0.015700000000000002,-0.5859,0.7417,0.001,0.0,0.002
2026-01-05 21:26:47.358,289.035,0.0,0.002,0.001,-0.027,0.029,-0.995,13.65,28.990000000000002,-141.42000000000002,0.3259,0.015600000000000001,-0.5858,0.7418,0.003,0.006,0.0
2026-01-05 21:26:47.359,289.04,0.0,0.002,0.0,-0.025,0.031,-0.995,13.65,28.990000000000002,-141.42000000000002,0.3259,0.015700000000000002,-0.5858,0.7418,0.003,0.005,-0.001
2026-01-05 21:26:47.359,289.045,0.0,-0.001,0.0,-0.027,0.03,-1.0010000000000001,13.18,29.810000000000002,-141.3,0.3259,0.015700000000000002,-0.5857,0.7419,0.001,0.001,0.001
2026-01-05 21:26:47.359,289.05,-0.005,0.002,0.001,-0.027,0.03,-1.002,13.18,29.810000000000002,-141.3,0.32580000000000003,0.015700000000000002,-0.5856,0.7419,0.0,0.0,0.001
2026-01-05 21:26:47.360,289.055,-0.001,0.003,0.0,-0.028,0.03,-1.0050000000000001,13.18,29.810000000000002,-141.3,0.32580000000000003,0.015700000000000002,-0.5856,0.742,0.0,-0.002,0.003
2026-01-05 21:26:47.360,289.06,-0.002,0.004,0.0,-0.028,0.03,-0.999,12.86,28.96,-141.42000000000002,0.32580000000000003,0.015700000000000002,-0.5855,0.7421,0.002,0.002,0.001
2026-01-05 21:26:47.360,289.065,-0.003,0.002,0.002,-0.027,0.029,-0.996,12.86,28.96,-141.42000000000002,0.3257,0.015600000000000001,-0.5854,0.7422000000000001,0.001,0.006,0.0
2026-01-05 21:26:47.360,289.07,0.0,0.0,0.001,-0.028,0.03,-0.996,13.06,29.37,-141.24,0.3257,0.015700000000000002,-0.5853,0.7422000000000001,0.003,0.005,0.0
2026-01-05 21:26:47.361,289.075,-0.003,0.001,0.0,-0.027,0.03,-1.0030000000000001,13.06,29.37,-141.24,0.3257,0.015600000000000001,-0.5853,0.7422000000000001,0.0,0.0,0.001
2026-01-05 21:26:47.361,289.08,0.0,-0.001,0.0,-0.025,0.029,-1.0050000000000001,13.06,29.37,-141.24,0.3256,0.0155,-0.5853,0.7423000000000001,-0.002,-0.001,0.0
2026-01-05 21:26:47.361,289.085,-0.003,0.004,0.0,-0.028,0.031,-0.997,13.38,29.990000000000002,-141.53,0.3256,0.015600000000000001,-0.5853,0.7423000000000001,0.003,0.004,0.0
2026-01-05 21:26:47.374,289.09,-0.005,0.007,0.0,-0.026000000000000002,0.031,-0.999,13.38,29.990000000000002,-141.53,0.3257,0.015700000000000002,-0.5853,0.7423000000000001,0.001,0.002,-0.001
2026-01-05 21:26:47.374,289.095,0.0,0.0,0.001,-0.027,0.029,-0.999,13.120000000000001,29.11,-141.47,0.3256,0.015600000000000001,-0.5852,0.7423000000000001,0.0,0.003,0.0
2026-01-05 21:26:47.376,289.1,-0.004,0.002,-0.001,-0.027,0.03,-1.0,13.120000000000001,29.11,-141.47,0.3256,0.015700000000000002,-0.5852,0.7423000000000001,0.001,0.001,0.0
2026-01-05 21:26:47.377,289.105,-0.002,0.002,0.0,-0.025,0.03,-0.999,12.94,28.64,-141.44,0.3256,0.015600000000000001,-0.5852,0.7423000000000001,0.0,0.003,-0.001
2026-01-05 21:26:47.378,289.11,-0.003,0.0,0.0,-0.027,0.03,-0.997,12.94,28.64,-141.44,0.3256,0.015600000000000001,-0.5852,0.7424000000000001,0.002,0.003,0.0
2026-01-05 21:26:47.379,289.115,-0.003,0.006,0.0,-0.026000000000000002,0.032,-1.0,12.94,28.64,-141.44,0.3257,0.0158,-0.5853,0.7423000000000001,0.001,0.001,-0.001
2026-01-05 21:26:47.379,289.12,-0.005,0.002,0.001,-0.027,0.03,-1.0,12.77,29.05,-141.5,0.3256,0.0158,-0.5853,0.7423000000000001,0.0,0.001,0.0
2026-01-05 21:26:47.379,289.125,-0.001,0.006,0.001,-0.027,0.031,-1.002,12.77,29.05,-141.5,0.3257,0.0158,-0.5853,0.7423000000000001,0.0,0.0,0.0
2026-01-05 21:26:47.382,289.13,-0.006,0.009000000000000001,0.0,-0.026000000000000002,0.031,-0.998,12.97,27.79,-141.62,0.3257,0.0159,-0.5853,0.7423000000000001,0.002,0.003,-0.001
2026-01-05 21:26:47.383,289.135,-0.002,0.006,0.0,-0.024,0.03,-1.002,12.97,27.79,-141.62,0.3256,0.0158,-0.5853,0.7422000000000001,-0.001,0.0,0.0
2026-01-05 21:26:47.383,289.14,-0.001,0.007,0.001,-0.027,0.03,-1.002,12.97,27.79,-141.62,0.3256,0.0158,-0.5853,0.7423000000000001,0.0,0.0,0.001
2026-01-05 21:26:47.383,289.145,-0.004,0.009000000000000001,0.0,-0.027,0.03,-0.997,13.06,26.27,-141.71,0.3256,0.0158,-0.5853,0.7423000000000001,0.002,0.004,0.0
2026-01-05 21:26:47.383,289.15,-0.005,0.006,0.0,-0.025,0.031,-0.999,13.06,26.27,-141.71,0.3256,0.0158,-0.5853,0.7422000000000001,0.0,0.002,-0.001
2026-01-05 21:26:47.384,289.155,-0.003,0.007,0.001,-0.028,0.031,-0.995,12.74,28.580000000000002,-141.42000000000002,0.3257,0.0159,-0.5853,0.7423000000000001,0.004,0.005,0.0
2026-01-05 21:26:47.384,289.16,-0.005,0.006,0.001,-0.027,0.031,-1.004,12.74,28.580000000000002,-141.42000000000002,0.3257,0.0159,-0.5853,0.7423000000000001,0.0,-0.002,0.001
2026-01-05 21:26:47.384,289.165,-0.002,0.001,0.0,-0.025,0.031,-1.0010000000000001,12.74,28.580000000000002,-141.42000000000002,0.3257,0.0159,-0.5853,0.7422000000000001,0.0,0.0,-0.001
2026-01-05 21:26:47.384,289.17,-0.005,0.009000000000000001,0.0,-0.025,0.032,-1.0,13.24,28.47,-141.65,0.3257,0.016,-0.5854,0.7422000000000001,0.001,0.001,-0.001
2026-01-05 21:26:47.385,289.175,0.0,0.005,0.001,-0.025,0.032,-0.996,13.24,28.47,-141.65,0.3257,0.016,-0.5855,0.7421,0.002,0.004,-0.003
2026-01-05 21:26:47.385,289.18,-0.004,0.004,0.0,-0.025,0.031,-0.999,13.24,29.05,-141.01,0.3257,0.016,-0.5855,0.7421,0.0,0.002,-0.001
2026-01-05 21:26:47.392,289.185,-0.006,0.006,0.002,-0.03,0.037,-1.002,13.24,29.05,-141.01,0.3257,0.0164,-0.5855,0.7421,0.005,-0.002,0.0
2026-01-05 21:26:47.393,289.19,0.002,0.001,0.002,-0.025,0.029,-0.996,13.21,28.09,-141.47,0.3257,0.0162,-0.5855,0.7421,0.0,0.006,0.0
2026-01-05 21:26:47.394,289.195,0.0,0.002,0.001,-0.025,0.029,-0.995,13.21,28.09,-141.47,0.3257,0.0161,-0.5854,0.7421,0.0,0.006,-0.001
2026-01-05 21:26:47.396,289.2,0.0,0.004,0.001,-0.027,0.032,-0.995,13.21,28.09,-141.47,0.3257,0.0162,-0.5854,0.7421,0.004,0.005,-0.001
2026-01-05 21:26:47.396,289.205,-0.002,0.001,0.001,-0.025,0.031,-1.0030000000000001,13.44,28.35,-141.65,0.3257,0.0162,-0.5855,0.7421,-0.001,-0.001,0.0
2026-01-05 21:26:47.397,289.21,0.001,0.001,0.0,-0.025,0.029,-0.999,13.44,28.35,-141.65,0.3257,0.0161,-0.5855,0.7421,0.0,0.003,-0.001
2026-01-05 21:26:47.397,289.215,-0.002,0.001,0.001,-0.025,0.029,-1.0030000000000001,13.88,28.79,-141.06,0.3257,0.016,-0.5855,0.7421,-0.002,0.0,0.0
2026-01-05 21:26:47.397,289.22,-0.003,0.002,0.001,-0.027,0.031,-0.996,13.88,28.79,-141.06,0.3257,0.016,-0.5855,0.7421,0.002,0.005,-0.001
2026-01-05 21:26:47.398,289.225,0.0,0.002,0.0,-0.025,0.032,-0.998,13.88,28.79,-141.06,0.3257,0.016,-0.5855,0.7421,0.001,0.002,-0.001
2026-01-05 21:26:47.398,289.23,-0.001,0.001,0.0,-0.026000000000000002,0.031,-0.997,13.27,29.84,-140.6,0.3257,0.016,-0.5855,0.7421,0.001,0.004,0.0
2026-01-05 21:26:47.398,289.235,-0.003,0.002,0.001,-0.026000000000000002,0.03,-0.999,13.27,29.84,-140.6,0.3257,0.016,-0.5855,0.7421,0.0,0.003,0.0
2026-01-05 21:26:47.399,289.24,0.002,-0.001,0.0,-0.027,0.032,-0.999,13.24,29.37,-141.94,0.3257,0.016,-0.5854,0.7421,0.001,0.002,0.0
2026-01-05 21:26:47.399,289.245,-0.001,0.004,0.0,-0.025,0.03,-1.0010000000000001,13.24,29.37,-141.94,0.3257,0.016,-0.5854,0.7421,0.0,0.001,0.0
2026-01-05 21:26:47.399,289.25,0.0,0.002,0.0,-0.025,0.03,-1.0010000000000001,13.24,29.37,-141.94,0.3257,0.0159,-0.5854,0.7421,0.0,0.001,0.0
2026-01-05 21:26:47.399,289.255,-0.003,0.002,0.001,-0.026000000000000002,0.031,-0.995,13.32,29.75,-141.71,0.3257,0.0159,-0.5854,0.7421,0.002,0.005,-0.001
2026-01-05 21:26:47.400,289.26,-0.002,0.001,0.001,-0.025,0.03,-0.996,13.32,29.75,-141.71,0.3257,0.0159,-0.5855,0.7421,0.001,0.005,-0.002
2026-01-05 21:26:47.400,289.265,-0.002,-0.002,0.0,-0.026000000000000002,0.029,-1.0,14.14,30.02,-141.39000000000001,0.3257,0.0159,-0.5854,0.7421,0.0,0.002,0.0
2026-01-05 21:26:47.400,289.27,-0.001,0.004,0.001,-0.026000000000000002,0.031,-1.004,14.14,30.02,-141.39000000000001,0.3257,0.0159,-0.5854,0.7421,0.0,-0.002,0.0
2026-01-05 21:26:47.401,289.275,0.001,0.0,0.0,-0.024,0.028,-1.0010000000000001,14.14,30.02,-141.39000000000001,0.3257,0.015700000000000002,-0.5855,0.7421,-0.002,0.002,0.0
2026-01-05 21:26:47.401,289.28,-0.003,0.003,0.0,-0.026000000000000002,0.031,-0.987,13.32,29.61,-141.47,0.3257,0.0158,-0.5855,0.7421,0.006,0.012,-0.004
2026-01-05 21:26:47.401,289.285,-0.005,0.002,0.0,-0.024,0.032,-1.0,13.32,29.61,-141.47,0.3257,0.0158,-0.5855,0.7421,0.0,0.001,-0.002
2026-01-05 21:26:47.401,289.29,0.004,-0.009000000000000001,0.0,-0.026000000000000002,0.029,-1.0110000000000001,13.41,28.61,-141.71,0.3257,0.015700000000000002,-0.5855,0.7421,-0.004,-0.007,0.003
2026-01-05 21:26:47.402,289.295,-0.005,0.008,0.002,-0.026000000000000002,0.031,-1.006,13.41,28.61,-141.71,0.3257,0.0158,-0.5855,0.7421,0.0,-0.003,0.001
2026-01-05 21:26:47.402,289.3,0.005,-0.004,0.001,-0.025,0.031,-0.995,13.15,29.2,-140.95000000000002,0.3257,0.0158,-0.5855,0.7421,0.002,0.005,-0.003
2026-01-05 21:26:47.416,289.305,-0.002,0.001,0.001,-0.025,0.03,-0.992,13.15,29.2,-140.95000000000002,0.3257,0.0158,-0.5855,0.7421,0.003,0.008,-0.003
2026-01-05 21:26:47.417,289.31,-0.002,-0.001,0.0,-0.025,0.031,-1.0,13.15,29.2,-140.95000000000002,0.3257,0.0158,-0.5855,0.7421,0.001,0.001,-0.001
2026-01-05 21:26:47.417,289.315,-0.001,0.0,0.001,-0.025,0.03,-1.008,13.41,29.52,-141.8,0.3257,0.0158,-0.5855,0.7421,-0.003,-0.004,0.001
2026-01-05 21:26:47.419,289.32,0.001,0.002,0.001,-0.025,0.032,-0.998,13.41,29.52,-141.8,0.3257,0.0158,-0.5856,0.742,0.002,0.003,-0.002
2026-01-05 21:26:47.420,289.325,-0.002,0.006,0.001,-0.028,0.03,-0.991,13.5,29.34,-141.27,0.3257,0.0159,-0.5855,0.7421,0.005,0.009000000000000001,-0.001
2026-01-05 21:26:47.421,289.33,0.001,-0.003,0.0,-0.026000000000000002,0.031,-0.995,13.5,29.34,-141.27,0.3257,0.0159,-0.5855,0.7421,0.002,0.005,-0.001
2026-01-05 21:26:47.422,289.335,-0.002,0.001,0.001,-0.025,0.03,-1.0,13.5,29.34,-141.27,0.3257,0.0158,-0.5855,0.7421,0.0,0.002,0.0
2026-01-05 21:26:47.422,289.34,0.002,-0.003,0.001,-0.026000000000000002,0.03,-1.0050000000000001,13.530000000000001,29.46,-141.82,0.3257,0.0158,-0.5855,0.7421,-0.001,-0.002,0.001
2026-01-05 21:26:47.422,289.345,0.0,0.0,0.001,-0.024,0.032,-0.993,13.530000000000001,29.46,-141.82,0.3257,0.0159,-0.5855,0.7421,0.003,0.007,-0.004
2026-01-05 21:26:47.422,289.35,-0.002,0.003,0.002,-0.026000000000000002,0.03,-0.995,13.3,29.46,-141.85,0.3257,0.0159,-0.5855,0.7421,0.002,0.006,-0.001
2026-01-05 21:26:47.423,289.355,0.0,-0.003,0.0,-0.025,0.028,-1.0010000000000001,13.3,29.46,-141.85,0.32580000000000003,0.0158,-0.5855,0.7421,-0.001,0.001,0.0
2026-01-05 21:26:47.423,289.36,-0.003,0.002,0.0,-0.025,0.031,-1.006,13.3,29.46,-141.85,0.32580000000000003,0.0158,-0.5855,0.7421,-0.001,-0.003,0.0
2026-01-05 21:26:47.423,289.365,0.004,-0.003,0.0,-0.027,0.032,-0.992,13.32,27.21,-142.18,0.3257,0.0159,-0.5855,0.7421,0.005,0.007,-0.002
2026-01-05 21:26:47.423,289.37,-0.002,0.001,0.001,-0.026000000000000002,0.03,-0.993,13.32,27.21,-142.18,0.3257,0.0159,-0.5854,0.7421,0.003,0.007,-0.002
2026-01-05 21:26:47.424,289.375,0.0,0.0,0.001,-0.024,0.029,-1.004,13.32,28.09,-142.47,0.32580000000000003,0.0158,-0.5855,0.7421,-0.003,0.0,0.0
2026-01-05 21:26:47.429,289.38,-0.002,0.001,0.001,-0.026000000000000002,0.032,-0.999,13.32,28.09,-142.47,0.3257,0.0158,-0.5855,0.7421,0.002,0.001,-0.001
2026-01-05 21:26:47.430,289.385,0.002,0.0,0.0,-0.027,0.03,-0.994,13.0,27.94,-141.94,0.32580000000000003,0.0158,-0.5854,0.7421,0.003,0.006,-0.001
2026-01-05 21:26:47.430,289.39,-0.001,0.0,0.0,-0.024,0.028,-0.994,13.0,27.94,-141.94,0.32580000000000003,0.015700000000000002,-0.5854,0.7421,0.0,0.008,-0.002
2026-01-05 21:26:47.430,289.395,-0.001,0.001,0.0,-0.027,0.03,-1.0030000000000001,13.0,27.94,-141.94,0.32580000000000003,0.0158,-0.5854,0.7421,0.0,0.0,0.001
2026-01-05 21:26:47.430,289.4,0.003,0.0,0.001,-0.026000000000000002,0.033,-1.004,13.09,27.94,-141.27,0.32580000000000003,0.0158,-0.5854,0.7421,0.0,-0.003,0.0
2026-01-05 21:26:47.431,289.405,0.005,-0.002,0.001,-0.027,0.031,-0.996,13.09,27.94,-141.27,0.32580000000000003,0.0159,-0.5854,0.7422000000000001,0.003,0.004,-0.001
2026-01-05 21:26:47.431,289.41,-0.001,0.0,0.0,-0.024,0.029,-0.996,13.41,27.5,-141.47,0.32580000000000003,0.0158,-0.5854,0.7421,0.0,0.005,-0.002
2026-01-05 21:26:47.435,289.415,0.0,-0.003,0.001,-0.024,0.028,-0.997,13.41,27.5,-141.47,0.32580000000000003,0.015700000000000002,-0.5854,0.7421,0.0,0.005,-0.001
2026-01-05 21:26:47.435,289.42,-0.003,0.004,0.0,-0.027,0.032,-1.0,13.41,27.5,-141.47,0.32580000000000003,0.0158,-0.5854,0.7421,0.002,0.0,0.0
2026-01-05 21:26:47.436,289.425,0.002,-0.002,0.001,-0.026000000000000002,0.031,-1.004,13.06,27.71,-141.47,0.32580000000000003,0.0159,-0.5854,0.7421,0.0,-0.002,0.0
2026-01-05 21:26:47.438,289.43,0.001,0.001,0.002,-0.025,0.03,-0.993,13.06,27.71,-141.47,0.32580000000000003,0.0158,-0.5854,0.7421,0.002,0.008,-0.002
2026-01-05 21:26:47.439,289.435,-0.004,0.004,0.002,-0.024,0.032,-1.004,13.27,28.47,-140.98,0.32580000000000003,0.0159,-0.5855,0.7421,0.0,-0.002,-0.001
2026-01-05 21:26:47.439,289.44,0.004,-0.008,-0.001,-0.026000000000000002,0.029,-1.0,13.27,28.47,-140.98,0.32580000000000003,0.0158,-0.5854,0.7421,0.0,0.002,0.0
2026-01-05 21:26:47.439,289.445,-0.002,0.006,0.0,-0.025,0.031,-0.997,13.27,28.47,-140.98,0.32580000000000003,0.0158,-0.5854,0.7421,0.001,0.003,-0.002
2026-01-05 21:26:47.442,289.45,-0.002,0.002,0.001,-0.025,0.033,-0.997,13.27,29.310000000000002,-140.74,0.3257,0.0159,-0.5855,0.7421,0.003,0.003,-0.003
2026-01-05 21:26:47.443,289.455,0.001,-0.001,0.001,-0.024,0.029,-0.998,13.27,29.310000000000002,-140.74,0.32580000000000003,0.0158,-0.5855,0.742,0.0,0.004,-0.001
2026-01-05 21:26:47.443,289.46,-0.001,0.0,0.0,-0.026000000000000002,0.032,-1.0030000000000001,13.09,29.43,-141.18,0.32580000000000003,0.0159,-0.5855,0.742,0.0,-0.001,0.0
2026-01-05 21:26:47.445,289.465,0.0,-0.001,0.0,-0.027,0.031,-1.0,13.09,29.43,-141.18,0.32580000000000003,0.0159,-0.5855,0.7421,0.001,0.001,0.0
2026-01-05 21:26:47.445,289.47,0.003,-0.002,0.002,-0.025,0.03,-0.996,12.83,27.59,-141.8,0.32580000000000003,0.0158,-0.5855,0.7421,0.0,0.005,-0.002
2026-01-05 21:26:47.447,289.475,-0.002,0.001,0.0,-0.025,0.032,-0.997,12.83,27.59,-141.8,0.32580000000000003,0.0159,-0.5855,0.742,0.002,0.003,-0.002
2026-01-05 21:26:47.447,289.48,0.003,-0.002,0.001,-0.026000000000000002,0.031,-1.0,12.83,27.59,-141.8,0.32580000000000003,0.0159,-0.5855,0.7421,0.001,0.001,0.0
2026-01-05 21:26:47.448,289.485,-0.003,0.004,0.0,-0.023,0.031,-1.0010000000000001,12.86,29.28,-141.97,0.32580000000000003,0.0158,-0.5856,0.742,-0.001,0.0,-0.002
2026-01-05 21:26:47.449,289.49,-0.001,0.001,0.0,-0.025,0.032,-0.997,12.86,29.28,-141.97,0.3257,0.0159,-0.5856,0.742,0.002,0.003,-0.002
2026-01-05 21:26:47.449,289.495,-0.002,0.0,0.001,-0.027,0.03,-0.996,13.32,29.66,-141.94,0.3257,0.0159,-0.5855,0.742,0.002,0.005,0.0
2026-01-05 21:26:47.449,289.5,0.0,0.001,0.001,-0.025,0.032,-0.995,13.32,29.66,-141.94,0.3257,0.0159,-0.5856,0.742,0.003,0.005,-0.002
2026-01-05 21:26:47.449,289.505,0.0,0.001,-0.001,-0.026000000000000002,0.03,-1.0,13.32,29.66,-141.94,0.3257,0.0159,-0.5856,0.742,0.0,0.002,0.0
2026-01-05 21:26:47.453,289.51,0.0,0.003,-0.001,-0.023,0.031,-1.0,13.38,29.580000000000002,-141.82,0.3257,0.0159,-0.5856,0.742,0.0,0.001,-0.002
2026-01-05 21:26:47.453,289.515,0.0,0.001,0.0,-0.026000000000000002,0.031,-0.996,13.38,29.580000000000002,-141.82,0.3257,0.0159,-0.5856,0.742,0.002,0.005,-0.001
2026-01-05 21:26:47.455,289.52,-0.002,0.001,0.0,-0.027,0.032,-0.995,13.32,27.740000000000002,-141.77,0.3257,0.016,-0.5856,0.742,0.004,0.005,0.0
2026-01-05 21:26:47.456,289.525,0.001,0.0,0.0,-0.025,0.028,-1.0,13.32,27.740000000000002,-141.77,0.3257,0.0159,-0.5855,0.742,0.0,0.003,0.0
2026-01-05 21:26:47.456,289.53,0.0,0.001,0.0,-0.026000000000000002,0.031,-0.995,13.32,27.740000000000002,-141.77,0.3257,0.0159,-0.5855,0.7421,0.002,0.006,-0.002
2026-01-05 21:26:47.457,289.535,-0.003,0.001,0.0,-0.025,0.03,-0.996,13.85,29.87,-142.35,0.32580000000000003,0.0159,-0.5855,0.742,0.001,0.005,-0.001
2026-01-05 21:26:47.457,289.54,0.0,-0.002,0.0,-0.025,0.029,-0.998,13.85,29.87,-142.35,0.32580000000000003,0.0158,-0.5855,0.742,0.0,0.004,-0.001
2026-01-05 21:26:47.460,289.545,-0.002,0.0,0.0,-0.025,0.03,-1.0,14.55,29.78,-141.65,0.32580000000000003,0.0158,-0.5855,0.742,0.0,0.001,0.0
2026-01-05 21:26:47.460,289.55,0.002,0.0,0.001,-0.026000000000000002,0.03,-0.994,14.55,29.78,-141.65,0.32580000000000003,0.0158,-0.5855,0.7421,0.003,0.006,-0.001
2026-01-05 21:26:47.460,289.555,0.001,0.001,0.002,-0.025,0.032,-0.999,14.55,29.78,-141.65,0.32580000000000003,0.0158,-0.5855,0.742,0.001,0.002,-0.002
2026-01-05 21:26:47.461,289.56,0.001,-0.001,0.0,-0.026000000000000002,0.029,-0.994,13.620000000000001,30.04,-141.91,0.32580000000000003,0.0158,-0.5854,0.7421,0.002,0.008,0.0
2026-01-05 21:26:47.461,289.565,-0.004,0.001,0.0,-0.026000000000000002,0.03,-0.997,13.620000000000001,30.04,-141.91,0.32580000000000003,0.0158,-0.5854,0.7421,0.001,0.005,-0.001
2026-01-05 21:26:47.461,289.57,0.0,-0.001,0.001,-0.025,0.031,-1.0010000000000001,13.73,29.64,-141.53,0.32580000000000003,0.0158,-0.5854,0.7421,0.0,0.0,0.0
2026-01-05 21:26:47.461,289.575,0.0,0.0,0.0,-0.026000000000000002,0.031,-0.99,13.73,29.64,-141.53,0.32580000000000003,0.0159,-0.5854,0.7421,0.005,0.009000000000000001,-0.003
2026-01-05 21:26:47.465,289.58,-0.002,0.0,0.001,-0.024,0.031,-0.999,14.64,30.28,-141.24,0.32580000000000003,0.0158,-0.5855,0.7421,0.0,0.002,-0.001
2026-01-05 21:26:47.466,289.585,0.002,-0.004,0.001,-0.025,0.031,-0.994,14.64,30.28,-141.24,0.32580000000000003,0.0159,-0.5855,0.7421,0.003,0.006,-0.003
2026-01-05 21:26:47.467,289.59,-0.002,0.0,0.001,-0.026000000000000002,0.031,-1.0010000000000001,14.64,30.28,-141.24,0.32580000000000003,0.0159,-0.5855,0.7421,0.0,0.0,0.0
2026-01-05 21:26:47.468,289.595,0.002,-0.001,0.001,-0.025,0.032,-1.002,13.32,28.96,-141.15,0.32580000000000003,0.0159,-0.5855,0.7421,0.0,0.0,0.0
2026-01-05 21:26:47.469,289.6,0.003,0.001,0.001,-0.026000000000000002,0.03,-0.992,13.32,28.96,-141.15,0.32580000000000003,0.0159,-0.5855,0.7421,0.003,0.008,-0.002
2026-01-05 21:26:47.470,289.605,0.001,0.0,0.0,-0.025,0.031,-0.997,13.41,29.46,-142.12,0.32580000000000003,0.0159,-0.5855,0.742,0.001,0.004,-0.002
2026-01-05 21:26:47.471,289.61,0.004,-0.006,0.001,-0.024,0.03,-0.999,13.41,29.46,-142.12,0.32580000000000003,0.0158,-0.5855,0.742,0.0,0.002,-0.001
2026-01-05 21:26:47.471,289.615,0.0,0.0,0.0,-0.026000000000000002,0.03,-1.0,13.41,29.46,-142.12,0.32580000000000003,0.0158,-0.5855,0.742,0.0,0.002,0.0
2026-01-05 21:26:47.471,289.62,0.0,-0.003,0.002,-0.025,0.029,-1.0,13.700000000000001,28.17,-142.96,0.3259,0.0158,-0.5855,0.742,0.0,0.002,0.0
2026-01-05 21:26:47.471,289.625,0.0,-0.003,0.0,-0.025,0.028,-0.996,13.700000000000001,28.17,-142.96,0.3259,0.015700000000000002,-0.5854,0.7421,0.0,0.005,0.0
2026-01-05 21:26:47.472,289.63,0.003,-0.004,0.002,-0.025,0.031,-0.996,14.23,27.59,-141.77,0.3259,0.015700000000000002,-0.5854,0.7421,0.002,0.005,-0.002
2026-01-05 21:26:47.476,289.635,0.002,-0.003,0.0,-0.025,0.029,-0.997,14.23,27.59,-141.77,0.326,0.015700000000000002,-0.5854,0.7421,0.0,0.004,0.0
2026-01-05 21:26:47.476,289.64,-0.004,0.007,0.0,-0.026000000000000002,0.03,-0.999,14.23,27.59,-141.77,0.326,0.015700000000000002,-0.5854,0.7421,0.001,0.002,0.0
2026-01-05 21:26:47.476,289.645,0.004,-0.001,0.001,-0.026000000000000002,0.031,-0.998,13.44,27.41,-142.41,0.3259,0.0158,-0.5854,0.7421,0.002,0.002,0.0
2026-01-05 21:26:47.479,289.65,0.001,-0.002,0.0,-0.025,0.028,-0.995,13.44,27.41,-142.41,0.326,0.015700000000000002,-0.5853,0.7421,0.001,0.007,-0.001
2026-01-05 21:26:47.480,289.655,0.0,0.0,0.001,-0.026000000000000002,0.029,-0.998,13.620000000000001,28.47,-142.82,0.326,0.015700000000000002,-0.5853,0.7421,0.001,0.003,0.0
2026-01-05 21:26:47.480,289.66,0.001,-0.001,0.0,-0.027,0.032,-0.998,13.620000000000001,28.47,-142.82,0.326,0.0158,-0.5853,0.7421,0.003,0.002,0.0
2026-01-05 21:26:47.480,289.665,0.0,0.003,0.001,-0.025,0.032,-1.002,13.5,28.580000000000002,-142.32,0.3259,0.0158,-0.5854,0.7421,0.0,-0.001,-0.001
2026-01-05 21:26:47.481,289.67,0.001,-0.005,0.0,-0.026000000000000002,0.029,-0.995,13.5,28.580000000000002,-142.32,0.326,0.0158,-0.5853,0.7421,0.002,0.006,-0.001
2026-01-05 21:26:47.481,289.675,-0.007,0.008,0.0,-0.026000000000000002,0.031,-0.995,13.5,28.580000000000002,-142.32,0.3259,0.0158,-0.5853,0.7421,0.003,0.005,-0.002
2026-01-05 21:26:47.485,289.68,0.01,-0.009000000000000001,0.0,-0.022,0.029,-1.01,13.82,28.93,-142.35,0.326,0.015700000000000002,-0.5854,0.7421,-0.005,-0.006,0.0
2026-01-05 21:26:47.485,289.685,0.002,-0.002,0.0,-0.028,0.027,-0.99,13.82,28.93,-142.35,0.326,0.015700000000000002,-0.5852,0.7421,0.004,0.011,0.0
2026-01-05 21:26:47.486,289.69,-0.006,0.007,0.0,-0.023,0.034,-0.999,13.620000000000001,29.75,-141.39000000000001,0.326,0.015700000000000002,-0.5854,0.7421,0.001,0.0,-0.004
2026-01-05 21:26:47.487,289.695,0.015,-0.018000000000000002,0.001,-0.028,0.03,-0.992,13.620000000000001,29.75,-141.39000000000001,0.326,0.0158,-0.5853,0.7421,0.004,0.008,-0.001
2026-01-05 21:26:47.487,289.7,-0.006,0.005,0.0,-0.028,0.03,-1.0,13.620000000000001,29.75,-141.39000000000001,0.3259,0.0158,-0.5852,0.7422000000000001,0.002,0.001,0.001
2026-01-05 21:26:47.487,289.705,-0.002,0.001,0.001,-0.024,0.032,-1.006,13.73,29.580000000000002,-141.65,0.3259,0.0159,-0.5853,0.7421,-0.001,-0.004,0.0
2026-01-05 21:26:47.488,289.71,0.004,-0.004,0.0,-0.028,0.031,-0.989,13.73,29.580000000000002,-141.65,0.3259,0.0159,-0.5852,0.7422000000000001,0.006,0.01,-0.002
2026-01-05 21:26:47.488,289.715,0.005,-0.004,0.0,-0.026000000000000002,0.031,-1.004,13.18,29.52,-141.21,0.3259,0.016,-0.5852,0.7422000000000001,0.0,-0.002,0.0
2026-01-05 21:26:47.488,289.72,0.002,-0.005,0.0,-0.025,0.028,-0.99,13.18,29.52,-141.21,0.3259,0.0159,-0.5852,0.7422000000000001,0.002,0.011,-0.003
2026-01-05 21:26:47.488,289.725,-0.002,0.002,0.0,-0.026000000000000002,0.033,-0.993,13.18,29.52,-141.21,0.32580000000000003,0.016,-0.5853,0.7422000000000001,0.005,0.006,-0.004
2026-01-05 21:26:47.489,289.73,0.006,-0.011,0.0,-0.027,0.029,-0.994,13.5,28.82,-141.33,0.3259,0.016,-0.5852,0.7423000000000001,0.003,0.007,0.0
2026-01-05 21:26:47.489,289.735,0.002,-0.009000000000000001,0.001,-0.025,0.029,-1.004,13.5,28.82,-141.33,0.3259,0.0159,-0.5852,0.7422000000000001,-0.002,-0.001,0.0
2026-01-05 21:26:47.489,289.74,0.002,-0.004,0.001,-0.026000000000000002,0.03,-1.002,13.44,29.46,-142.15,0.3259,0.0159,-0.5852,0.7422000000000001,0.0,0.0,0.0
2026-01-05 21:26:47.490,289.745,0.002,0.0,0.002,-0.025,0.031,-0.995,13.44,29.46,-142.15,0.3259,0.0159,-0.5852,0.7422000000000001,0.002,0.005,-0.003
2026-01-05 21:26:47.490,289.75,0.004,-0.005,0.0,-0.026000000000000002,0.029,-0.995,13.44,29.46,-141.97,0.326,0.0159,-0.5852,0.7422000000000001,0.001,0.006,-0.001
2026-01-05 21:26:47.490,289.755,-0.003,0.0,-0.002,-0.027,0.029,-0.996,13.21,29.26,-141.97,0.326,0.0159,-0.5851000000000001,0.7423000000000001,0.002,0.005,0.0
2026-01-05 21:26:47.491,289.76,0.003,-0.004,0.0,-0.026000000000000002,0.031,-1.0050000000000001,13.21,29.26,-141.97,0.3259,0.0159,-0.5851000000000001,0.7423000000000001,0.0,-0.003,0.0
2026-01-05 21:26:47.491,289.765,0.001,0.0,0.001,-0.026000000000000002,0.031,-1.0050000000000001,13.09,27.79,-142.18,0.3259,0.0159,-0.5852,0.7422000000000001,-0.001,-0.003,0.0
2026-01-05 21:26:47.491,289.77,0.001,0.002,0.002,-0.027,0.034,-0.999,13.09,27.79,-142.18,0.32580000000000003,0.0161,-0.5852,0.7422000000000001,0.004,0.0,-0.002
2026-01-05 21:26:47.491,289.775,-0.001,0.0,0.0,-0.026000000000000002,0.031,-0.982,13.27,28.88,-141.47,0.32580000000000003,0.0161,-0.5853,0.7422000000000001,0.007,0.016,-0.006
2026-01-05 21:26:47.492,289.78,0.007,-0.011,0.0,-0.02,0.029,-1.0130000000000001,13.27,28.88,-141.47,0.3259,0.0159,-0.5854,0.7421,-0.008,-0.008,0.0
2026-01-05 21:26:47.492,289.785,-0.008,0.005,0.003,-0.029,0.036000000000000004,-0.985,13.27,28.88,-141.47,0.32580000000000003,0.0162,-0.5854,0.7422000000000001,0.011,0.011,-0.004
2026-01-05 21:26:47.492,289.79,0.015,-0.014,0.0,-0.023,0.033,-1.0230000000000001,13.47,29.990000000000002,-142.15,0.32580000000000003,0.0162,-0.5855,0.7421,-0.008,-0.019,0.002
2026-01-05 21:26:47.492,289.795,0.01,-0.013000000000000001,0.001,-0.027,0.025,-0.993,13.47,29.990000000000002,-142.15,0.3259,0.016,-0.5853,0.7421,0.0,0.01,0.0
2026-01-05 21:26:47.507,289.8,-0.019,0.028,0.0,-0.028,0.03,-0.987,13.44,29.78,-142.82,0.3259,0.0161,-0.5853,0.7422000000000001,0.006,0.013000000000000001,-0.002
2026-01-05 21:26:47.507,289.805,0.01,-0.017,-0.001,-0.024,0.034,-0.999,13.44,29.78,-142.82,0.32580000000000003,0.0161,-0.5854,0.7421,0.002,0.001,-0.003
2026-01-05 21:26:47.508,289.81,-0.011,0.011,0.001,-0.027,0.031,-1.006,13.44,29.78,-142.82,0.32580000000000003,0.0161,-0.5854,0.7421,-0.001,-0.003,0.001
2026-01-05 21:26:47.508,289.815,0.008,-0.009000000000000001,0.0,-0.025,0.029,-0.996,13.030000000000001,29.28,-141.42000000000002,0.3259,0.0161,-0.5853,0.7421,0.0,0.005,-0.001
2026-01-05 21:26:47.508,289.82,-0.003,0.005,0.001,-0.027,0.027,-0.993,13.030000000000001,29.28,-141.42000000000002,0.326,0.016,-0.5853,0.7422000000000001,0.001,0.009000000000000001,0.0
2026-01-05 21:26:47.508,289.825,0.009000000000000001,-0.011,0.001,-0.026000000000000002,0.031,-1.008,14.06,28.35,-141.44,0.326,0.016,-0.5853,0.7422000000000001,-0.002,-0.005,0.001
2026-01-05 21:26:47.512,289.83,0.0,-0.001,0.0,-0.027,0.028,-0.996,14.06,28.35,-141.44,0.326,0.0159,-0.5852,0.7422000000000001,0.001,0.006,0.0
2026-01-05 21:26:47.513,289.835,0.0,0.0,0.001,-0.026000000000000002,0.031,-0.989,14.06,28.35,-141.44,0.326,0.016,-0.5852,0.7422000000000001,0.005,0.011,-0.004
2026-01-05 21:26:47.513,289.84,0.005,-0.006,0.0,-0.027,0.03,-1.0,13.700000000000001,29.490000000000002,-142.61,0.326,0.016,-0.5852,0.7422000000000001,0.0,0.001,0.0
2026-01-05 21:26:47.513,289.845,0.004,-0.005,0.0,-0.028,0.028,-1.006,13.700000000000001,29.490000000000002,-142.61,0.3261,0.0159,-0.5851000000000001,0.7423000000000001,-0.001,-0.002,0.003
2026-01-05 21:26:47.513,289.85,-0.004,0.003,0.0,-0.027,0.029,-0.999,13.32,29.87,-142.23,0.3261,0.0159,-0.5851000000000001,0.7423000000000001,0.001,0.003,0.0
2026-01-05 21:26:47.514,289.855,0.001,-0.004,0.001,-0.026000000000000002,0.031,-0.994,13.32,29.87,-142.23,0.3261,0.0159,-0.5851000000000001,0.7423000000000001,0.003,0.006,-0.003
2026-01-05 21:26:47.514,289.86,0.002,-0.001,0.0,-0.027,0.03,-0.994,13.15,28.88,-142.35,0.3261,0.016,-0.5851000000000001,0.7423000000000001,0.003,0.007,-0.002
2026-01-05 21:26:47.514,289.865,-0.001,0.001,0.0,-0.027,0.032,-0.997,13.15,28.88,-142.35,0.326,0.016,-0.5851000000000001,0.7423000000000001,0.003,0.003,-0.002
2026-01-05 21:26:47.514,289.87,0.002,-0.003,0.001,-0.027,0.031,-1.002,13.15,28.88,-142.35,0.326,0.0161,-0.5851000000000001,0.7423000000000001,0.0,0.0,0.0
2026-01-05 21:26:47.515,289.875,0.004,-0.001,0.001,-0.026000000000000002,0.029,-1.0,13.65,28.55,-142.35,0.326,0.016,-0.5850000000000001,0.7423000000000001,0.0,0.001,0.0
2026-01-05 21:26:47.515,289.88,-0.002,0.003,0.0,-0.026000000000000002,0.032,-0.994,13.65,28.55,-142.35,0.326,0.0161,-0.5851000000000001,0.7423000000000001,0.004,0.006,-0.003
2026-01-05 21:26:47.515,289.885,0.001,-0.004,0.0,-0.025,0.029,-0.993,13.18,30.19,-142.15,0.326,0.016,-0.5851000000000001,0.7423000000000001,0.001,0.008,-0.002
2026-01-05 21:26:47.516,289.89,0.002,-0.001,0.003,-0.027,0.029,-1.002,13.18,30.19,-142.15,0.3261,0.016,-0.5850000000000001,0.7423000000000001,0.0,0.0,0.0
2026-01-05 21:26:47.516,289.895,0.003,-0.001,0.002,-0.028,0.03,-1.0010000000000001,13.18,30.19,-142.15,0.3261,0.016,-0.5850000000000001,0.7423000000000001,0.001,0.0,0.001
2026-01-05 21:26:47.516,289.9,0.0,0.001,0.001,-0.026000000000000002,0.028,-0.997,13.620000000000001,29.72,-141.88,0.3261,0.016,-0.5850000000000001,0.7423000000000001,0.0,0.005,-0.001
2026-01-05 21:26:47.517,289.905,0.0,0.0,0.001,-0.027,0.03,-0.995,13.620000000000001,29.72,-141.88,0.3261,0.016,-0.5850000000000001,0.7423000000000001,0.002,0.006,-0.002
2026-01-05 21:26:47.517,289.91,0.0,0.0,0.001,-0.026000000000000002,0.029,-0.999,13.41,29.11,-142.26,0.3261,0.016,-0.5850000000000001,0.7423000000000001,0.0,0.002,0.0
2026-01-05 21:26:47.517,289.915,0.004,-0.002,0.0,-0.025,0.03,-1.0,13.41,29.11,-142.26,0.3261,0.0159,-0.5850000000000001,0.7423000000000001,0.0,0.001,-0.001
2026-01-05 21:26:47.517,289.92,0.001,0.0,0.001,-0.027,0.031,-0.994,13.41,29.11,-142.26,0.3261,0.016,-0.5850000000000001,0.7423000000000001,0.004,0.005,-0.002
2026-01-05 21:26:47.517,289.925,-0.001,0.0,0.001,-0.026000000000000002,0.032,-0.994,13.88,29.55,-141.71,0.3261,0.0161,-0.5850000000000001,0.7423000000000001,0.003,0.005,-0.003
2026-01-05 21:26:47.530,289.93,-0.001,0.0,0.0,-0.025,0.03,-0.998,13.88,29.55,-141.71,0.3261,0.016,-0.5851000000000001,0.7422000000000001,0.0,0.003,-0.002
2026-01-05 21:26:47.530,289.935,0.0,0.002,0.0,-0.025,0.033,-0.998,13.73,30.28,-142.58,0.326,0.0161,-0.5852,0.7422000000000001,0.002,0.002,-0.003
2026-01-05 21:26:47.531,289.94,0.002,-0.003,0.001,-0.025,0.03,-0.995,13.73,30.28,-142.58,0.326,0.016,-0.5852,0.7422000000000001,0.001,0.005,-0.002
2026-01-05 21:26:47.533,289.945,0.0,0.0,0.0,-0.026000000000000002,0.029,-0.998,13.790000000000001,29.810000000000002,-142.58,0.3261,0.016,-0.5852,0.7422000000000001,0.0,0.004,0.0
2026-01-05 21:26:47.534,289.95,0.001,-0.001,0.002,-0.028,0.03,-0.998,13.790000000000001,29.810000000000002,-142.58,0.3261,0.016,-0.5851000000000001,0.7422000000000001,0.002,0.003,0.0
2026-01-05 21:26:47.535,289.955,0.0,0.003,0.0,-0.025,0.03,-1.0010000000000001,13.790000000000001,29.810000000000002,-142.58,0.3261,0.016,-0.5852,0.7422000000000001,0.0,0.0,-0.001
2026-01-05 21:26:47.536,289.96,0.0,-0.001,0.0,-0.025,0.029,-0.994,13.76,29.490000000000002,-142.06,0.3261,0.016,-0.5852,0.7422000000000001,0.001,0.006,-0.002
2026-01-05 21:26:47.536,289.965,-0.005,0.004,-0.001,-0.026000000000000002,0.031,-0.995,13.76,29.490000000000002,-142.06,0.3261,0.016,-0.5852,0.7422000000000001,0.003,0.005,-0.002
2026-01-05 21:26:47.536,289.97,0.002,-0.004,0.001,-0.026000000000000002,0.029,-0.997,13.56,30.28,-142.56,0.3261,0.016,-0.5852,0.7422000000000001,0.001,0.004,-0.001
2026-01-05 21:26:47.536,289.975,-0.001,0.002,0.0,-0.027,0.031,-0.999,13.56,30.28,-142.56,0.3261,0.016,-0.5852,0.7422000000000001,0.001,0.002,0.0
2026-01-05 21:26:47.537,289.98,-0.002,0.002,0.0,-0.025,0.031,-1.002,13.56,30.28,-142.56,0.3261,0.016,-0.5852,0.7421,0.0,0.0,-0.001
2026-01-05 21:26:47.537,289.985,0.002,-0.001,0.0,-0.026000000000000002,0.031,-0.995,13.59,29.14,-142.29,0.3261,0.016,-0.5852,0.7421,0.003,0.005,-0.002
2026-01-05 21:26:47.537,289.99,0.001,0.001,0.0,-0.025,0.031,-0.992,13.59,29.14,-142.29,0.326,0.016,-0.5853,0.7421,0.004,0.008,-0.004
2026-01-05 21:26:47.542,289.995,0.0,-0.003,0.0,-0.026000000000000002,0.03,-1.0,13.76,30.02,-142.47,0.326,0.016,-0.5853,0.7421,0.0,0.001,0.0
2026-01-05 21:26:47.543,290.0,-0.003,0.0,0.001,-0.025,0.031,-1.0010000000000001,13.76,30.02,-142.47,0.326,0.016,-0.5853,0.7421,0.0,0.0,-0.001
2026-01-05 21:26:47.543,290.005,0.001,0.0,0.001,-0.026000000000000002,0.032,-0.996,13.76,30.02,-142.47,0.326,0.0161,-0.5853,0.7421,0.003,0.004,-0.002
2026-01-05 21:26:47.543,290.01,0.0,0.0,0.001,-0.025,0.029,-0.997,13.82,29.2,-141.53,0.326,0.016,-0.5853,0.7421,0.0,0.005,-0.001
2026-01-05 21:26:47.543,290.015,0.0,0.0,0.0,-0.026000000000000002,0.029,-0.997,13.82,29.2,-141.53,0.3261,0.016,-0.5853,0.7421,0.001,0.005,0.0
2026-01-05 21:26:47.544,290.02,0.001,-0.001,0.0,-0.026000000000000002,0.03,-1.0,13.27,29.310000000000002,-142.5,0.3261,0.016,-0.5853,0.7421,0.0,0.001,0.0
2026-01-05 21:26:47.548,290.025,0.0,0.0,0.001,-0.024,0.029,-0.997,13.27,29.310000000000002,-142.5,0.3261,0.0159,-0.5853,0.7421,0.0,0.004,-0.002
2026-01-05 21:26:47.549,290.03,0.001,-0.001,0.002,-0.027,0.03,-0.995,13.27,29.310000000000002,-142.5,0.3261,0.016,-0.5853,0.7421,0.002,0.006,-0.001
2026-01-05 21:26:47.549,290.035,-0.003,0.002,0.0,-0.025,0.031,-0.997,13.21,28.2,-141.94,0.3261,0.016,-0.5853,0.7421,0.002,0.003,-0.002
2026-01-05 21:26:47.552,290.04,0.001,-0.001,0.0,-0.026000000000000002,0.028,-0.999,13.21,28.2,-141.94,0.3262,0.0159,-0.5852,0.7421,0.0,0.003,0.0
2026-01-05 21:26:47.552,290.045,0.002,-0.001,0.001,-0.028,0.032,-0.995,13.68,28.85,-141.88,0.3261,0.016,-0.5852,0.7422000000000001,0.005,0.005,-0.001
2026-01-05 21:26:47.552,290.05,0.004,-0.001,0.0,-0.027,0.03,-0.996,13.68,28.85,-141.88,0.3261,0.016,-0.5851000000000001,0.7422000000000001,0.002,0.005,-0.001
2026-01-05 21:26:47.554,290.055,0.001,0.0,0.001,-0.026000000000000002,0.028,-0.998,13.5,29.900000000000002,-141.39000000000001,0.3262,0.016,-0.5851000000000001,0.7422000000000001,0.0,0.004,0.0
2026-01-05 21:26:47.555,290.06,-0.002,0.001,0.001,-0.028,0.032,-0.998,13.5,29.900000000000002,-141.39000000000001,0.3261,0.0161,-0.5851000000000001,0.7422000000000001,0.003,0.002,0.0
2026-01-05 21:26:47.555,290.065,0.001,-0.001,0.0,-0.027,0.031,-1.0010000000000001,13.5,29.900000000000002,-141.39000000000001,0.3261,0.0161,-0.5851000000000001,0.7422000000000001,0.001,0.0,0.0
2026-01-05 21:26:47.555,290.07,-0.001,0.001,0.0,-0.026000000000000002,0.031,-0.999,13.59,30.19,-141.15,0.3261,0.0161,-0.5851000000000001,0.7422000000000001,0.001,0.002,-0.001
2026-01-05 21:26:47.558,290.075,0.001,-0.001,0.001,-0.028,0.032,-0.989,13.59,30.19,-141.15,0.3261,0.0162,-0.5851000000000001,0.7423000000000001,0.006,0.01,-0.003
2026-01-05 21:26:47.558,290.08,0.002,0.002,0.0,-0.026000000000000002,0.029,-0.998,13.38,30.02,-141.88,0.3261,0.0161,-0.5851000000000001,0.7423000000000001,0.0,0.004,-0.001
2026-01-05 21:26:47.560,290.085,0.001,-0.002,0.0,-0.026000000000000002,0.029,-1.0030000000000001,13.38,30.02,-141.88,0.3261,0.0161,-0.5850000000000001,0.7423000000000001,-0.001,0.0,0.001
2026-01-05 21:26:47.560,290.09,0.0,0.0,0.0,-0.026000000000000002,0.031,-0.998,13.38,30.02,-141.88,0.3261,0.0161,-0.5851000000000001,0.7422000000000001,0.001,0.003,-0.002
2026-01-05 21:26:47.562,290.095,0.001,0.0,0.0,-0.025,0.032,-0.994,13.41,29.23,-141.39000000000001,0.3261,0.0161,-0.5851000000000001,0.7422000000000001,0.003,0.006,-0.004
2026-01-05 21:26:47.562,290.1,0.0,-0.001,0.0,-0.027,0.029,-0.993,13.41,29.23,-141.39000000000001,0.3261,0.0161,-0.5851000000000001,0.7422000000000001,0.003,0.008,-0.002
2026-01-05 21:26:47.562,290.105,0.0,-0.001,0.001,-0.027,0.03,-0.999,13.76,29.75,-141.18,0.3261,0.0161,-0.5850000000000001,0.7423000000000001,0.001,0.002,0.0
2026-01-05 21:26:47.562,290.11,0.002,0.0,0.0,-0.026000000000000002,0.03,-1.0010000000000001,13.76,29.75,-141.18,0.3261,0.0161,-0.5851000000000001,0.7422000000000001,0.0,0.0,0.0
2026-01-05 21:26:47.563,290.115,-0.002,0.003,0.0,-0.025,0.031,-0.996,13.76,29.75,-141.18,0.3261,0.0161,-0.5851000000000001,0.7422000000000001,0.002,0.004,-0.003
2026-01-05 21:26:47.563,290.12,0.0,-0.001,0.0,-0.027,0.03,-0.996,13.41,30.07,-141.91,0.3261,0.0161,-0.5851000000000001,0.7422000000000001,0.002,0.005,-0.001
2026-01-05 21:26:47.563,290.125,0.001,-0.005,0.0,-0.026000000000000002,0.03,-0.997,13.41,30.07,-141.91,0.3261,0.0161,-0.5851000000000001,0.7422000000000001,0.001,0.004,-0.001
2026-01-05 21:26:47.564,290.13,-0.002,0.0,0.001,-0.027,0.032,-0.998,13.21,28.76,-142.35,0.3261,0.0162,-0.5851000000000001,0.7422000000000001,0.002,0.002,-0.001
2026-01-05 21:26:47.564,290.135,0.001,-0.001,0.001,-0.025,0.03,-1.002,13.21,28.76,-142.35,0.3261,0.0161,-0.5851000000000001,0.7422000000000001,-0.001,0.0,0.0
2026-01-05 21:26:47.564,290.14,0.0,0.002,0.0,-0.026000000000000002,0.03,-0.998,13.24,28.82,-142.12,0.3261,0.0161,-0.5851000000000001,0.7422000000000001,0.001,0.003,-0.001
2026-01-05 21:26:47.564,290.145,0.001,-0.001,0.001,-0.027,0.031,-1.0,13.24,28.82,-142.12,0.3261,0.0162,-0.5851000000000001,0.7422000000000001,0.001,0.001,0.0
2026-01-05 21:26:47.565,290.15,0.001,-0.001,0.001,-0.025,0.029,-0.999,13.24,28.82,-142.12,0.3261,0.0161,-0.5851000000000001,0.7422000000000001,-0.001,0.003,-0.001
2026-01-05 21:26:47.565,290.155,0.0,-0.001,0.001,-0.025,0.031,-0.996,13.35,27.09,-141.82,0.3261,0.0161,-0.5852,0.7422000000000001,0.002,0.005,-0.002
2026-01-05 21:26:47.565,290.16,0.0,0.0,0.0,-0.027,0.03,-0.996,13.35,27.09,-141.82,0.3261,0.0161,-0.5851000000000001,0.7422000000000001,0.002,0.005,-0.001
2026-01-05 21:26:47.565,290.165,-0.001,-0.002,0.0,-0.027,0.03,-0.999,13.56,28.44,-142.06,0.3261,0.0161,-0.5851000000000001,0.7422000000000001,0.001,0.002,0.0
2026-01-05 21:26:47.566,290.17,0.0,0.001,0.0,-0.026000000000000002,0.031,-1.0010000000000001,13.56,28.44,-142.06,0.3261,0.0161,-0.5851000000000001,0.7422000000000001,0.0,0.0,-0.001
2026-01-05 21:26:47.566,290.175,0.001,0.0,0.0,-0.027,0.03,-0.997,13.56,28.44,-142.06,0.3261,0.0161,-0.5851000000000001,0.7422000000000001,0.002,0.004,-0.001
2026-01-05 21:26:47.577,290.18,0.001,0.0,0.001,-0.024,0.03,-0.996,13.700000000000001,29.69,-142.29,0.3261,0.0161,-0.5852,0.7421,0.0,0.004,-0.003
2026-01-05 21:26:47.577,290.185,0.002,-0.003,0.0,-0.027,0.031,-0.994,13.700000000000001,29.69,-142.29,0.3261,0.0162,-0.5852,0.7422000000000001,0.004,0.006,-0.002
2026-01-05 21:26:47.578,290.19,0.002,-0.003,0.0,-0.027,0.029,-1.002,13.620000000000001,28.55,-142.29,0.3261,0.0161,-0.5851000000000001,0.7422000000000001,0.0,0.0,0.001
2026-01-05 21:26:47.580,290.195,0.0,0.002,-0.001,-0.026000000000000002,0.028,-0.998,13.620000000000001,28.55,-142.29,0.3262,0.0161,-0.5851000000000001,0.7422000000000001,0.0,0.004,0.0
2026-01-05 21:26:47.581,290.2,-0.001,0.001,0.0,-0.027,0.032,-0.998,13.620000000000001,28.55,-142.29,0.3261,0.0161,-0.5851000000000001,0.7422000000000001,0.002,0.003,-0.001
2026-01-05 21:26:47.581,290.205,0.0,-0.001,0.0,-0.026000000000000002,0.028,-0.995,13.47,29.61,-142.41,0.3262,0.0161,-0.5851000000000001,0.7422000000000001,0.001,0.007,-0.001
2026-01-05 21:26:47.581,290.21,0.0,0.002,0.002,-0.027,0.032,-1.0,13.47,29.61,-142.41,0.3261,0.0161,-0.5851000000000001,0.7422000000000001,0.002,0.001,-0.001
2026-01-05 21:26:47.584,290.215,0.0,0.001,0.0,-0.027,0.03,-0.998,13.85,29.26,-142.12,0.3261,0.0161,-0.5851000000000001,0.7422000000000001,0.001,0.003,0.0
2026-01-05 21:26:47.584,290.22,0.0,0.0,0.002,-0.024,0.029,-0.998,13.85,29.26,-142.12,0.3262,0.016,-0.5851000000000001,0.7422000000000001,0.0,0.004,-0.002
2026-01-05 21:26:47.586,290.225,-0.001,0.0,0.0,-0.026000000000000002,0.033,-0.997,13.44,30.51,-141.97,0.3261,0.0161,-0.5851000000000001,0.7422000000000001,0.003,0.003,-0.002
2026-01-05 21:26:47.586,290.23,0.004,-0.001,0.0,-0.026000000000000002,0.03,-0.994,13.44,30.51,-141.97,0.3261,0.0161,-0.5851000000000001,0.7422000000000001,0.002,0.007,-0.002
2026-01-05 21:26:47.586,290.235,-0.003,0.0,-0.001,-0.025,0.026000000000000002,-0.994,13.44,30.51,-141.97,0.3262,0.016,-0.5851000000000001,0.7422000000000001,0.0,0.008,0.0
2026-01-05 21:26:47.587,290.24,-0.006,0.004,0.001,-0.024,0.033,-1.008,13.700000000000001,29.34,-141.8,0.3262,0.016,-0.5852,0.7421,-0.001,-0.006,-0.001
2026-01-05 21:26:47.589,290.245,0.004,-0.004,0.0,-0.027,0.029,-1.0010000000000001,13.700000000000001,29.34,-141.8,0.3262,0.016,-0.5852,0.7421,0.0,0.001,0.0
2026-01-05 21:26:47.590,290.25,-0.001,0.003,0.001,-0.024,0.029,-0.998,13.3,29.43,-141.91,0.3262,0.0159,-0.5852,0.7421,0.0,0.004,-0.002
2026-01-05 21:26:47.590,290.255,0.0,0.0,0.0,-0.026000000000000002,0.03,-0.993,13.3,29.43,-141.91,0.3262,0.0159,-0.5852,0.7421,0.003,0.008,-0.002
2026-01-05 21:26:47.590,290.26,-0.002,0.003,0.0,-0.025,0.029,-0.991,13.3,29.43,-141.91,0.3262,0.0159,-0.5852,0.7421,0.003,0.009000000000000001,-0.003
2026-01-05 21:26:47.590,290.265,-0.002,-0.001,0.0,-0.024,0.033,-0.997,13.91,29.93,-141.94,0.3262,0.016,-0.5853,0.742,0.002,0.003,-0.003
2026-01-05 21:26:47.593,290.27,-0.002,-0.001,0.001,-0.026000000000000002,0.031,-1.0,13.91,29.93,-141.94,0.3261,0.016,-0.5853,0.742,0.001,0.001,0.0
2026-01-05 21:26:47.595,290.275,-0.002,0.0,0.0,-0.026000000000000002,0.03,-1.008,13.65,29.78,-142.35,0.3262,0.016,-0.5853,0.7421,-0.002,-0.004,0.002
2026-01-05 21:26:47.595,290.28,-0.002,0.001,0.0,-0.027,0.031,-0.99,13.65,29.78,-142.35,0.3261,0.016,-0.5853,0.7421,0.005,0.009000000000000001,-0.002
2026-01-05 21:26:47.595,290.285,0.0,0.0,0.0,-0.024,0.029,-0.994,13.65,29.78,-142.35,0.3262,0.016,-0.5853,0.742,0.001,0.007,-0.003
2026-01-05 21:26:47.596,290.29,-0.001,0.0,0.0,-0.025,0.027,-1.0,13.88,28.900000000000002,-142.41,0.3262,0.0159,-0.5853,0.742,-0.001,0.003,0.0
2026-01-05 21:26:47.599,290.295,-0.004,0.001,0.001,-0.029,0.032,-0.998,13.88,28.900000000000002,-142.41,0.3262,0.016,-0.5852,0.7421,0.004,0.002,0.0
2026-01-05 21:26:47.599,290.3,0.003,-0.004,0.0,-0.026000000000000002,0.032,-0.998,13.700000000000001,27.12,-142.76,0.3261,0.0161,-0.5852,0.7421,0.002,0.002,-0.001
2026-01-05 21:26:47.599,290.305,-0.002,-0.001,0.0,-0.024,0.031,-1.0,13.700000000000001,27.12,-142.76,0.3261,0.0161,-0.5853,0.7421,0.0,0.001,-0.002
2026-01-05 21:26:47.599,290.31,-0.005,0.001,0.002,-0.027,0.031,-0.99,13.700000000000001,27.12,-142.76,0.3261,0.0161,-0.5853,0.7421,0.005,0.009000000000000001,-0.002
2026-01-05 21:26:47.600,290.315,0.001,-0.004,0.0,-0.027,0.031,-0.994,13.44,29.66,-141.8,0.326,0.0162,-0.5852,0.7421,0.004,0.006,-0.001
2026-01-05 21:26:47.603,290.32,0.0,0.001,0.001,-0.024,0.029,-1.004,13.44,29.66,-141.8,0.3261,0.0161,-0.5853,0.7421,-0.003,0.0,0.0
2026-01-05 21:26:47.603,290.325,0.001,0.0,0.0,-0.029,0.031,-1.0010000000000001,13.3,29.14,-141.8,0.3261,0.0162,-0.5852,0.7422000000000001,0.002,0.0,0.001
2026-01-05 21:26:47.603,290.33,0.004,-0.002,0.0,-0.026000000000000002,0.028,-0.994,13.3,29.14,-141.8,0.3261,0.0161,-0.5851000000000001,0.7422000000000001,0.001,0.007,-0.001
2026-01-05 21:26:47.606,290.335,0.0,-0.003,0.0,-0.026000000000000002,0.029,-0.996,13.47,29.990000000000002,-142.0,0.3262,0.0161,-0.5851000000000001,0.7422000000000001,0.0,0.005,-0.001
2026-01-05 21:26:47.606,290.34,0.0,0.002,0.0,-0.029,0.031,-0.995,13.47,29.990000000000002,-142.0,0.3261,0.0161,-0.5851000000000001,0.7422000000000001,0.004,0.005,0.0
2026-01-05 21:26:47.607,290.345,0.001,0.001,0.0,-0.026000000000000002,0.03,-1.002,13.47,29.990000000000002,-142.0,0.3261,0.0161,-0.5851000000000001,0.7422000000000001,0.0,0.0,0.0
2026-01-05 21:26:47.608,290.35,0.001,0.001,0.001,-0.027,0.031,-0.995,13.68,28.73,-141.91,0.3261,0.0162,-0.5851000000000001,0.7422000000000001,0.003,0.005,-0.001
2026-01-05 21:26:47.608,290.355,0.001,0.0,0.0,-0.027,0.029,-0.997,13.68,28.73,-141.91,0.3262,0.0161,-0.5850000000000001,0.7423000000000001,0.001,0.004,0.0
2026-01-05 21:26:47.610,290.36,-0.001,-0.001,0.001,-0.026000000000000002,0.029,-1.0,13.06,28.990000000000002,-142.53,0.3262,0.0161,-0.5850000000000001,0.7422000000000001,0.0,0.002,0.0
2026-01-05 21:26:47.610,290.365,0.001,0.0,0.0,-0.027,0.033,-0.997,13.06,28.990000000000002,-142.53,0.3261,0.0162,-0.5851000000000001,0.7422000000000001,0.004,0.002,-0.002
2026-01-05 21:26:47.611,290.37,-0.001,-0.001,0.001,-0.026000000000000002,0.031,-0.994,13.06,28.990000000000002,-142.53,0.3261,0.016300000000000002,-0.5851000000000001,0.7422000000000001,0.003,0.006,-0.002
2026-01-05 21:26:47.613,290.375,-0.003,0.001,0.001,-0.025,0.03,-0.997,13.44,28.44,-142.38,0.3261,0.0162,-0.5851000000000001,0.7422000000000001,0.0,0.004,-0.002
2026-01-05 21:26:47.613,290.38,0.0,0.001,0.001,-0.027,0.031,-0.999,13.44,28.44,-142.38,0.3261,0.0162,-0.5851000000000001,0.7422000000000001,0.001,0.002,0.0
2026-01-05 21:26:47.613,290.385,-0.001,-0.001,0.001,-0.026000000000000002,0.031,-0.999,13.3,29.28,-142.73,0.3261,0.016300000000000002,-0.5851000000000001,0.7422000000000001,0.001,0.002,-0.001
2026-01-05 21:26:47.614,290.39,0.001,-0.002,0.0,-0.027,0.029,-0.997,13.3,29.28,-142.73,0.3261,0.0162,-0.5851000000000001,0.7422000000000001,0.0,0.005,0.0
2026-01-05 21:26:47.614,290.395,-0.001,0.001,0.0,-0.026000000000000002,0.03,-0.991,13.3,29.28,-142.73,0.3261,0.0162,-0.5851000000000001,0.7422000000000001,0.003,0.009000000000000001,-0.003
2026-01-05 21:26:47.617,290.4,-0.002,0.002,0.001,-0.025,0.028,-1.0,14.76,28.52,-142.61,0.3262,0.0161,-0.5851000000000001,0.7422000000000001,-0.001,0.002,0.0
2026-01-05 21:26:47.617,290.405,0.0,0.002,0.0,-0.027,0.032,-0.999,14.76,28.52,-142.61,0.3261,0.0162,-0.5851000000000001,0.7422000000000001,0.002,0.001,-0.001
2026-01-05 21:26:47.617,290.41,0.0,-0.001,0.0,-0.025,0.032,-0.997,13.38,29.69,-142.47,0.3261,0.0162,-0.5852,0.7422000000000001,0.001,0.003,-0.003
2026-01-05 21:26:47.620,290.415,-0.001,0.0,0.0,-0.024,0.028,-0.995,13.38,29.69,-142.47,0.3261,0.0161,-0.5852,0.7421,0.0,0.006,-0.002
2026-01-05 21:26:47.620,290.42,0.0,0.0,0.001,-0.027,0.03,-0.996,13.59,29.37,-142.47,0.3262,0.0161,-0.5852,0.7421,0.002,0.005,-0.001
2026-01-05 21:26:47.621,290.425,-0.001,0.001,0.001,-0.026000000000000002,0.029,-1.0010000000000001,13.59,29.37,-142.47,0.3262,0.0161,-0.5852,0.7421,0.0,0.0,0.0
2026-01-05 21:26:47.623,290.43,0.001,0.0,0.0,-0.026000000000000002,0.031,-1.0010000000000001,13.59,29.37,-142.47,0.3262,0.0161,-0.5852,0.7421,0.0,0.0,0.0
2026-01-05 21:26:47.624,290.435,-0.002,0.001,0.0,-0.027,0.031,-0.995,13.56,29.400000000000002,-142.70000000000002,0.3261,0.0162,-0.5852,0.7422000000000001,0.003,0.005,-0.001
2026-01-05 21:26:47.624,290.44,0.0,-0.001,0.001,-0.027,0.031,-0.994,13.56,29.400000000000002,-142.70000000000002,0.3261,0.0162,-0.5851000000000001,0.7422000000000001,0.003,0.007,-0.002
2026-01-05 21:26:47.624,290.445,-0.002,-0.002,0.001,-0.025,0.031,-0.999,13.5,29.93,-141.82,0.3261,0.0162,-0.5852,0.7421,0.0,0.002,-0.002
2026-01-05 21:26:47.624,290.45,-0.003,0.0,0.001,-0.027,0.031,-1.002,13.5,29.93,-141.82,0.3261,0.0162,-0.5852,0.7421,0.0,0.0,0.0
2026-01-05 21:26:47.625,290.455,0.003,0.001,0.002,-0.027,0.03,-0.998,13.5,29.93,-141.82,0.3261,0.0162,-0.5852,0.7421,0.001,0.003,0.0
2026-01-05 21:26:47.625,290.46,-0.001,0.001,0.0,-0.026000000000000002,0.031,-0.994,13.59,29.28,-142.67000000000002,0.3261,0.0162,-0.5852,0.7421,0.003,0.007,-0.002
2026-01-05 21:26:47.625,290.465,-0.002,-0.002,0.0,-0.026000000000000002,0.03,-0.997,13.59,29.28,-142.67000000000002,0.3261,0.0162,-0.5852,0.7421,0.001,0.004,-0.001
2026-01-05 21:26:47.626,290.47,0.001,-0.001,0.0,-0.026000000000000002,0.029,-0.998,13.47,29.02,-142.26,0.3261,0.0162,-0.5852,0.7422000000000001,0.0,0.003,0.0
2026-01-05 21:26:47.626,290.475,0.0,-0.001,0.0,-0.027,0.031,-0.997,13.47,29.02,-142.26,0.3261,0.0162,-0.5852,0.7422000000000001,0.002,0.003,-0.001
2026-01-05 21:26:47.632,290.48,-0.002,0.0,-0.001,-0.026000000000000002,0.03,-0.993,13.47,29.02,-142.26,0.3261,0.0162,-0.5851000000000001,0.7422000000000001,0.002,0.007,-0.002
2026-01-05 21:26:47.632,290.485,0.0,-0.001,-0.001,-0.027,0.028,-0.999,13.790000000000001,30.04,-142.0,0.3262,0.0162,-0.5851000000000001,0.7422000000000001,0.0,0.003,0.0
2026-01-05 21:26:47.634,290.49,-0.002,0.0,0.001,-0.027,0.03,-0.998,13.790000000000001,30.04,-142.0,0.3262,0.0162,-0.5851000000000001,0.7422000000000001,0.001,0.003,0.0
2026-01-05 21:26:47.634,290.495,0.001,-0.001,0.0,-0.025,0.031,-0.997,13.47,29.78,-141.74,0.3262,0.0162,-0.5851000000000001,0.7422000000000001,0.001,0.004,-0.002
2026-01-05 21:26:47.635,290.5,0.004,0.0,0.001,-0.026000000000000002,0.029,-0.995,13.47,29.78,-141.74,0.3262,0.0162,-0.5851000000000001,0.7422000000000001,0.001,0.005,-0.001
2026-01-05 21:26:47.637,290.505,-0.003,0.001,0.001,-0.026000000000000002,0.031,-0.995,13.47,29.78,-141.65,0.3262,0.0162,-0.5851000000000001,0.7422000000000001,0.002,0.006,-0.002
2026-01-05 21:26:47.637,290.51,0.002,-0.001,0.002,-0.027,0.029,-1.0,14.11,30.1,-141.65,0.3262,0.0161,-0.5850000000000001,0.7422000000000001,0.0,0.002,0.0
2026-01-05 21:26:47.639,290.515,0.001,-0.001,0.0,-0.028,0.031,-0.998,14.11,30.1,-141.65,0.3262,0.0162,-0.5850000000000001,0.7423000000000001,0.002,0.003,0.0
2026-01-05 21:26:47.640,290.52,0.001,0.0,0.0,-0.026000000000000002,0.033,-0.996,13.82,29.52,-142.0,0.3261,0.016300000000000002,-0.5851000000000001,0.7422000000000001,0.003,0.003,-0.003
2026-01-05 21:26:47.640,290.525,0.001,-0.002,0.0,-0.025,0.029,-0.992,13.82,29.52,-142.0,0.3262,0.0162,-0.5851000000000001,0.7422000000000001,0.001,0.009000000000000001,-0.003
2026-01-05 21:26:47.640,290.53,-0.002,0.001,0.0,-0.025,0.03,-0.995,13.85,29.72,-141.74,0.3262,0.0162,-0.5851000000000001,0.7422000000000001,0.001,0.005,-0.002
2026-01-05 21:26:47.640,290.535,-0.003,0.001,0.001,-0.026000000000000002,0.031,-1.002,13.85,29.72,-141.74,0.3262,0.0162,-0.5851000000000001,0.7422000000000001,0.0,0.0,0.0
2026-01-05 21:26:47.641,290.54,0.002,-0.001,-0.001,-0.025,0.03,-0.998,13.85,29.72,-141.74,0.3262,0.0162,-0.5851000000000001,0.7421,0.0,0.003,-0.002
2026-01-05 21:26:47.641,290.545,0.0,0.0,0.0,-0.025,0.032,-0.994,14.11,29.080000000000002,-141.94,0.3261,0.0162,-0.5852,0.7421,0.003,0.006,-0.003
2026-01-05 21:26:47.641,290.55,-0.002,0.0,0.001,-0.027,0.031,-0.994,14.11,29.080000000000002,-141.94,0.3261,0.0162,-0.5852,0.7421,0.003,0.007,-0.002
2026-01-05 21:26:47.641,290.555,0.0,0.0,0.001,-0.025,0.029,-0.998,13.38,28.990000000000002,-141.94,0.3262,0.0162,-0.5852,0.7421,0.0,0.003,-0.001
2026-01-05 21:26:47.647,290.56,-0.002,0.001,0.001,-0.027,0.031,-0.998,13.38,28.990000000000002,-141.94,0.3261,0.0162,-0.5852,0.7421,0.001,0.002,0.0
2026-01-05 21:26:47.647,290.565,0.003,0.0,0.0,-0.026000000000000002,0.031,-0.997,13.38,28.990000000000002,-141.94,0.3261,0.0162,-0.5852,0.7421,0.002,0.004,-0.001
2026-01-05 21:26:47.647,290.57,0.0,-0.004,0.001,-0.025,0.029,-0.996,14.030000000000001,28.5,-142.38,0.3262,0.0161,-0.5852,0.7421,0.0,0.005,-0.002
2026-01-05 21:26:47.648,290.575,-0.001,0.001,0.0,-0.026000000000000002,0.031,-0.997,14.030000000000001,28.5,-142.38,0.3262,0.0162,-0.5852,0.7421,0.002,0.003,-0.002
2026-01-05 21:26:47.648,290.58,0.004,-0.003,0.0,-0.026000000000000002,0.031,-0.997,13.790000000000001,28.47,-142.20000000000002,0.3262,0.0162,-0.5852,0.7421,0.001,0.003,-0.001
2026-01-05 21:26:47.648,290.585,0.0,0.0,0.001,-0.025,0.031,-0.996,13.790000000000001,28.47,-142.20000000000002,0.3261,0.0162,-0.5853,0.7421,0.002,0.004,-0.003
2026-01-05 21:26:47.648,290.59,0.0,-0.001,0.0,-0.028,0.031,-0.998,13.790000000000001,28.47,-142.20000000000002,0.3261,0.0162,-0.5852,0.7421,0.002,0.003,0.0
2026-01-05 21:26:47.649,290.595,0.001,0.0,0.0,-0.027,0.029,-0.995,13.790000000000001,28.38,-142.06,0.3262,0.0162,-0.5851000000000001,0.7422000000000001,0.001,0.006,0.0
2026-01-05 21:26:47.649,290.6,0.001,-0.003,0.0,-0.027,0.03,-1.002,13.790000000000001,28.38,-142.06,0.3262,0.0162,-0.5851000000000001,0.7422000000000001,0.0,0.0,0.0
2026-01-05 21:26:47.649,290.605,0.001,0.0,0.001,-0.028,0.031,-0.995,14.38,27.79,-142.88,0.3262,0.0162,-0.5851000000000001,0.7422000000000001,0.003,0.005,-0.001
2026-01-05 21:26:47.649,290.61,0.0,0.0,-0.001,-0.025,0.03,-0.994,14.38,27.79,-142.88,0.3262,0.0162,-0.5851000000000001,0.7422000000000001,0.001,0.006,-0.002
2026-01-05 21:26:47.650,290.615,-0.003,0.002,0.0,-0.027,0.031,-0.996,13.88,29.37,-141.85,0.3261,0.0162,-0.5851000000000001,0.7422000000000001,0.002,0.004,-0.001
2026-01-05 21:26:47.650,290.62,0.002,-0.001,0.0,-0.027,0.031,-0.999,13.88,29.37,-141.85,0.3261,0.016300000000000002,-0.5851000000000001,0.7422000000000001,0.001,0.002,0.0
2026-01-05 21:26:47.650,290.625,0.0,0.0,0.002,-0.026000000000000002,0.03,-1.0,13.88,29.37,-141.85,0.3262,0.0162,-0.5851000000000001,0.7422000000000001,0.0,0.002,0.0
2026-01-05 21:26:47.650,290.63,0.0,0.001,0.001,-0.026000000000000002,0.032,-0.989,13.88,28.14,-142.47,0.3261,0.016300000000000002,-0.5851000000000001,0.7422000000000001,0.005,0.01,-0.004
2026-01-05 21:26:47.651,290.635,0.0,-0.001,0.0,-0.027,0.03,-0.992,13.88,28.14,-142.47,0.3261,0.016300000000000002,-0.5851000000000001,0.7422000000000001,0.003,0.008,-0.002
2026-01-05 21:26:47.651,290.64,-0.003,0.002,0.0,-0.026000000000000002,0.031,-0.997,13.68,30.1,-142.41,0.3261,0.016300000000000002,-0.5851000000000001,0.7422000000000001,0.001,0.003,-0.001
2026-01-05 21:26:47.651,290.645,0.001,-0.001,-0.001,-0.025,0.03,-1.0,13.68,30.1,-142.41,0.3261,0.016300000000000002,-0.5851000000000001,0.7422000000000001,0.0,0.001,-0.001
2026-01-05 21:26:47.652,290.65,0.002,-0.001,0.001,-0.027,0.03,-0.994,13.68,30.1,-142.41,0.3261,0.016300000000000002,-0.5851000000000001,0.7422000000000001,0.002,0.006,-0.001
2026-01-05 21:26:47.652,290.655,0.0,-0.002,0.001,-0.026000000000000002,0.032,-0.997,13.41,29.810000000000002,-141.88,0.3261,0.016300000000000002,-0.5851000000000001,0.7422000000000001,0.002,0.003,-0.002
2026-01-05 21:26:47.652,290.66,0.001,0.0,0.002,-0.027,0.03,-1.0,13.41,29.810000000000002,-141.88,0.3261,0.016300000000000002,-0.5851000000000001,0.7422000000000001,0.0,0.001,0.0
2026-01-05 21:26:47.653,290.665,0.0,0.0,0.0,-0.026000000000000002,0.03,-1.0,13.68,29.490000000000002,-142.23,0.3261,0.016300000000000002,-0.5851000000000001,0.7422000000000001,0.0,0.001,0.0
2026-01-05 21:26:47.653,290.67,0.0,0.0,0.0,-0.026000000000000002,0.031,-0.995,13.68,29.490000000000002,-142.23,0.3261,0.016300000000000002,-0.5851000000000001,0.7422000000000001,0.002,0.005,-0.002
2026-01-05 21:26:47.653,290.675,0.001,0.0,0.001,-0.026000000000000002,0.031,-0.998,13.68,29.490000000000002,-142.23,0.3261,0.016300000000000002,-0.5852,0.7422000000000001,0.001,0.003,-0.001
2026-01-05 21:26:47.654,290.68,0.002,-0.003,0.001,-0.027,0.027,-0.999,13.5,30.1,-142.32,0.3262,0.0162,-0.5851000000000001,0.7422000000000001,0.0,0.004,0.0
2026-01-05 21:26:47.654,290.685,0.001,0.0,0.0,-0.027,0.03,-0.998,13.5,30.1,-142.32,0.3262,0.0162,-0.5851000000000001,0.7422000000000001,0.001,0.003,0.0
2026-01-05 21:26:47.654,290.69,0.001,0.002,0.001,-0.024,0.029,-0.998,13.76,29.52,-142.41,0.3262,0.0161,-0.5851000000000001,0.7422000000000001,0.0,0.003,-0.002
2026-01-05 21:26:47.654,290.695,0.002,0.0,0.0,-0.025,0.028,-0.999,13.76,29.52,-142.41,0.32630000000000003,0.016,-0.5851000000000001,0.7421,-0.001,0.003,0.0
2026-01-05 21:26:47.655,290.7,-0.002,0.001,0.001,-0.027,0.03,-0.996,13.38,30.1,-141.8,0.32630000000000003,0.0161,-0.5851000000000001,0.7422000000000001,0.002,0.005,0.0
2026-01-05 21:26:47.655,290.705,0.003,-0.002,0.0,-0.025,0.029,-1.0,13.38,30.1,-141.8,0.3264,0.016,-0.5851000000000001,0.7421,0.0,0.001,0.0
2026-01-05 21:26:47.655,290.71,0.001,0.0,0.001,-0.026000000000000002,0.031,-0.998,13.38,30.1,-141.8,0.32630000000000003,0.016,-0.5851000000000001,0.7421,0.001,0.003,-0.002
2026-01-05 21:26:47.655,290.715,-0.003,0.006,0.0,-0.026000000000000002,0.031,-0.992,13.94,29.23,-141.8,0.32630000000000003,0.0161,-0.5851000000000001,0.7421,0.005,0.007,-0.003
2026-01-05 21:26:47.656,290.72,0.002,-0.001,0.0,-0.028,0.03,-0.996,13.94,29.23,-141.8,0.32630000000000003,0.0161,-0.5851000000000001,0.7422000000000001,0.003,0.005,0.0
2026-01-05 21:26:47.656,290.725,0.0,0.0,0.0,-0.026000000000000002,0.031,-0.998,13.530000000000001,30.48,-141.04,0.3262,0.0162,-0.5851000000000001,0.7422000000000001,0.001,0.002,-0.002
2026-01-05 21:26:47.656,290.73,0.001,0.0,0.0,-0.027,0.029,-0.999,13.530000000000001,30.48,-141.04,0.32630000000000003,0.0161,-0.5851000000000001,0.7422000000000001,0.0,0.002,0.0
2026-01-05 21:26:47.657,290.735,0.002,-0.002,0.0,-0.026000000000000002,0.03,-0.994,13.530000000000001,30.48,-141.04,0.32630000000000003,0.0161,-0.5850000000000001,0.7422000000000001,0.002,0.007,-0.002
2026-01-05 21:26:47.657,290.74,0.0,0.0,0.001,-0.028,0.031,-0.994,14.0,29.11,-142.44,0.3262,0.0162,-0.5850000000000001,0.7422000000000001,0.004,0.006,-0.001
2026-01-05 21:26:47.657,290.745,-0.001,0.0,0.0,-0.027,0.031,-0.997,14.0,29.11,-142.44,0.3262,0.0162,-0.5850000000000001,0.7422000000000001,0.002,0.004,-0.001
2026-01-05 21:26:47.657,290.75,-0.001,0.0,0.0,-0.028,0.027,-0.998,13.94,28.580000000000002,-141.68,0.32630000000000003,0.0162,-0.5849,0.7423000000000001,0.0,0.004,0.001
2026-01-05 21:26:47.658,290.755,-0.002,0.003,0.001,-0.027,0.033,-0.995,13.94,28.580000000000002,-141.68,0.3262,0.016300000000000002,-0.5850000000000001,0.7423000000000001,0.004,0.004,-0.003
2026-01-05 21:26:47.658,290.76,0.005,-0.006,0.0,-0.026000000000000002,0.028,-0.996,13.94,28.580000000000002,-141.68,0.32630000000000003,0.0162,-0.5849,0.7423000000000001,0.0,0.005,-0.001
2026-01-05 21:26:47.658,290.765,-0.001,0.0,0.0,-0.026000000000000002,0.03,-0.997,13.97,30.34,-141.44,0.32630000000000003,0.0162,-0.5849,0.7423000000000001,0.0,0.004,-0.002
2026-01-05 21:26:47.658,290.77,-0.001,0.001,0.0,-0.027,0.031,-1.0,13.97,30.34,-141.44,0.3262,0.0162,-0.5850000000000001,0.7423000000000001,0.001,0.001,-0.001
2026-01-05 21:26:47.659,290.775,0.001,0.0,0.001,-0.025,0.029,-0.998,13.68,30.34,-141.18,0.32630000000000003,0.0162,-0.5850000000000001,0.7422000000000001,0.0,0.004,-0.001
2026-01-05 21:26:47.659,290.78,0.001,0.0,0.0,-0.026000000000000002,0.03,-0.992,13.68,30.34,-141.18,0.32630000000000003,0.0162,-0.5850000000000001,0.7422000000000001,0.003,0.008,-0.002
2026-01-05 21:26:47.659,290.785,-0.002,-0.003,0.0,-0.025,0.03,-0.996,13.68,30.34,-141.18,0.32630000000000003,0.0162,-0.5850000000000001,0.7422000000000001,0.001,0.005,-0.002
2026-01-05 21:26:47.660,290.79,0.0,0.0,0.0,-0.026000000000000002,0.03,-0.999,13.120000000000001,30.13,-142.03,0.32630000000000003,0.0162,-0.5850000000000001,0.7422000000000001,0.0,0.002,-0.001
2026-01-05 21:26:47.690,290.795,0.001,0.002,0.0,-0.027,0.03,-0.996,13.120000000000001,30.13,-142.03,0.32630000000000003,0.0162,-0.5850000000000001,0.7422000000000001,0.002,0.005,-0.001
2026-01-05 21:26:47.692,290.8,0.0,0.0,0.0,-0.027,0.031,-0.996,13.5,29.400000000000002,-141.62,0.32630000000000003,0.0162,-0.5850000000000001,0.7422000000000001,0.002,0.004,-0.001
2026-01-05 21:26:47.692,290.805,0.002,-0.003,0.0,-0.025,0.03,-0.996,13.5,29.400000000000002,-141.62,0.32630000000000003,0.0161,-0.5850000000000001,0.7422000000000001,0.0,0.004,-0.002
2026-01-05 21:26:47.692,290.81,0.0,0.0,0.002,-0.027,0.03,-0.996,13.85,29.93,-141.77,0.32630000000000003,0.0162,-0.5850000000000001,0.7422000000000001,0.002,0.005,-0.001
2026-01-05 21:26:47.693,290.815,0.004,0.0,0.001,-0.026000000000000002,0.031,-0.999,13.85,29.93,-141.77,0.32630000000000003,0.0162,-0.5850000000000001,0.7422000000000001,0.001,0.002,-0.001
2026-01-05 21:26:47.693,290.82,0.001,-0.001,0.001,-0.026000000000000002,0.03,-0.994,13.85,29.93,-141.77,0.32630000000000003,0.0162,-0.5850000000000001,0.7422000000000001,0.002,0.006,-0.002
2026-01-05 21:26:47.696,290.825,-0.003,0.0,0.0,-0.027,0.032,-0.995,13.76,29.05,-141.5,0.3262,0.016300000000000002,-0.5850000000000001,0.7422000000000001,0.004,0.005,-0.002
2026-01-05 21:26:47.696,290.83,0.002,-0.004,0.0,-0.027,0.029,-1.0,13.76,29.05,-141.5,0.32630000000000003,0.0162,-0.5850000000000001,0.7422000000000001,0.0,0.002,0.0
2026-01-05 21:26:47.697,290.835,0.0,0.001,0.0,-0.027,0.031,-1.0,14.55,27.740000000000002,-141.74,0.32630000000000003,0.0162,-0.5850000000000001,0.7422000000000001,0.0,0.001,0.0
2026-01-05 21:26:47.699,290.84,0.0,0.0,0.0,-0.027,0.031,-0.992,14.55,27.740000000000002,-141.74,0.3262,0.016300000000000002,-0.5850000000000001,0.7422000000000001,0.004,0.007,-0.003
2026-01-05 21:26:47.699,290.845,0.0,-0.001,0.0,-0.025,0.029,-0.997,14.55,27.740000000000002,-141.74,0.32630000000000003,0.0162,-0.5850000000000001,0.7422000000000001,0.0,0.005,-0.002
2026-01-05 21:26:47.699,290.85,0.0,0.0,0.0,-0.028,0.029,-1.0010000000000001,13.530000000000001,29.52,-141.3,0.32630000000000003,0.0162,-0.5850000000000001,0.7422000000000001,0.0,0.001,0.001
2026-01-05 21:26:47.700,290.855,-0.003,0.001,0.0,-0.027,0.029,-1.0030000000000001,13.530000000000001,29.52,-141.3,0.32630000000000003,0.0162,-0.5850000000000001,0.7422000000000001,-0.001,0.0,0.001
2026-01-05 21:26:47.700,290.86,0.002,0.002,0.001,-0.027,0.03,-0.996,14.200000000000001,30.37,-141.62,0.32630000000000003,0.0162,-0.5849,0.7423000000000001,0.002,0.005,-0.001
2026-01-05 21:26:47.700,290.865,0.0,0.0,0.0,-0.027,0.032,-0.991,14.200000000000001,30.37,-141.62,0.32630000000000003,0.016300000000000002,-0.5849,0.7423000000000001,0.005,0.008,-0.003
2026-01-05 21:26:47.704,290.87,0.0,-0.003,0.001,-0.025,0.029,-0.999,14.200000000000001,30.37,-141.62,0.32630000000000003,0.0162,-0.5850000000000001,0.7422000000000001,0.0,0.002,-0.001
2026-01-05 21:26:47.705,290.875,0.0,-0.001,0.0,-0.026000000000000002,0.029,-1.002,13.65,30.34,-141.44,0.32630000000000003,0.0162,-0.5849,0.7422000000000001,0.0,0.0,0.0
2026-01-05 21:26:47.705,290.88,-0.002,0.0,0.001,-0.027,0.031,-0.997,13.65,30.34,-141.44,0.32630000000000003,0.0162,-0.5849,0.7423000000000001,0.003,0.003,-0.001
2026-01-05 21:26:47.706,290.885,0.0,0.004,0.002,-0.025,0.031,-0.997,13.91,30.48,-142.09,0.32630000000000003,0.0162,-0.5850000000000001,0.7422000000000001,0.001,0.003,-0.003
2026-01-05 21:26:47.706,290.89,0.0,-0.001,0.0,-0.026000000000000002,0.029,-0.994,13.91,30.48,-142.09,0.32630000000000003,0.0162,-0.5850000000000001,0.7422000000000001,0.002,0.007,-0.001
2026-01-05 21:26:47.706,290.895,0.001,-0.001,0.0,-0.027,0.031,-0.995,14.55,29.52,-142.03,0.32630000000000003,0.0162,-0.5850000000000001,0.7422000000000001,0.003,0.005,-0.002
2026-01-05 21:26:47.706,290.9,0.001,0.0,-0.001,-0.024,0.03,-1.002,14.55,29.52,-142.03,0.32630000000000003,0.0162,-0.5851000000000001,0.7421,-0.001,0.0,-0.001
2026-01-05 21:26:47.707,290.905,-0.002,0.001,0.002,-0.027,0.03,-0.996,14.55,29.52,-142.03,0.32630000000000003,0.0162,-0.5851000000000001,0.7422000000000001,0.002,0.005,-0.001
2026-01-05 21:26:47.707,290.91,-0.003,0.001,0.0,-0.026000000000000002,0.031,-0.996,13.5,29.87,-141.65,0.32630000000000003,0.0162,-0.5851000000000001,0.7422000000000001,0.002,0.004,-0.002
2026-01-05 21:26:47.707,290.915,0.001,-0.004,0.001,-0.026000000000000002,0.027,-1.0,13.5,29.87,-141.65,0.32630000000000003,0.0162,-0.5850000000000001,0.7422000000000001,-0.001,0.003,0.0
2026-01-05 21:26:47.708,290.92,0.0,0.002,0.0,-0.028,0.03,-0.998,13.47,30.66,-142.26,0.32630000000000003,0.0162,-0.5850000000000001,0.7422000000000001,0.002,0.003,0.0
2026-01-05 21:26:47.708,290.925,0.001,0.0,0.0,-0.026000000000000002,0.029,-0.995,13.47,30.66,-142.26,0.3264,0.0162,-0.5850000000000001,0.7422000000000001,0.001,0.006,-0.001
2026-01-05 21:26:47.708,290.93,-0.003,0.0,0.0,-0.026000000000000002,0.027,-0.998,13.47,30.66,-142.26,0.3264,0.0161,-0.5849,0.7422000000000001,0.0,0.004,0.0
2026-01-05 21:26:47.708,290.935,0.0,0.0,0.0,-0.028,0.031,-0.994,12.97,27.41,-142.61,0.3264,0.0162,-0.5849,0.7422000000000001,0.004,0.006,-0.001
2026-01-05 21:26:47.718,290.94,0.0,0.0,0.001,-0.027,0.03,-1.0010000000000001,12.97,27.41,-142.61,0.3264,0.0162,-0.5849,0.7423000000000001,0.0,0.0,0.0
2026-01-05 21:26:47.719,290.945,-0.002,0.0,0.0,-0.026000000000000002,0.029,-0.997,13.65,30.16,-142.09,0.3264,0.0161,-0.5849,0.7422000000000001,0.0,0.004,-0.001
2026-01-05 21:26:47.719,290.95,-0.004,0.004,-0.001,-0.026000000000000002,0.03,-0.993,13.65,30.16,-142.09,0.3264,0.0161,-0.5849,0.7422000000000001,0.003,0.007,-0.002
2026-01-05 21:26:47.719,290.955,0.0,0.002,0.0,-0.025,0.028,-0.998,13.65,30.16,-142.09,0.3264,0.0161,-0.5849,0.7422000000000001,0.0,0.004,-0.001
2026-01-05 21:26:47.720,290.96,-0.003,0.002,0.001,-0.028,0.032,-0.994,13.85,30.28,-141.71,0.32630000000000003,0.0162,-0.5850000000000001,0.7422000000000001,0.005,0.005,-0.002
2026-01-05 21:26:47.720,290.965,0.001,0.0,0.0,-0.028,0.032,-0.998,13.85,30.28,-141.71,0.32630000000000003,0.016300000000000002,-0.5850000000000001,0.7422000000000001,0.003,0.002,-0.001
2026-01-05 21:26:47.723,290.97,0.002,-0.002,0.001,-0.024,0.029,-0.998,13.21,29.93,-142.12,0.32630000000000003,0.0162,-0.5850000000000001,0.7422000000000001,0.0,0.004,-0.002
2026-01-05 21:26:47.723,290.975,-0.003,0.002,0.001,-0.027,0.03,-0.996,13.21,29.93,-142.12,0.32630000000000003,0.0162,-0.5850000000000001,0.7422000000000001,0.002,0.005,-0.001
2026-01-05 21:26:47.723,290.98,0.0,0.0,0.0,-0.027,0.03,-0.994,14.200000000000001,29.580000000000002,-141.74,0.32630000000000003,0.0162,-0.5850000000000001,0.7422000000000001,0.003,0.007,-0.001
2026-01-05 21:26:47.723,290.985,0.0,-0.001,0.0,-0.025,0.031,-1.002,14.200000000000001,29.580000000000002,-141.74,0.32630000000000003,0.0162,-0.5850000000000001,0.7422000000000001,0.0,0.0,-0.001
2026-01-05 21:26:47.724,290.99,-0.001,0.0,0.0,-0.027,0.031,-0.996,14.200000000000001,29.580000000000002,-141.74,0.32630000000000003,0.016300000000000002,-0.5850000000000001,0.7422000000000001,0.002,0.004,-0.001
2026-01-05 21:26:47.724,290.995,0.0,0.001,0.001,-0.026000000000000002,0.03,-0.994,13.65,29.37,-141.5,0.32630000000000003,0.016300000000000002,-0.5851000000000001,0.7422000000000001,0.002,0.006,-0.003
2026-01-05 21:26:47.724,291.0,0.003,-0.004,0.0,-0.025,0.029,-0.997,13.65,29.37,-141.5,0.32630000000000003,0.0162,-0.5851000000000001,0.7421,0.0,0.004,-0.001
2026-01-05 21:26:47.724,291.005,-0.001,0.002,0.001,-0.027,0.031,-0.999,13.76,27.97,-141.8,0.32630000000000003,0.0162,-0.5851000000000001,0.7421,0.001,0.002,-0.001
2026-01-05 21:26:47.725,291.01,0.001,0.0,0.001,-0.025,0.028,-1.0,13.76,27.97,-141.8,0.3264,0.0161,-0.5851000000000001,0.7421,-0.001,0.002,0.0
2026-01-05 21:26:47.725,291.015,-0.001,-0.001,0.0,-0.027,0.029,-0.996,13.76,27.97,-141.8,0.3264,0.0161,-0.5850000000000001,0.7422000000000001,0.002,0.005,0.0
2026-01-05 21:26:47.725,291.02,0.0,0.002,0.001,-0.025,0.03,-0.996,13.18,29.66,-141.85,0.3264,0.0161,-0.5851000000000001,0.7421,0.001,0.004,-0.002
2026-01-05 21:26:47.725,291.025,0.001,-0.001,0.0,-0.027,0.028,-0.999,13.18,29.66,-141.85,0.3264,0.0161,-0.5850000000000001,0.7421,0.0,0.003,0.0
2026-01-05 21:26:47.726,291.03,0.0,0.001,0.001,-0.028,0.031,-0.995,13.68,29.2,-141.91,0.3264,0.0162,-0.5850000000000001,0.7422000000000001,0.004,0.005,-0.001
2026-01-05 21:26:47.735,291.035,-0.001,0.001,0.001,-0.026000000000000002,0.029,-0.995,13.68,29.2,-141.91,0.3264,0.0162,-0.5850000000000001,0.7422000000000001,0.001,0.006,-0.002
2026-01-05 21:26:47.735,291.04,0.0,-0.003,0.001,-0.025,0.029,-0.999,13.68,29.2,-141.91,0.3264,0.0161,-0.5850000000000001,0.7421,0.0,0.002,-0.001
2026-01-05 21:26:47.735,291.045,0.0,0.0,0.001,-0.028,0.03,-0.998,13.700000000000001,28.44,-141.77,0.3264,0.0162,-0.5850000000000001,0.7422000000000001,0.002,0.003,0.0
2026-01-05 21:26:47.738,291.05,0.001,0.0,0.001,-0.027,0.032,-1.0010000000000001,13.700000000000001,28.44,-141.77,0.3264,0.0162,-0.5850000000000001,0.7422000000000001,0.001,0.0,-0.001
2026-01-05 21:26:47.738,291.055,0.001,0.0,0.0,-0.026000000000000002,0.031,-0.994,14.06,29.580000000000002,-142.38,0.3264,0.016300000000000002,-0.5850000000000001,0.7422000000000001,0.003,0.006,-0.002
2026-01-05 21:26:47.739,291.06,-0.002,0.0,0.0,-0.026000000000000002,0.031,-0.992,14.06,29.580000000000002,-142.38,0.32630000000000003,0.016300000000000002,-0.5850000000000001,0.7422000000000001,0.004,0.008,-0.003
2026-01-05 21:26:47.739,291.065,-0.002,0.001,0.002,-0.026000000000000002,0.03,-0.998,14.06,29.580000000000002,-142.38,0.32630000000000003,0.016300000000000002,-0.5850000000000001,0.7422000000000001,0.0,0.004,-0.001
2026-01-05 21:26:47.741,291.07,0.0,-0.001,0.0,-0.026000000000000002,0.03,-1.004,14.61,29.43,-142.20000000000002,0.32630000000000003,0.016300000000000002,-0.5851000000000001,0.7421,-0.001,-0.001,0.0
2026-01-05 21:26:47.741,291.075,0.001,0.001,0.0,-0.028,0.032,-0.997,14.61,29.43,-142.20000000000002,0.32630000000000003,0.016300000000000002,-0.5850000000000001,0.7422000000000001,0.003,0.003,0.0
2026-01-05 21:26:47.742,291.08,0.0,0.007,0.001,-0.026000000000000002,0.029,-0.993,13.85,29.990000000000002,-142.18,0.32630000000000003,0.016300000000000002,-0.5850000000000001,0.7422000000000001,0.001,0.008,-0.002
2026-01-05 21:26:47.744,291.085,-0.003,0.0,0.001,-0.026000000000000002,0.03,-0.994,13.85,29.990000000000002,-142.18,0.32630000000000003,0.016300000000000002,-0.5850000000000001,0.7422000000000001,0.002,0.007,-0.002
2026-01-05 21:26:47.744,291.09,0.0,0.0,0.0,-0.027,0.03,-1.0010000000000001,14.49,29.61,-141.65,0.32630000000000003,0.016300000000000002,-0.5850000000000001,0.7422000000000001,0.0,0.0,0.0
2026-01-05 21:26:47.745,291.095,0.002,-0.002,0.0,-0.025,0.029,-1.0010000000000001,14.49,29.61,-141.65,0.3264,0.0162,-0.5850000000000001,0.7422000000000001,-0.001,0.001,0.0
2026-01-05 21:26:47.745,291.1,0.0,0.0,0.001,-0.026000000000000002,0.031,-0.994,14.49,29.61,-141.65,0.3264,0.016300000000000002,-0.5850000000000001,0.7422000000000001,0.003,0.006,-0.002
2026-01-05 21:26:47.745,291.105,-0.002,-0.001,0.001,-0.026000000000000002,0.029,-0.995,14.32,30.16,-142.26,0.3264,0.0162,-0.5850000000000001,0.7421,0.001,0.006,-0.001
2026-01-05 21:26:47.745,291.11,0.0,-0.001,0.001,-0.025,0.029,-0.997,14.32,30.16,-142.26,0.3264,0.0162,-0.5850000000000001,0.7421,0.0,0.004,-0.001
2026-01-05 21:26:47.746,291.115,-0.002,0.0,0.0,-0.027,0.03,-1.0010000000000001,13.73,29.55,-142.38,0.3264,0.0162,-0.5850000000000001,0.7421,0.0,0.0,0.0
2026-01-05 21:26:47.746,291.12,0.0,0.0,0.001,-0.025,0.031,-0.997,13.73,29.55,-142.38,0.3264,0.0162,-0.5851000000000001,0.7421,0.001,0.003,-0.003
2026-01-05 21:26:47.746,291.125,0.003,-0.001,0.0,-0.026000000000000002,0.031,-0.994,13.73,29.55,-142.38,0.3264,0.0162,-0.5851000000000001,0.7421,0.003,0.006,-0.002
2026-01-05 21:26:47.746,291.13,-0.001,0.0,0.001,-0.028,0.031,-0.994,13.5,30.1,-142.15,0.32630000000000003,0.016300000000000002,-0.5851000000000001,0.7421,0.004,0.006,-0.001
2026-01-05 21:26:47.747,291.135,0.0,0.0,0.0,-0.026000000000000002,0.029,-1.0,13.5,30.1,-142.15,0.3264,0.016300000000000002,-0.5851000000000001,0.7421,0.0,0.002,0.0
2026-01-05 21:26:47.747,291.14,0.0,0.003,0.001,-0.025,0.03,-1.0010000000000001,13.76,30.07,-141.65,0.3264,0.0162,-0.5851000000000001,0.7421,0.0,0.0,-0.001
2026-01-05 21:26:47.747,291.145,-0.002,0.001,0.001,-0.026000000000000002,0.032,-0.994,13.76,30.07,-141.65,0.32630000000000003,0.016300000000000002,-0.5852,0.7421,0.003,0.005,-0.003
2026-01-05 21:26:47.748,291.15,0.001,-0.001,0.001,-0.026000000000000002,0.028,-0.997,13.76,30.07,-141.65,0.3264,0.0162,-0.5851000000000001,0.7421,0.0,0.004,0.0
2026-01-05 21:26:47.748,291.155,0.0,0.001,0.0,-0.027,0.03,-0.999,13.790000000000001,30.04,-141.91,0.3264,0.016300000000000002,-0.5851000000000001,0.7421,0.001,0.002,0.0
2026-01-05 21:26:47.758,291.16,0.0,0.002,0.001,-0.027,0.031,-0.999,13.790000000000001,30.04,-141.91,0.32630000000000003,0.016300000000000002,-0.5851000000000001,0.7421,0.002,0.002,0.0
2026-01-05 21:26:47.758,291.165,0.0,0.0,0.001,-0.027,0.027,-0.997,13.82,29.78,-142.0,0.3264,0.0162,-0.5850000000000001,0.7422000000000001,0.0,0.005,0.0
2026-01-05 21:26:47.758,291.17,-0.002,0.002,0.0,-0.027,0.03,-0.994,13.82,29.78,-142.0,0.3264,0.016300000000000002,-0.5850000000000001,0.7422000000000001,0.003,0.006,-0.002
2026-01-05 21:26:47.761,291.175,0.001,0.001,0.0,-0.026000000000000002,0.029,-0.998,13.68,29.61,-141.77,0.3264,0.0162,-0.5850000000000001,0.7422000000000001,0.0,0.003,-0.001
2026-01-05 21:26:47.761,291.18,0.0,0.002,-0.001,-0.027,0.029,-1.0010000000000001,13.68,29.61,-141.77,0.3264,0.0162,-0.5850000000000001,0.7422000000000001,0.0,0.0,0.0
2026-01-05 21:26:47.761,291.185,-0.002,0.002,0.0,-0.027,0.032,-0.995,13.68,29.61,-141.77,0.3264,0.016300000000000002,-0.5850000000000001,0.7422000000000001,0.004,0.005,-0.002
2026-01-05 21:26:47.762,291.19,-0.001,0.0,0.0,-0.026000000000000002,0.031,-0.995,14.17,29.78,-141.53,0.3264,0.016300000000000002,-0.5851000000000001,0.7421,0.002,0.005,-0.002
2026-01-05 21:26:47.762,291.195,0.0,0.0,0.001,-0.026000000000000002,0.029,-0.997,14.17,29.78,-141.53,0.3264,0.016300000000000002,-0.5850000000000001,0.7421,0.0,0.004,-0.001
2026-01-05 21:26:47.762,291.2,-0.003,0.001,0.001,-0.026000000000000002,0.031,-0.997,13.700000000000001,29.61,-142.29,0.3264,0.016300000000000002,-0.5851000000000001,0.7421,0.002,0.004,-0.001
2026-01-05 21:26:47.762,291.205,0.003,0.0,0.002,-0.025,0.03,-0.998,13.700000000000001,29.61,-142.29,0.3264,0.016300000000000002,-0.5851000000000001,0.7421,0.0,0.003,-0.001
2026-01-05 21:26:47.763,291.21,0.0,0.0,0.003,-0.026000000000000002,0.03,-0.994,13.700000000000001,29.61,-142.29,0.3264,0.016300000000000002,-0.5851000000000001,0.7421,0.002,0.007,-0.003
2026-01-05 21:26:47.763,291.215,-0.002,0.001,0.0,-0.027,0.032,-0.996,13.76,30.07,-141.8,0.32630000000000003,0.016300000000000002,-0.5851000000000001,0.7421,0.003,0.004,-0.002
2026-01-05 21:26:47.763,291.22,0.001,0.0,0.001,-0.026000000000000002,0.029,-1.002,13.76,30.07,-141.8,0.3264,0.016300000000000002,-0.5851000000000001,0.7421,0.0,0.0,0.0
2026-01-05 21:26:47.764,291.225,0.0,0.001,-0.001,-0.026000000000000002,0.031,-1.0,14.26,29.66,-142.26,0.32630000000000003,0.016300000000000002,-0.5852,0.7421,0.0,0.001,-0.001
2026-01-05 21:26:47.764,291.23,0.002,0.0,0.001,-0.025,0.029,-0.992,14.26,29.66,-142.26,0.3264,0.0162,-0.5852,0.742,0.002,0.009000000000000001,-0.003
2026-01-05 21:26:47.764,291.235,0.001,-0.002,0.001,-0.025,0.028,-0.998,14.26,29.66,-142.26,0.3265,0.0162,-0.5852,0.742,0.0,0.004,-0.001
2026-01-05 21:26:47.773,291.24,0.0,0.002,0.0,-0.029,0.031,-0.998,13.68,30.89,-143.08,0.3264,0.0162,-0.5851000000000001,0.7421,0.003,0.002,0.0
2026-01-05 21:26:47.773,291.245,0.0,0.001,0.003,-0.028,0.029,-0.995,13.68,30.89,-143.08,0.3265,0.0162,-0.5850000000000001,0.7421,0.002,0.006,0.0
2026-01-05 21:26:47.774,291.25,0.0,0.0,-0.001,-0.025,0.029,-1.0,13.41,29.14,-142.5,0.3265,0.0162,-0.5850000000000001,0.7421,0.0,0.001,-0.001
2026-01-05 21:26:47.774,291.255,0.0,0.001,0.001,-0.027,0.028,-0.992,13.41,29.14,-142.5,0.3265,0.0162,-0.5850000000000001,0.7421,0.003,0.009000000000000001,-0.001
2026-01-05 21:26:47.774,291.26,0.002,-0.001,0.001,-0.026000000000000002,0.028,-0.999,13.41,29.14,-142.5,0.3265,0.0161,-0.5850000000000001,0.7421,0.0,0.003,0.0
2026-01-05 21:26:47.777,291.265,-0.003,0.004,0.0,-0.027,0.03,-1.0010000000000001,13.97,30.69,-142.70000000000002,0.3265,0.0162,-0.5850000000000001,0.7421,0.0,0.0,0.0
2026-01-05 21:26:47.778,291.27,0.002,0.002,0.0,-0.027,0.03,-0.994,13.97,30.69,-142.70000000000002,0.3265,0.0162,-0.5850000000000001,0.7421,0.003,0.006,-0.001
2026-01-05 21:26:47.779,291.275,0.001,0.0,0.0,-0.025,0.029,-0.996,13.15,27.71,-142.20000000000002,0.3266,0.0161,-0.5850000000000001,0.7421,0.0,0.005,-0.002
2026-01-05 21:26:47.779,291.28,0.0,0.0,0.0,-0.027,0.031,-0.999,13.15,27.71,-142.20000000000002,0.3265,0.0162,-0.5850000000000001,0.7421,0.001,0.001,0.0
2026-01-05 21:26:47.780,291.285,0.001,-0.003,0.0,-0.028,0.03,-0.996,13.76,30.22,-142.26,0.3265,0.0162,-0.5849,0.7422000000000001,0.003,0.005,0.0
2026-01-05 21:26:47.781,291.29,0.0,0.0,0.0,-0.026000000000000002,0.031,-0.998,13.76,30.22,-142.26,0.3265,0.0162,-0.5850000000000001,0.7421,0.001,0.003,-0.002
2026-01-05 21:26:47.781,291.295,-0.002,0.004,0.0,-0.027,0.03,-0.992,13.76,30.22,-142.26,0.3265,0.016300000000000002,-0.5849,0.7422000000000001,0.004,0.008,-0.002
2026-01-05 21:26:47.782,291.3,-0.002,0.002,0.0,-0.026000000000000002,0.03,-0.999,13.56,29.52,-142.0,0.3265,0.0162,-0.5850000000000001,0.7422000000000001,0.0,0.003,-0.001
2026-01-05 21:26:47.782,291.305,0.001,-0.004,0.001,-0.026000000000000002,0.029,-1.0010000000000001,13.56,29.52,-142.0,0.3265,0.0162,-0.5850000000000001,0.7422000000000001,0.0,0.001,0.0
2026-01-05 21:26:47.785,291.31,-0.001,0.0,0.001,-0.028,0.03,-0.999,13.620000000000001,30.34,-142.03,0.3265,0.016300000000000002,-0.5849,0.7422000000000001,0.001,0.001,0.0
2026-01-05 21:26:47.786,291.315,0.002,0.0,0.0,-0.025,0.03,-0.996,13.620000000000001,30.34,-142.03,0.3265,0.016300000000000002,-0.5850000000000001,0.7422000000000001,0.001,0.005,-0.003
2026-01-05 21:26:47.786,291.32,0.001,0.0,0.001,-0.026000000000000002,0.028,-0.998,13.620000000000001,30.34,-142.03,0.3265,0.0162,-0.5849,0.7421,0.0,0.003,0.0
2026-01-05 21:26:47.788,291.325,-0.001,0.003,-0.001,-0.027,0.031,-0.993,13.790000000000001,30.07,-142.47,0.3265,0.0162,-0.5849,0.7422000000000001,0.004,0.006,-0.002
2026-01-05 21:26:47.788,291.33,0.001,-0.002,0.0,-0.026000000000000002,0.031,-1.0030000000000001,13.790000000000001,30.07,-142.47,0.3265,0.0162,-0.5850000000000001,0.7421,0.0,-0.001,0.0
2026-01-05 21:26:47.789,291.335,0.0,0.0,0.0,-0.028,0.029,-0.995,13.700000000000001,30.42,-142.64000000000001,0.3265,0.0162,-0.5849,0.7422000000000001,0.002,0.006,0.0
2026-01-05 21:26:47.789,291.34,0.0,-0.001,0.001,-0.026000000000000002,0.029,-0.994,13.700000000000001,30.42,-142.64000000000001,0.3265,0.0162,-0.5849,0.7422000000000001,0.001,0.007,-0.002
2026-01-05 21:26:47.790,291.345,-0.002,0.0,0.001,-0.025,0.028,-1.0,13.700000000000001,30.42,-142.64000000000001,0.3266,0.0161,-0.5849,0.7421,-0.001,0.002,0.0
2026-01-05 21:26:47.790,291.35,0.0,-0.003,0.002,-0.028,0.033,-0.999,13.530000000000001,29.580000000000002,-142.09,0.3265,0.016300000000000002,-0.5849,0.7422000000000001,0.004,0.001,0.0
2026-01-05 21:26:47.790,291.355,0.001,0.0,0.001,-0.027,0.03,-0.994,13.530000000000001,29.580000000000002,-142.09,0.3265,0.016300000000000002,-0.5849,0.7422000000000001,0.003,0.006,-0.002
2026-01-05 21:26:47.790,291.36,0.001,-0.004,0.0,-0.026000000000000002,0.03,-0.994,13.790000000000001,29.55,-142.82,0.3265,0.016300000000000002,-0.5849,0.7422000000000001,0.002,0.006,-0.002
2026-01-05 21:26:47.791,291.365,-0.003,0.0,0.002,-0.026000000000000002,0.03,-1.002,13.790000000000001,29.55,-142.82,0.3265,0.016300000000000002,-0.5849,0.7422000000000001,0.0,0.0,0.0
2026-01-05 21:26:47.791,291.37,0.0,-0.001,0.0,-0.027,0.029,-1.0,13.030000000000001,29.28,-141.77,0.3265,0.016300000000000002,-0.5849,0.7422000000000001,0.0,0.001,0.0
2026-01-05 21:26:47.791,291.375,0.001,0.001,0.0,-0.026000000000000002,0.029,-1.0,13.030000000000001,29.28,-141.77,0.3265,0.0162,-0.5849,0.7422000000000001,0.0,0.001,0.0
2026-01-05 21:26:47.791,291.38,0.001,0.001,0.0,-0.027,0.031,-0.992,13.030000000000001,29.28,-141.77,0.3265,0.016300000000000002,-0.5849,0.7422000000000001,0.004,0.007,-0.003
2026-01-05 21:26:47.799,291.385,0.001,0.0,0.0,-0.025,0.029,-0.998,13.65,29.87,-142.58,0.3265,0.0162,-0.5850000000000001,0.7421,0.0,0.003,-0.002
2026-01-05 21:26:47.799,291.39,0.0,0.001,0.0,-0.026000000000000002,0.029,-1.0,13.65,29.87,-142.58,0.3266,0.0162,-0.5849,0.7421,0.0,0.002,0.0
2026-01-05 21:26:47.800,291.395,0.0,0.0,0.001,-0.029,0.032,-1.0,13.700000000000001,29.84,-143.37,0.3265,0.016300000000000002,-0.5849,0.7422000000000001,0.003,0.0,0.0
2026-01-05 21:26:47.802,291.4,0.001,0.001,0.0,-0.025,0.031,-0.997,13.700000000000001,29.84,-143.37,0.3265,0.016300000000000002,-0.5850000000000001,0.7421,0.001,0.003,-0.003
2026-01-05 21:26:47.803,291.405,0.0,0.001,0.0,-0.027,0.029,-0.994,13.700000000000001,29.84,-143.37,0.3265,0.016300000000000002,-0.5849,0.7422000000000001,0.002,0.007,-0.001
2026-01-05 21:26:47.804,291.41,-0.001,0.0,0.001,-0.027,0.03,-1.0,13.38,29.17,-143.4,0.3265,0.016300000000000002,-0.5849,0.7422000000000001,0.001,0.001,0.0
2026-01-05 21:26:47.804,291.415,0.001,-0.002,0.0,-0.026000000000000002,0.03,-1.0010000000000001,13.38,29.17,-143.4,0.3265,0.016300000000000002,-0.5850000000000001,0.7421,0.0,0.0,0.0
2026-01-05 21:26:47.804,291.42,0.001,0.002,0.001,-0.026000000000000002,0.031,-0.995,13.38,28.17,-143.99,0.3265,0.016300000000000002,-0.5850000000000001,0.7421,0.002,0.005,-0.002
2026-01-05 21:26:47.804,291.425,0.0,0.001,0.0,-0.027,0.032,-0.995,13.38,28.17,-143.99,0.3264,0.0164,-0.5850000000000001,0.7421,0.003,0.004,-0.002
2026-01-05 21:26:47.805,291.43,0.001,-0.001,0.0,-0.026000000000000002,0.03,-0.994,13.38,28.17,-143.99,0.3265,0.0164,-0.5850000000000001,0.7421,0.002,0.006,-0.002
2026-01-05 21:26:47.805,291.435,-0.001,0.002,0.0,-0.026000000000000002,0.031,-0.996,13.700000000000001,28.2,-143.9,0.3264,0.0164,-0.5851000000000001,0.7421,0.002,0.004,-0.002
2026-01-05 21:26:47.809,291.44,0.002,0.0,0.0,-0.025,0.029,-0.996,13.700000000000001,28.2,-143.9,0.3265,0.016300000000000002,-0.5851000000000001,0.7421,0.0,0.005,-0.002
2026-01-05 21:26:47.809,291.445,0.0,0.0,0.001,-0.026000000000000002,0.029,-0.995,13.88,27.94,-143.61,0.3265,0.016300000000000002,-0.5851000000000001,0.7421,0.001,0.005,-0.001
2026-01-05 21:26:47.810,291.45,0.0,0.0,0.001,-0.028,0.031,-0.997,13.88,27.94,-143.61,0.3264,0.0164,-0.5850000000000001,0.7421,0.003,0.004,-0.001
2026-01-05 21:26:47.812,291.455,0.0,0.0,0.0,-0.026000000000000002,0.03,-1.0010000000000001,13.44,27.82,-143.46,0.3264,0.0164,-0.5851000000000001,0.7421,0.0,0.0,0.0
2026-01-05 21:26:47.812,291.46,0.001,-0.002,0.002,-0.028,0.031,-0.996,13.44,27.82,-143.46,0.3264,0.0164,-0.5850000000000001,0.7421,0.003,0.004,0.0
2026-01-05 21:26:47.812,291.465,-0.002,0.002,0.002,-0.027,0.03,-0.993,13.44,27.82,-143.46,0.3264,0.0164,-0.5850000000000001,0.7421,0.003,0.007,-0.002
2026-01-05 21:26:47.815,291.47,0.0,-0.001,0.001,-0.025,0.029,-0.999,13.35,27.740000000000002,-144.22,0.3265,0.0164,-0.5850000000000001,0.7421,-0.001,0.003,-0.001
2026-01-05 21:26:47.815,291.475,0.0,0.0,0.0,-0.026000000000000002,0.028,-0.999,13.35,27.740000000000002,-144.22,0.3265,0.016300000000000002,-0.5850000000000001,0.7421,0.0,0.003,0.0
2026-01-05 21:26:47.815,291.48,-0.001,-0.001,0.0,-0.026000000000000002,0.029,-0.997,13.41,28.64,-143.49,0.3266,0.016300000000000002,-0.5850000000000001,0.7421,0.0,0.004,0.0
2026-01-05 21:26:47.818,291.485,0.001,0.0,0.0,-0.025,0.029,-0.997,13.41,28.64,-143.49,0.3266,0.0162,-0.5850000000000001,0.7421,0.0,0.004,-0.001
2026-01-05 21:26:47.818,291.49,0.0,0.002,0.0,-0.028,0.03,-0.995,13.41,28.64,-143.49,0.3266,0.016300000000000002,-0.5849,0.7421,0.004,0.006,0.0
2026-01-05 21:26:47.819,291.495,-0.003,0.002,0.0,-0.027,0.03,-0.998,12.92,28.47,-143.23,0.3265,0.016300000000000002,-0.5849,0.7422000000000001,0.002,0.003,0.0
2026-01-05 21:26:47.819,291.5,0.003,-0.004,-0.001,-0.026000000000000002,0.029,-0.996,12.92,28.47,-143.23,0.3266,0.016300000000000002,-0.5849,0.7422000000000001,0.001,0.005,-0.002
2026-01-05 21:26:47.819,291.505,-0.002,0.002,0.0,-0.026000000000000002,0.032,-0.997,13.38,29.02,-143.34,0.3265,0.016300000000000002,-0.5850000000000001,0.7421,0.003,0.002,-0.002
2026-01-05 21:26:47.819,291.51,0.001,-0.001,-0.001,-0.026000000000000002,0.029,-0.998,13.38,29.02,-143.34,0.3265,0.016300000000000002,-0.5850000000000001,0.7421,0.0,0.004,-0.001
2026-01-05 21:26:47.822,291.515,-0.002,0.0,0.0,-0.025,0.03,-1.0010000000000001,13.38,29.02,-143.34,0.3265,0.016300000000000002,-0.5850000000000001,0.7421,0.0,0.0,-0.001
2026-01-05 21:26:47.823,291.52,0.0,0.001,0.0,-0.027,0.032,-0.996,13.56,28.93,-143.43,0.3265,0.0164,-0.5850000000000001,0.7421,0.004,0.004,-0.002
2026-01-05 21:26:47.823,291.525,0.0,0.001,0.0,-0.025,0.03,-0.994,13.56,28.93,-143.43,0.3265,0.016300000000000002,-0.5850000000000001,0.7421,0.001,0.007,-0.003
2026-01-05 21:26:47.823,291.53,0.0,0.001,-0.001,-0.026000000000000002,0.031,-0.994,13.47,29.11,-143.05,0.3265,0.016300000000000002,-0.5851000000000001,0.7421,0.003,0.006,-0.003
2026-01-05 21:26:47.823,291.535,-0.002,0.004,0.0,-0.028,0.031,-0.997,13.47,29.11,-143.05,0.3264,0.0164,-0.5850000000000001,0.7421,0.002,0.003,0.0
2026-01-05 21:26:47.824,291.54,0.002,-0.003,0.0,-0.026000000000000002,0.029,-1.0030000000000001,13.47,29.11,-143.05,0.3265,0.016300000000000002,-0.5850000000000001,0.7421,-0.001,0.0,0.0
2026-01-05 21:26:47.824,291.545,0.002,0.0,0.0,-0.027,0.031,-0.995,13.32,30.45,-142.91,0.3265,0.0164,-0.5850000000000001,0.7421,0.003,0.005,-0.002
2026-01-05 21:26:47.824,291.55,0.0,0.001,0.002,-0.027,0.03,-0.992,13.32,30.45,-142.91,0.3265,0.0164,-0.5850000000000001,0.7421,0.003,0.008,-0.002
2026-01-05 21:26:47.830,291.555,0.002,-0.002,0.001,-0.026000000000000002,0.029,-0.997,13.120000000000001,29.87,-142.41,0.3265,0.016300000000000002,-0.5850000000000001,0.7421,0.0,0.004,-0.001
2026-01-05 21:26:47.830,291.56,-0.001,0.001,0.0,-0.026000000000000002,0.031,-1.0010000000000001,13.120000000000001,29.87,-142.41,0.3265,0.0164,-0.5850000000000001,0.7421,0.0,0.0,0.0
2026-01-05 21:26:47.830,291.565,0.002,-0.001,0.0,-0.026000000000000002,0.03,-1.0,13.790000000000001,30.16,-143.02,0.3265,0.0164,-0.5850000000000001,0.7421,0.0,0.001,0.0
2026-01-05 21:26:47.831,291.57,0.0,0.002,0.0,-0.025,0.029,-0.998,13.790000000000001,30.16,-143.02,0.3265,0.016300000000000002,-0.5850000000000001,0.7421,0.0,0.003,-0.001
2026-01-05 21:26:47.831,291.575,0.001,0.002,0.0,-0.027,0.032,-0.993,13.790000000000001,30.16,-143.02,0.3265,0.0164,-0.5851000000000001,0.7421,0.004,0.006,-0.003
2026-01-05 21:26:47.831,291.58,-0.001,0.0,0.0,-0.025,0.031,-0.999,13.24,30.51,-142.38,0.3264,0.0164,-0.5851000000000001,0.742,0.0,0.002,-0.002
2026-01-05 21:26:47.835,291.585,-0.002,0.002,0.0,-0.026000000000000002,0.031,-1.002,13.24,30.51,-142.38,0.3264,0.0164,-0.5851000000000001,0.742,0.0,0.0,0.0
2026-01-05 21:26:47.835,291.59,-0.003,0.002,0.001,-0.026000000000000002,0.032,-0.997,13.82,29.64,-142.23,0.3264,0.0164,-0.5852,0.742,0.002,0.003,-0.002
2026-01-05 21:26:47.838,291.595,0.0,0.001,0.0,-0.026000000000000002,0.03,-0.995,13.82,29.64,-142.23,0.3264,0.0164,-0.5852,0.742,0.001,0.006,-0.001
2026-01-05 21:26:47.838,291.6,-0.002,0.001,0.0,-0.026000000000000002,0.031,-0.997,13.82,29.64,-142.23,0.3264,0.0164,-0.5852,0.742,0.002,0.004,-0.002
2026-01-05 21:26:47.838,291.605,0.0,-0.002,0.0,-0.027,0.031,-0.996,13.32,29.490000000000002,-142.70000000000002,0.3264,0.0165,-0.5852,0.742,0.003,0.004,-0.001
2026-01-05 21:26:47.839,291.61,0.001,0.0,0.001,-0.025,0.028,-0.997,13.32,29.490000000000002,-142.70000000000002,0.3264,0.0164,-0.5852,0.742,0.0,0.004,0.0
2026-01-05 21:26:47.839,291.615,0.0,0.0,0.0,-0.026000000000000002,0.03,-0.996,13.47,28.93,-142.29,0.3264,0.0164,-0.5852,0.742,0.002,0.005,-0.001
2026-01-05 21:26:47.839,291.62,0.0,0.001,0.001,-0.027,0.03,-0.998,13.47,28.93,-142.29,0.3264,0.0164,-0.5851000000000001,0.742,0.001,0.003,0.0
2026-01-05 21:26:47.843,291.625,0.002,0.0,0.0,-0.026000000000000002,0.029,-1.0010000000000001,13.47,28.93,-142.29,0.3265,0.0164,-0.5851000000000001,0.742,0.0,0.0,0.0
2026-01-05 21:26:47.843,291.63,-0.001,0.002,0.001,-0.028,0.031,-0.994,13.09,29.69,-143.4,0.3264,0.0164,-0.5851000000000001,0.7421,0.003,0.006,-0.001
2026-01-05 21:26:47.845,291.635,0.0,0.001,0.0,-0.026000000000000002,0.03,-0.992,13.09,29.69,-143.4,0.3264,0.0164,-0.5851000000000001,0.7421,0.003,0.009000000000000001,-0.003
2026-01-05 21:26:47.845,291.64,0.0,0.0,0.0,-0.025,0.028,-0.998,13.3,28.67,-143.52,0.3265,0.016300000000000002,-0.5851000000000001,0.742,0.0,0.004,0.0
2026-01-05 21:26:47.845,291.645,0.0,-0.001,0.001,-0.027,0.031,-1.0010000000000001,13.3,28.67,-143.52,0.3265,0.0164,-0.5851000000000001,0.7421,0.001,0.0,0.0
2026-01-05 21:26:47.846,291.65,0.002,-0.001,0.001,-0.026000000000000002,0.028,-1.0030000000000001,13.59,27.0,-142.91,0.3265,0.016300000000000002,-0.5851000000000001,0.7421,-0.001,0.0,0.0
2026-01-05 21:26:47.846,291.655,0.0,0.002,0.001,-0.026000000000000002,0.029,-0.993,13.59,27.0,-142.91,0.3266,0.016300000000000002,-0.5851000000000001,0.742,0.002,0.008,-0.002
2026-01-05 21:26:47.846,291.66,0.0,0.0,0.001,-0.027,0.03,-0.991,13.59,27.0,-142.91,0.3265,0.016300000000000002,-0.5850000000000001,0.7421,0.004,0.009000000000000001,-0.003
2026-01-05 21:26:47.847,291.665,-0.001,-0.003,0.001,-0.026000000000000002,0.029,-0.996,14.46,29.080000000000002,-142.99,0.3266,0.016300000000000002,-0.5850000000000001,0.7421,0.001,0.005,-0.001
2026-01-05 21:26:47.851,291.67,-0.002,0.0,0.001,-0.028,0.031,-1.0010000000000001,14.46,29.080000000000002,-142.99,0.3265,0.016300000000000002,-0.5850000000000001,0.7421,0.001,0.0,0.0
2026-01-05 21:26:47.852,291.675,0.0,0.0,0.0,-0.026000000000000002,0.031,-0.999,14.06,27.44,-142.61,0.3265,0.0164,-0.5850000000000001,0.7421,0.001,0.001,-0.001
2026-01-05 21:26:47.852,291.68,0.0,0.002,0.0,-0.025,0.029,-0.992,14.06,27.44,-142.61,0.3266,0.016300000000000002,-0.5850000000000001,0.7421,0.002,0.008,-0.003
2026-01-05 21:26:47.852,291.685,0.002,0.001,0.0,-0.027,0.031,-0.994,14.06,27.44,-142.61,0.3265,0.0164,-0.5850000000000001,0.7421,0.004,0.006,-0.002
2026-01-05 21:26:47.852,291.69,0.001,0.001,0.0,-0.026000000000000002,0.03,-1.002,13.59,30.04,-143.49,0.3265,0.016300000000000002,-0.5850000000000001,0.7421,0.0,0.0,0.0
2026-01-05 21:26:47.853,291.695,0.0,0.0,0.0,-0.027,0.03,-1.0010000000000001,13.59,30.04,-143.49,0.3265,0.0164,-0.5850000000000001,0.7421,0.0,0.0,0.0
2026-01-05 21:26:47.853,291.7,0.001,0.001,0.001,-0.028,0.032,-0.997,13.790000000000001,27.44,-143.05,0.3265,0.0164,-0.5850000000000001,0.7421,0.003,0.003,-0.001
2026-01-05 21:26:47.858,291.705,-0.001,0.002,0.001,-0.026000000000000002,0.03,-0.995,13.790000000000001,27.44,-143.05,0.3265,0.0164,-0.5850000000000001,0.7421,0.002,0.006,-0.002
2026-01-05 21:26:47.859,291.71,0.002,0.0,0.0,-0.025,0.028,-0.996,13.790000000000001,27.44,-143.05,0.3266,0.016300000000000002,-0.5850000000000001,0.7421,0.0,0.005,-0.001
2026-01-05 21:26:47.860,291.715,-0.001,0.0,0.001,-0.026000000000000002,0.03,-1.0,13.85,29.310000000000002,-142.18,0.3266,0.016300000000000002,-0.5850000000000001,0.7421,0.0,0.001,0.0
2026-01-05 21:26:47.861,291.72,0.003,-0.002,0.001,-0.027,0.029,-0.999,13.85,29.310000000000002,-142.18,0.3266,0.016300000000000002,-0.5850000000000001,0.7421,0.0,0.003,0.0
2026-01-05 21:26:47.862,291.725,0.0,0.002,0.0,-0.027,0.029,-0.997,13.65,29.52,-142.5,0.3266,0.016300000000000002,-0.5850000000000001,0.7421,0.001,0.004,0.0
2026-01-05 21:26:47.862,291.73,-0.002,0.002,0.001,-0.027,0.03,-0.997,13.65,29.52,-142.5,0.3266,0.016300000000000002,-0.5850000000000001,0.7421,0.002,0.004,-0.001
2026-01-05 21:26:47.862,291.735,0.002,-0.003,0.0,-0.025,0.029,-1.0010000000000001,13.97,29.52,-142.94,0.3266,0.016300000000000002,-0.5850000000000001,0.7421,0.0,0.0,0.0
2026-01-05 21:26:47.863,291.74,0.0,0.002,0.0,-0.027,0.031,-0.994,13.97,28.64,-142.94,0.3266,0.016300000000000002,-0.5850000000000001,0.7421,0.004,0.006,-0.002
2026-01-05 21:26:47.863,291.745,0.002,-0.001,0.001,-0.027,0.031,-0.994,13.97,28.64,-142.94,0.3265,0.0164,-0.5850000000000001,0.7421,0.003,0.006,-0.002
2026-01-05 21:26:47.863,291.75,0.001,-0.001,0.0,-0.026000000000000002,0.029,-1.0,13.620000000000001,28.79,-142.58,0.3266,0.0164,-0.5850000000000001,0.7421,0.0,0.002,0.0
2026-01-05 21:26:47.864,291.755,-0.002,0.0,0.001,-0.027,0.03,-1.002,13.620000000000001,28.79,-142.58,0.3266,0.0164,-0.5850000000000001,0.7421,0.0,0.0,0.0
2026-01-05 21:26:47.868,291.76,0.0,0.004,0.0,-0.025,0.033,-0.998,13.41,29.26,-142.94,0.3265,0.0164,-0.5851000000000001,0.742,0.002,0.002,-0.003
2026-01-05 21:26:47.869,291.765,0.002,-0.001,0.001,-0.026000000000000002,0.03,-0.994,13.41,29.26,-142.94,0.3265,0.0164,-0.5851000000000001,0.742,0.002,0.007,-0.002
2026-01-05 21:26:47.869,291.77,-0.004,0.003,-0.001,-0.027,0.032,-0.994,13.41,29.26,-142.94,0.3265,0.0165,-0.5851000000000001,0.742,0.004,0.006,-0.002
2026-01-05 21:26:47.869,291.775,0.0,-0.001,0.0,-0.026000000000000002,0.028,-0.999,14.0,29.02,-142.20000000000002,0.3265,0.0164,-0.5851000000000001,0.742,0.0,0.003,0.0
2026-01-05 21:26:47.869,291.78,0.001,0.002,0.001,-0.027,0.03,-1.0,14.0,29.02,-142.20000000000002,0.3265,0.0164,-0.5851000000000001,0.7421,0.001,0.001,0.0
2026-01-05 21:26:47.870,291.785,0.0,0.001,0.0,-0.027,0.03,-0.996,13.94,28.85,-143.32,0.3265,0.0164,-0.5851000000000001,0.7421,0.002,0.004,-0.001
2026-01-05 21:26:47.870,291.79,-0.003,0.0,0.0,-0.025,0.029,-0.997,13.94,28.85,-143.32,0.3266,0.0164,-0.5851000000000001,0.742,0.0,0.004,-0.001
2026-01-05 21:26:47.870,291.795,-0.002,-0.001,0.0,-0.028,0.03,-0.996,13.94,28.85,-143.32,0.3265,0.0164,-0.5850000000000001,0.7421,0.003,0.005,0.0
2026-01-05 21:26:47.870,291.8,-0.003,0.002,0.0,-0.027,0.031,-1.0,13.59,27.59,-142.76,0.3265,0.0164,-0.5850000000000001,0.7421,0.001,0.0,0.0
2026-01-05 21:26:47.871,291.805,0.0,-0.003,0.0,-0.025,0.03,-1.002,13.59,27.59,-142.76,0.3265,0.0164,-0.5851000000000001,0.7421,0.0,0.0,0.0
2026-01-05 21:26:47.871,291.81,0.0,0.002,0.002,-0.027,0.032,-0.993,13.82,27.91,-143.55,0.3265,0.0165,-0.5851000000000001,0.7421,0.004,0.007,-0.002
2026-01-05 21:26:47.871,291.815,0.003,-0.003,0.0,-0.026000000000000002,0.03,-0.997,13.82,27.91,-143.55,0.3265,0.0165,-0.5850000000000001,0.7421,0.001,0.004,-0.001
2026-01-05 21:26:47.872,291.82,0.0,0.0,0.001,-0.027,0.028,-1.0010000000000001,13.82,27.91,-143.55,0.3266,0.0164,-0.5850000000000001,0.7421,0.0,0.001,0.001
2026-01-05 21:26:47.881,291.825,-0.002,0.0,0.002,-0.027,0.031,-0.998,13.68,27.71,-143.34,0.3265,0.0164,-0.5850000000000001,0.7421,0.002,0.003,0.0
2026-01-05 21:26:47.881,291.83,0.002,-0.003,0.0,-0.026000000000000002,0.031,-0.994,13.68,27.71,-143.34,0.3265,0.0165,-0.5850000000000001,0.7421,0.003,0.006,-0.003
2026-01-05 21:26:47.881,291.835,-0.001,0.0,0.001,-0.028,0.03,-1.0,13.85,28.14,-143.43,0.3265,0.0165,-0.5850000000000001,0.7421,0.0,0.001,0.0
2026-01-05 21:26:47.883,291.84,0.002,0.0,0.001,-0.026000000000000002,0.031,-1.0010000000000001,13.85,28.14,-143.43,0.3265,0.0165,-0.5850000000000001,0.7421,0.0,0.0,-0.001
2026-01-05 21:26:47.884,291.845,0.001,-0.001,0.001,-0.025,0.028,-0.999,13.76,27.62,-143.96,0.3266,0.0164,-0.5850000000000001,0.7421,0.0,0.003,0.0
2026-01-05 21:26:47.884,291.85,-0.003,0.002,0.0,-0.026000000000000002,0.03,-0.996,13.76,27.62,-143.96,0.3266,0.0164,-0.5850000000000001,0.7421,0.002,0.005,-0.001
2026-01-05 21:26:47.884,291.855,-0.002,0.0,0.0,-0.026000000000000002,0.029,-0.997,13.76,27.62,-143.96,0.3266,0.0164,-0.5850000000000001,0.7421,0.001,0.004,-0.001
2026-01-05 21:26:47.884,291.86,0.001,-0.003,0.0,-0.026000000000000002,0.029,-1.0010000000000001,13.700000000000001,28.26,-143.02,0.3266,0.016300000000000002,-0.5850000000000001,0.7421,-0.001,0.001,0.0
2026-01-05 21:26:47.885,291.865,0.0,-0.001,0.001,-0.027,0.032,-0.999,13.700000000000001,28.26,-143.02,0.3266,0.0164,-0.5850000000000001,0.7421,0.003,0.001,-0.001
2026-01-05 21:26:47.885,291.87,0.0,0.004,0.001,-0.026000000000000002,0.03,-0.997,13.5,28.26,-142.94,0.3266,0.0164,-0.5850000000000001,0.7421,0.001,0.004,-0.001
2026-01-05 21:26:47.885,291.875,-0.001,0.0,0.0,-0.025,0.03,-0.994,13.5,28.26,-142.94,0.3266,0.0164,-0.5850000000000001,0.742,0.001,0.006,-0.003
2026-01-05 21:26:47.885,291.88,-0.005,-0.001,0.0,-0.028,0.029,-0.996,13.5,28.26,-142.94,0.3266,0.0164,-0.5850000000000001,0.7421,0.002,0.006,0.0
2026-01-05 21:26:47.886,291.885,0.002,-0.004,0.001,-0.025,0.03,-0.999,13.620000000000001,28.5,-142.85,0.3266,0.0164,-0.5850000000000001,0.7421,0.0,0.001,-0.001
2026-01-05 21:26:47.886,291.89,0.003,-0.001,0.0,-0.025,0.03,-1.0,13.620000000000001,28.5,-142.85,0.3266,0.016300000000000002,-0.5850000000000001,0.742,0.0,0.001,-0.001
2026-01-05 21:26:47.894,291.895,0.0,0.002,0.0,-0.026000000000000002,0.032,-0.993,13.35,28.03,-142.73,0.3266,0.0164,-0.5851000000000001,0.742,0.004,0.006,-0.003
2026-01-05 21:26:47.894,291.9,0.0,-0.001,0.0,-0.026000000000000002,0.03,-0.994,13.35,28.03,-142.73,0.3266,0.0164,-0.5851000000000001,0.742,0.002,0.006,-0.002
2026-01-05 21:26:47.896,291.905,0.0,-0.001,0.001,-0.027,0.029,-0.997,13.35,28.03,-142.73,0.3266,0.0164,-0.5850000000000001,0.742,0.001,0.004,0.0
2026-01-05 21:26:47.896,291.91,0.0,0.0,0.0,-0.027,0.031,-1.0010000000000001,13.5,28.17,-142.64000000000001,0.3266,0.0164,-0.5850000000000001,0.7421,0.001,0.0,0.0
2026-01-05 21:26:47.896,291.915,0.001,0.0,0.0,-0.026000000000000002,0.029,-0.998,13.5,28.17,-142.64000000000001,0.3266,0.0164,-0.5850000000000001,0.742,0.0,0.003,0.0
2026-01-05 21:26:47.897,291.92,0.001,0.001,0.0,-0.026000000000000002,0.03,-0.993,13.3,28.41,-142.99,0.3266,0.0164,-0.5850000000000001,0.742,0.003,0.007,-0.002
2026-01-05 21:26:47.897,291.925,-0.004,0.003,0.0,-0.027,0.03,-0.997,13.3,28.41,-142.99,0.3266,0.0164,-0.5850000000000001,0.742,0.001,0.004,-0.001
2026-01-05 21:26:47.897,291.93,-0.002,0.0,0.0,-0.025,0.029,-0.999,13.27,28.580000000000002,-142.91,0.3266,0.0164,-0.5851000000000001,0.742,0.0,0.002,-0.001
2026-01-05 21:26:47.898,291.935,0.0,0.001,0.0,-0.027,0.031,-0.997,13.27,28.580000000000002,-142.91,0.3266,0.0164,-0.5850000000000001,0.742,0.003,0.004,-0.001
2026-01-05 21:26:47.898,291.94,0.002,-0.003,0.001,-0.026000000000000002,0.029,-0.997,13.27,28.580000000000002,-142.91,0.3266,0.0164,-0.5850000000000001,0.742,0.0,0.004,-0.001
2026-01-05 21:26:47.898,291.945,0.001,-0.002,0.001,-0.025,0.028,-0.995,13.73,27.27,-143.67000000000002,0.3267,0.016300000000000002,-0.5850000000000001,0.742,0.0,0.006,-0.001
2026-01-05 21:26:47.898,291.95,0.0,0.004,0.0,-0.027,0.03,-0.997,13.73,27.27,-143.67000000000002,0.3267,0.016300000000000002,-0.5850000000000001,0.742,0.002,0.004,-0.001
2026-01-05 21:26:47.907,291.955,-0.001,0.001,0.0,-0.026000000000000002,0.029,-1.0,13.85,27.03,-143.78,0.3267,0.016300000000000002,-0.5850000000000001,0.742,0.0,0.001,0.0
2026-01-05 21:26:47.907,291.96,-0.002,0.0,0.0,-0.027,0.029,-0.996,13.85,27.03,-143.78,0.3267,0.016300000000000002,-0.5850000000000001,0.742,0.002,0.005,-0.001
2026-01-05 21:26:47.910,291.965,0.0,0.002,0.002,-0.027,0.031,-0.995,13.85,27.03,-143.78,0.3267,0.0164,-0.5850000000000001,0.742,0.004,0.005,-0.002
2026-01-05 21:26:47.910,291.97,0.0,-0.001,0.0,-0.026000000000000002,0.029,-1.0,13.44,28.41,-143.52,0.3267,0.016300000000000002,-0.5850000000000001,0.742,0.0,0.002,0.0
2026-01-05 21:26:47.911,291.975,0.002,0.001,0.0,-0.027,0.03,-1.0,13.44,28.41,-143.52,0.3267,0.0164,-0.5850000000000001,0.7421,0.001,0.001,0.0
2026-01-05 21:26:47.911,291.98,0.0,0.001,0.001,-0.027,0.031,-0.995,13.44,28.12,-143.72,0.3266,0.0164,-0.5850000000000001,0.7421,0.003,0.005,-0.001
2026-01-05 21:26:47.911,291.985,0.0,-0.003,0.0,-0.026000000000000002,0.028,-0.994,13.44,28.12,-143.72,0.3267,0.0164,-0.5850000000000001,0.7421,0.001,0.007,-0.002
2026-01-05 21:26:47.912,291.99,0.0,0.002,0.001,-0.029,0.031,-0.999,13.44,28.12,-143.72,0.3266,0.0164,-0.5849,0.7421,0.003,0.002,0.0
2026-01-05 21:26:47.912,291.995,0.001,-0.001,0.001,-0.028,0.031,-1.0010000000000001,13.620000000000001,28.32,-142.85,0.3266,0.0165,-0.5849,0.7422000000000001,0.001,0.0,0.0
2026-01-05 21:26:47.912,292.0,0.0,0.002,0.0,-0.026000000000000002,0.029,-0.995,13.620000000000001,28.32,-142.85,0.3266,0.0164,-0.5849,0.7422000000000001,0.001,0.006,-0.001
2026-01-05 21:26:47.913,292.005,-0.005,0.002,0.001,-0.028,0.032,-0.995,13.73,26.1,-143.29,0.3266,0.0165,-0.5849,0.7422000000000001,0.004,0.004,-0.002
2026-01-05 21:26:47.913,292.01,0.001,-0.001,0.001,-0.026000000000000002,0.031,-0.998,13.73,26.1,-143.29,0.3266,0.0165,-0.5849,0.7421,0.001,0.003,-0.002
2026-01-05 21:26:47.913,292.015,0.0,-0.001,0.0,-0.027,0.029,-1.002,13.73,26.1,-143.29,0.3266,0.0165,-0.5849,0.7421,0.0,0.0,0.0
2026-01-05 21:26:47.913,292.02,0.001,0.0,0.001,-0.027,0.032,-0.996,14.41,28.7,-143.61,0.3266,0.0166,-0.5849,0.7421,0.003,0.004,-0.002
2026-01-05 21:26:47.914,292.025,0.002,0.0,0.001,-0.024,0.029,-0.995,14.41,28.7,-143.61,0.3266,0.0165,-0.5850000000000001,0.7421,0.0,0.006,-0.003
2026-01-05 21:26:47.914,292.03,-0.003,0.001,0.0,-0.027,0.029,-0.998,13.790000000000001,28.35,-143.34,0.3266,0.0164,-0.5850000000000001,0.7421,0.0,0.003,0.0
2026-01-05 21:26:47.925,292.035,-0.002,0.0,0.001,-0.028,0.029,-1.0,13.790000000000001,28.35,-143.34,0.3267,0.0165,-0.5849,0.7421,0.0,0.001,0.0
2026-01-05 21:26:47.926,292.04,0.0,-0.001,0.0,-0.026000000000000002,0.029,-0.998,14.030000000000001,27.09,-143.49,0.3267,0.0164,-0.5849,0.7421,0.0,0.003,-0.001
2026-01-05 21:26:47.927,292.045,0.002,0.001,0.002,-0.027,0.03,-0.992,14.030000000000001,27.09,-143.49,0.3267,0.0164,-0.5849,0.7421,0.003,0.008,-0.002
2026-01-05 21:26:47.927,292.05,0.002,0.0,0.001,-0.025,0.029,-0.997,14.030000000000001,27.09,-143.49,0.3267,0.0164,-0.5849,0.7421,0.0,0.004,-0.002
2026-01-05 21:26:47.927,292.055,0.0,0.0,0.0,-0.026000000000000002,0.029,-0.998,13.68,27.47,-143.46,0.3267,0.016300000000000002,-0.5849,0.7421,0.0,0.003,0.0
2026-01-05 21:26:47.928,292.06,-0.001,0.0,0.001,-0.028,0.031,-0.997,13.68,27.47,-143.46,0.3267,0.0164,-0.5849,0.7421,0.003,0.003,0.0
2026-01-05 21:26:47.928,292.065,-0.001,0.002,0.001,-0.025,0.031,-0.996,13.68,28.93,-144.57,0.3267,0.0164,-0.5850000000000001,0.7421,0.002,0.004,-0.003
2026-01-05 21:26:47.929,292.07,0.0,0.001,0.0,-0.026000000000000002,0.03,-0.998,13.68,28.93,-144.57,0.3267,0.0164,-0.5850000000000001,0.742,0.0,0.003,-0.001
2026-01-05 21:26:47.929,292.075,-0.001,0.0,0.001,-0.027,0.03,-0.997,13.68,28.93,-144.57,0.3267,0.0164,-0.5850000000000001,0.742,0.002,0.003,-0.001
2026-01-05 21:26:47.929,292.08,0.002,-0.003,0.001,-0.025,0.03,-1.002,13.56,27.150000000000002,-143.70000000000002,0.3267,0.0164,-0.5850000000000001,0.742,0.0,0.0,0.0
2026-01-05 21:26:47.930,292.085,-0.001,0.001,0.001,-0.026000000000000002,0.028,-1.0,13.56,27.150000000000002,-143.70000000000002,0.3267,0.016300000000000002,-0.5850000000000001,0.742,0.0,0.002,0.0
2026-01-05 21:26:47.930,292.09,-0.002,0.0,0.0,-0.027,0.031,-0.991,13.73,29.080000000000002,-143.26,0.3267,0.0164,-0.5850000000000001,0.742,0.005,0.008,-0.003
2026-01-05 21:26:47.930,292.095,0.003,-0.004,0.0,-0.026000000000000002,0.027,-1.002,13.73,29.080000000000002,-143.26,0.32680000000000003,0.016300000000000002,-0.5850000000000001,0.742,-0.002,0.001,0.0
2026-01-05 21:26:47.931,292.1,0.001,0.001,0.001,-0.029,0.032,-0.999,13.73,29.080000000000002,-143.26,0.3267,0.0164,-0.5850000000000001,0.7421,0.003,0.001,0.0
2026-01-05 21:26:47.931,292.105,0.001,0.0,0.001,-0.027,0.031,-0.996,13.530000000000001,28.93,-142.96,0.3267,0.0165,-0.5849,0.7421,0.003,0.004,-0.001
2026-01-05 21:26:47.932,292.11,0.001,0.001,0.001,-0.026000000000000002,0.03,-0.993,13.530000000000001,28.93,-142.96,0.3267,0.0165,-0.5850000000000001,0.7421,0.003,0.007,-0.003
2026-01-05 21:26:47.932,292.115,-0.001,0.0,0.001,-0.027,0.029,-0.998,13.65,29.990000000000002,-142.20000000000002,0.3267,0.0165,-0.5850000000000001,0.7421,0.001,0.003,0.0
2026-01-05 21:26:47.932,292.12,-0.002,0.001,0.0,-0.026000000000000002,0.031,-1.002,13.65,29.990000000000002,-142.20000000000002,0.3267,0.0165,-0.5850000000000001,0.742,0.0,0.0,0.0
2026-01-05 21:26:47.933,292.125,0.0,0.0,0.002,-0.026000000000000002,0.03,-0.997,13.88,27.97,-142.38,0.3267,0.0165,-0.5850000000000001,0.742,0.001,0.004,-0.001
2026-01-05 21:26:47.933,292.13,-0.001,0.002,0.001,-0.027,0.031,-0.994,13.88,27.97,-142.38,0.3266,0.0165,-0.5850000000000001,0.742,0.003,0.005,-0.002
2026-01-05 21:26:47.933,292.135,-0.001,-0.001,0.0,-0.027,0.03,-0.995,13.88,27.97,-142.38,0.3266,0.0165,-0.5850000000000001,0.7421,0.002,0.006,-0.001
2026-01-05 21:26:47.934,292.14,-0.001,0.001,0.0,-0.027,0.03,-1.0,13.41,30.6,-142.0,0.3266,0.0165,-0.5850000000000001,0.7421,0.0,0.001,0.0
2026-01-05 21:26:47.934,292.145,-0.002,0.001,0.0,-0.027,0.031,-0.996,13.41,30.6,-142.0,0.3266,0.0166,-0.5850000000000001,0.7421,0.002,0.005,-0.002
2026-01-05 21:26:47.935,292.15,0.002,0.0,0.0,-0.026000000000000002,0.029,-0.996,13.21,30.6,-142.47,0.3267,0.0165,-0.5850000000000001,0.7421,0.0,0.005,-0.001
2026-01-05 21:26:47.935,292.155,0.001,-0.002,0.0,-0.027,0.03,-0.996,13.21,30.6,-142.47,0.3267,0.0165,-0.5850000000000001,0.7421,0.002,0.004,-0.001
2026-01-05 21:26:47.935,292.16,-0.002,0.002,0.0,-0.027,0.031,-1.0010000000000001,13.21,30.6,-142.47,0.3266,0.0165,-0.5850000000000001,0.7421,0.0,0.0,0.0
2026-01-05 21:26:47.936,292.165,0.001,-0.001,0.0,-0.025,0.029,-0.997,13.530000000000001,29.580000000000002,-142.12,0.3267,0.0165,-0.5850000000000001,0.742,0.0,0.005,-0.001
2026-01-05 21:26:47.936,292.17,-0.002,0.001,0.0,-0.026000000000000002,0.032,-0.997,13.530000000000001,29.580000000000002,-142.12,0.3266,0.0165,-0.5851000000000001,0.742,0.002,0.003,-0.002
2026-01-05 21:26:47.937,292.175,0.001,0.0,0.0,-0.027,0.029,-0.991,13.530000000000001,28.64,-142.15,0.3267,0.0165,-0.5850000000000001,0.742,0.003,0.01,-0.002
2026-01-05 21:26:47.937,292.18,0.001,0.0,0.0,-0.026000000000000002,0.03,-1.0010000000000001,13.530000000000001,28.64,-142.15,0.3267,0.0165,-0.5850000000000001,0.742,0.0,0.0,0.0
2026-01-05 21:26:47.961,292.185,0.002,0.001,0.0,-0.028,0.03,-1.0,13.530000000000001,28.64,-142.15,0.3267,0.0165,-0.5850000000000001,0.7421,0.001,0.001,0.0
2026-01-05 21:26:47.961,292.19,-0.002,0.002,0.001,-0.025,0.031,-0.997,13.88,30.86,-141.94,0.3267,0.0165,-0.5850000000000001,0.742,0.001,0.004,-0.003
2026-01-05 21:26:47.962,292.195,0.0,0.0,0.0,-0.026000000000000002,0.029,-0.994,13.88,30.86,-141.94,0.3267,0.0165,-0.5850000000000001,0.742,0.001,0.007,-0.001
2026-01-05 21:26:47.962,292.2,-0.003,0.0,0.0,-0.026000000000000002,0.032,-0.997,13.82,30.02,-142.29,0.3266,0.0165,-0.5850000000000001,0.742,0.002,0.003,-0.002
2026-01-05 21:26:47.962,292.205,0.001,-0.001,0.0,-0.028,0.029,-0.998,13.82,30.02,-142.29,0.3267,0.0165,-0.5850000000000001,0.7421,0.001,0.003,0.0
2026-01-05 21:26:47.963,292.21,0.001,-0.001,0.001,-0.029,0.029,-0.997,13.65,30.310000000000002,-142.73,0.3267,0.0165,-0.5849,0.7421,0.002,0.005,0.0
2026-01-05 21:26:47.963,292.215,0.0,0.0,0.0,-0.026000000000000002,0.033,-0.994,13.65,30.310000000000002,-142.73,0.3266,0.0166,-0.5850000000000001,0.7421,0.004,0.005,-0.004
2026-01-05 21:26:47.963,292.22,0.0,0.002,0.001,-0.026000000000000002,0.028,-0.996,13.65,30.310000000000002,-142.73,0.3267,0.0165,-0.5849,0.7421,0.0,0.006,-0.001
2026-01-05 21:26:47.963,292.225,0.0,0.0,0.0,-0.027,0.031,-0.998,13.47,30.1,-142.12,0.3267,0.0165,-0.5849,0.7421,0.002,0.003,-0.001
2026-01-05 21:26:47.964,292.23,-0.001,0.001,0.001,-0.027,0.031,-1.0,13.47,30.1,-142.12,0.3267,0.0166,-0.5850000000000001,0.7421,0.001,0.001,-0.001
2026-01-05 21:26:47.964,292.235,0.0,0.004,0.0,-0.026000000000000002,0.03,-0.998,13.38,30.37,-142.03,0.3267,0.0165,-0.5850000000000001,0.7421,0.001,0.003,-0.001
2026-01-05 21:26:47.972,292.24,0.0,0.0,0.0,-0.028,0.03,-0.993,13.38,30.37,-142.03,0.3267,0.0166,-0.5849,0.7421,0.003,0.007,-0.001
2026-01-05 21:26:47.973,292.245,0.0,0.001,0.001,-0.025,0.031,-0.999,13.38,30.37,-142.03,0.3267,0.0166,-0.5850000000000001,0.7421,0.0,0.002,-0.002
2026-01-05 21:26:47.973,292.25,-0.003,0.002,0.0,-0.027,0.029,-1.0010000000000001,13.35,30.28,-142.53,0.3267,0.0165,-0.5849,0.7421,0.0,0.001,0.0
2026-01-05 21:26:47.973,292.255,0.0,0.002,0.0,-0.027,0.032,-0.998,13.35,30.28,-142.53,0.3266,0.0166,-0.5850000000000001,0.7421,0.002,0.002,-0.001
2026-01-05 21:26:47.974,292.26,0.0,0.0,0.001,-0.026000000000000002,0.029,-0.995,13.73,30.66,-142.32,0.3267,0.0165,-0.5850000000000001,0.7421,0.001,0.006,-0.002
2026-01-05 21:26:47.974,292.265,-0.002,0.0,0.0,-0.026000000000000002,0.027,-0.999,13.73,30.66,-142.32,0.3267,0.0164,-0.5849,0.7421,-0.001,0.003,0.0
2026-01-05 21:26:47.974,292.27,-0.003,0.002,-0.001,-0.028,0.032,-0.997,13.73,30.66,-142.32,0.3267,0.0165,-0.5849,0.7421,0.004,0.003,-0.001
2026-01-05 21:26:47.975,292.275,0.0,0.0,0.0,-0.026000000000000002,0.03,-1.0010000000000001,13.41,30.57,-142.32,0.3267,0.0165,-0.5849,0.7421,0.0,0.0,0.0
2026-01-05 21:26:47.981,292.28,0.0,-0.001,0.001,-0.027,0.031,-0.993,13.41,30.57,-142.32,0.3266,0.0166,-0.5849,0.7421,0.003,0.007,-0.003
2026-01-05 21:26:47.982,292.285,0.0,0.0,0.0,-0.027,0.031,-0.995,13.38,29.400000000000002,-142.73,0.3266,0.0166,-0.5850000000000001,0.7421,0.003,0.005,-0.002
2026-01-05 21:26:47.982,292.29,0.0,0.0,0.0,-0.024,0.028,-1.002,13.38,29.400000000000002,-142.73,0.3267,0.0165,-0.5850000000000001,0.742,-0.002,0.0,0.0
2026-01-05 21:26:47.982,292.295,0.0,-0.001,0.0,-0.026000000000000002,0.03,-1.0010000000000001,13.38,29.400000000000002,-142.73,0.3267,0.0165,-0.5850000000000001,0.742,0.0,0.0,0.0
2026-01-05 21:26:47.982,292.3,-0.001,0.004,0.0,-0.026000000000000002,0.03,-0.994,13.700000000000001,30.37,-142.12,0.3267,0.0165,-0.5850000000000001,0.742,0.003,0.007,-0.002
2026-01-05 21:26:47.983,292.305,0.001,-0.003,0.001,-0.025,0.028,-0.996,13.700000000000001,30.37,-142.12,0.3267,0.0164,-0.5850000000000001,0.742,0.0,0.006,-0.001
2026-01-05 21:26:47.983,292.31,-0.002,0.002,0.0,-0.027,0.03,-1.0,13.5,30.45,-141.77,0.3267,0.0165,-0.5850000000000001,0.742,0.001,0.001,0.0
2026-01-05 21:26:47.983,292.315,-0.002,0.002,0.0,-0.026000000000000002,0.031,-1.0,13.5,30.45,-141.77,0.3267,0.0165,-0.5851000000000001,0.742,0.001,0.001,-0.001
2026-01-05 21:26:47.984,292.32,-0.001,0.003,0.0,-0.025,0.029,-0.997,13.620000000000001,30.34,-142.23,0.3267,0.0164,-0.5851000000000001,0.7419,0.0,0.004,-0.002
2026-01-05 21:26:47.984,292.325,0.001,0.001,0.001,-0.026000000000000002,0.03,-0.993,13.620000000000001,30.34,-142.23,0.3267,0.0164,-0.5851000000000001,0.7419,0.003,0.008,-0.003
2026-01-05 21:26:47.984,292.33,0.0,-0.001,0.001,-0.025,0.029,-0.998,13.620000000000001,30.34,-142.23,0.32680000000000003,0.0164,-0.5851000000000001,0.7419,0.0,0.003,-0.001
2026-01-05 21:26:47.985,292.335,0.001,-0.001,0.0,-0.027,0.03,-1.0010000000000001,13.47,30.28,-141.71,0.32680000000000003,0.0164,-0.5851000000000001,0.7419,0.0,0.001,0.0
2026-01-05 21:26:47.985,292.34,0.0,0.003,0.0,-0.026000000000000002,0.032,-0.997,13.47,30.28,-141.71,0.3267,0.0164,-0.5851000000000001,0.7419,0.003,0.003,-0.002
2026-01-05 21:26:47.985,292.345,0.001,0.001,0.0,-0.025,0.03,-0.996,13.700000000000001,28.79,-142.79,0.3267,0.0164,-0.5851000000000001,0.7419,0.001,0.005,-0.002
2026-01-05 21:26:47.985,292.35,-0.002,-0.002,0.0,-0.025,0.03,-0.993,13.700000000000001,28.79,-142.79,0.3267,0.0164,-0.5852,0.7419,0.002,0.007,-0.003
2026-01-05 21:26:47.986,292.355,-0.002,0.001,0.0,-0.026000000000000002,0.031,-1.0,13.700000000000001,28.79,-142.79,0.3267,0.0164,-0.5852,0.7419,0.001,0.001,-0.001
2026-01-05 21:26:47.986,292.36,0.001,-0.005,0.0,-0.025,0.03,-1.0,13.35,29.02,-142.5,0.3267,0.0164,-0.5852,0.7419,0.0,0.001,-0.001
2026-01-05 21:26:47.986,292.365,-0.001,0.002,0.0,-0.026000000000000002,0.031,-0.996,13.35,29.02,-142.5,0.3267,0.0164,-0.5852,0.7419,0.002,0.004,-0.001
2026-01-05 21:26:48.000,292.37,0.0,0.0,0.0,-0.027,0.03,-0.995,13.09,26.71,-143.11,0.3267,0.0165,-0.5852,0.7419,0.003,0.005,-0.001
2026-01-05 21:26:48.000,292.375,-0.002,0.0,0.001,-0.026000000000000002,0.03,-1.0,13.09,26.71,-143.11,0.3267,0.0165,-0.5852,0.7419,0.0,0.001,0.0
2026-01-05 21:26:48.003,292.38,-0.002,0.004,0.001,-0.026000000000000002,0.032,-0.999,13.09,26.71,-143.11,0.3266,0.0165,-0.5852,0.7419,0.001,0.001,-0.001
2026-01-05 21:26:48.003,292.385,0.002,0.0,0.001,-0.026000000000000002,0.031,-0.995,13.3,28.580000000000002,-143.34,0.3266,0.0165,-0.5852,0.7419,0.002,0.005,-0.002
2026-01-05 21:26:48.003,292.39,0.001,0.0,0.001,-0.026000000000000002,0.028,-0.995,13.3,28.580000000000002,-143.34,0.3267,0.0165,-0.5852,0.7419,0.001,0.006,-0.001
2026-01-05 21:26:48.003,292.395,-0.003,0.002,0.001,-0.026000000000000002,0.03,-0.996,13.91,27.330000000000002,-143.11,0.3267,0.0165,-0.5852,0.7419,0.001,0.004,-0.001
2026-01-05 21:26:48.004,292.4,0.001,-0.002,0.0,-0.026000000000000002,0.03,-1.002,13.91,27.330000000000002,-143.11,0.3267,0.0165,-0.5852,0.7419,0.0,0.0,0.0
2026-01-05 21:26:48.004,292.405,0.0,0.001,0.0,-0.026000000000000002,0.03,-0.997,13.44,29.810000000000002,-142.41,0.3267,0.0165,-0.5852,0.7419,0.001,0.004,-0.001
2026-01-05 21:26:48.004,292.41,-0.002,0.004,0.001,-0.028,0.031,-0.992,13.44,29.810000000000002,-142.41,0.3267,0.0165,-0.5851000000000001,0.7419,0.005,0.008,-0.002
2026-01-05 21:26:48.005,292.415,0.004,-0.002,0.0,-0.024,0.028,-0.997,13.44,29.810000000000002,-142.41,0.3267,0.0164,-0.5852,0.7419,0.0,0.004,-0.002
2026-01-05 21:26:48.005,292.42,0.001,0.0,0.0,-0.027,0.029,-1.002,13.35,30.48,-142.03,0.32680000000000003,0.0164,-0.5851000000000001,0.7419,0.0,0.0,0.001
2026-01-05 21:26:48.005,292.425,0.001,0.001,0.0,-0.027,0.029,-1.0030000000000001,13.35,30.48,-142.03,0.32680000000000003,0.0164,-0.5851000000000001,0.7419,0.0,0.0,0.001
2026-01-05 21:26:48.005,292.43,0.0,0.0,0.0,-0.025,0.03,-0.994,14.52,29.93,-141.74,0.32680000000000003,0.0164,-0.5851000000000001,0.7419,0.002,0.006,-0.002
2026-01-05 21:26:48.006,292.435,0.0,0.0,0.0,-0.027,0.03,-0.994,14.52,29.93,-141.74,0.32680000000000003,0.0164,-0.5851000000000001,0.7419,0.003,0.006,-0.001
2026-01-05 21:26:48.015,292.44,-0.001,0.0,0.0,-0.026000000000000002,0.028,-1.0010000000000001,14.52,29.93,-141.74,0.32680000000000003,0.016300000000000002,-0.5851000000000001,0.7419,0.0,0.001,0.0
2026-01-05 21:26:48.016,292.445,0.003,-0.001,0.0,-0.027,0.029,-1.002,13.21,30.8,-142.06,0.32680000000000003,0.016300000000000002,-0.5850000000000001,0.742,0.0,0.0,0.0
2026-01-05 21:26:48.016,292.45,0.001,0.001,0.001,-0.027,0.032,-0.994,13.21,30.8,-142.06,0.32680000000000003,0.0164,-0.5850000000000001,0.742,0.004,0.005,-0.002
2026-01-05 21:26:48.016,292.455,0.0,0.0,0.001,-0.024,0.031,-0.993,13.35,28.79,-142.0,0.32680000000000003,0.0164,-0.5851000000000001,0.7419,0.002,0.007,-0.004
2026-01-05 21:26:48.017,292.46,-0.001,-0.001,0.0,-0.025,0.028,-0.998,13.35,28.79,-142.0,0.32680000000000003,0.016300000000000002,-0.5851000000000001,0.7419,0.0,0.004,-0.001
2026-01-05 21:26:48.017,292.465,0.0,0.001,0.0,-0.027,0.032,-0.997,13.35,28.79,-142.0,0.3267,0.0164,-0.5851000000000001,0.7419,0.004,0.003,-0.001
2026-01-05 21:26:48.021,292.47,0.001,0.001,0.001,-0.025,0.029,-0.997,13.65,30.830000000000002,-142.70000000000002,0.32680000000000003,0.0164,-0.5851000000000001,0.7419,0.0,0.004,-0.001
2026-01-05 21:26:48.022,292.475,0.0,0.001,0.0,-0.025,0.031,-0.996,13.65,30.830000000000002,-142.70000000000002,0.32680000000000003,0.0164,-0.5851000000000001,0.7419,0.002,0.004,-0.002
2026-01-05 21:26:48.022,292.48,-0.002,0.002,0.0,-0.027,0.03,-0.994,14.0,27.3,-142.64000000000001,0.3267,0.0164,-0.5851000000000001,0.7419,0.004,0.006,-0.001
2026-01-05 21:26:48.022,292.485,0.001,0.0,0.0,-0.026000000000000002,0.029,-1.002,14.0,27.3,-142.64000000000001,0.32680000000000003,0.0164,-0.5851000000000001,0.7419,-0.001,0.0,0.0
2026-01-05 21:26:48.024,292.49,0.001,0.0,0.0,-0.026000000000000002,0.031,-0.996,13.5,27.3,-143.17000000000002,0.3267,0.0164,-0.5851000000000001,0.7419,0.003,0.004,-0.002
2026-01-05 21:26:48.024,292.495,0.0,0.001,0.0,-0.026000000000000002,0.031,-0.995,13.5,29.78,-143.17000000000002,0.3267,0.0165,-0.5851000000000001,0.7419,0.003,0.006,-0.002
2026-01-05 21:26:48.025,292.5,0.003,-0.003,0.0,-0.027,0.028,-0.996,13.5,29.78,-143.17000000000002,0.32680000000000003,0.0164,-0.5850000000000001,0.742,0.001,0.006,0.0
2026-01-05 21:26:48.025,292.505,0.0,0.0,-0.001,-0.027,0.031,-1.004,13.41,29.37,-143.29,0.3267,0.0165,-0.5851000000000001,0.742,0.0,-0.002,0.0
2026-01-05 21:26:48.029,292.51,0.001,0.001,0.0,-0.026000000000000002,0.03,-0.998,13.41,29.37,-143.29,0.3267,0.0164,-0.5851000000000001,0.742,0.001,0.003,-0.001
2026-01-05 21:26:48.029,292.515,-0.003,0.0,0.0,-0.025,0.03,-0.997,13.94,30.48,-143.32,0.3267,0.0164,-0.5851000000000001,0.7419,0.001,0.004,-0.002
2026-01-05 21:26:48.032,292.52,-0.001,0.0,0.0,-0.027,0.032,-0.993,13.94,30.48,-143.32,0.3267,0.0165,-0.5851000000000001,0.742,0.004,0.007,-0.003
2026-01-05 21:26:48.032,292.525,0.0,0.001,0.001,-0.025,0.027,-0.998,13.94,30.48,-143.32,0.32680000000000003,0.0164,-0.5851000000000001,0.7419,-0.001,0.004,0.0
2026-01-05 21:26:48.032,292.53,0.004,-0.003,0.001,-0.026000000000000002,0.03,-1.0030000000000001,13.21,30.310000000000002,-142.47,0.32680000000000003,0.0164,-0.5851000000000001,0.7419,0.0,0.0,0.0
2026-01-05 21:26:48.033,292.535,-0.003,0.006,0.0,-0.027,0.032,-0.995,13.21,30.310000000000002,-142.47,0.3267,0.0165,-0.5851000000000001,0.7419,0.004,0.004,-0.002
2026-01-05 21:26:48.033,292.54,0.0,0.0,0.0,-0.026000000000000002,0.028,-0.994,13.790000000000001,29.66,-143.08,0.32680000000000003,0.0164,-0.5851000000000001,0.7419,0.001,0.007,-0.001
2026-01-05 21:26:48.033,292.545,0.001,-0.003,0.0,-0.027,0.029,-0.997,13.790000000000001,29.66,-143.08,0.32680000000000003,0.0164,-0.5850000000000001,0.742,0.002,0.004,0.0
2026-01-05 21:26:48.034,292.55,-0.001,0.0,0.001,-0.027,0.031,-1.0010000000000001,13.790000000000001,29.66,-143.08,0.3267,0.0165,-0.5850000000000001,0.742,0.0,0.0,0.0
2026-01-05 21:26:48.034,292.555,0.002,0.0,0.0,-0.026000000000000002,0.028,-0.996,13.56,30.63,-142.53,0.32680000000000003,0.0164,-0.5850000000000001,0.742,0.0,0.006,-0.001
2026-01-05 21:26:48.034,292.56,0.0,0.003,0.003,-0.026000000000000002,0.031,-0.998,13.56,30.63,-142.53,0.32680000000000003,0.0165,-0.5850000000000001,0.742,0.001,0.002,-0.002
2026-01-05 21:26:48.040,292.565,0.0,0.0,0.002,-0.025,0.03,-0.999,14.030000000000001,30.07,-142.35,0.32680000000000003,0.0164,-0.5851000000000001,0.7419,0.0,0.002,-0.001
