System_Time,Timestamp,Gyro_X,Gyro_Y,Gyro_Z,Acc_X,Acc_Y,Acc_Z,Mag_X,Mag_Y,Mag_Z,Quat_W,Quat_X,Quat_Y,Quat_Z,Linear_Acc_X,Linear_Acc_Y,Linear_Acc_Z
2025-10-29 18:01:15.558,0.005,2.573,0.606,-1.661,-0.012,-0.004,-0.99,23.03,28.41,-93.86,0.9999,-0.0018000000000000002,0.0063,-0.0035,-0.006,0.0,-0.009000000000000001
2025-10-29 18:01:15.559,0.01,8.257,2.686,-5.663,-0.013000000000000001,-0.002,-0.99,24.32,28.64,-94.56,0.9998,-0.0089,0.004200000000000001,0.013800000000000002,0.003,-0.01,-0.009000000000000001
2025-10-29 18:01:15.559,0.015,4.251,1.637,-3.492,-0.011,-0.003,-0.991,24.32,28.64,-94.56,0.9997,-0.009000000000000001,0.0035,0.0207,0.005,-0.017,-0.008
2025-10-29 18:01:15.560,0.02,0.045,-0.17,0.198,-0.013000000000000001,-0.003,-0.991,23.73,29.02,-94.5,0.9997,-0.0055000000000000005,0.0054,0.0227,0.003,-0.009000000000000001,-0.008
2025-10-29 18:01:15.561,0.025,-0.012,0.0,0.001,-0.013000000000000001,-0.002,-0.992,23.73,29.02,-94.5,0.9997,-0.0038,0.006,0.023200000000000002,0.002,-0.006,-0.007
2025-10-29 18:01:15.561,0.03,-0.009000000000000001,-0.001,0.0,-0.012,-0.002,-0.991,23.09,28.990000000000002,-94.15,0.9997,-0.003,0.0061,0.0213,0.0,-0.003,-0.008
2025-10-29 18:01:15.561,0.035,-0.008,0.0,0.0,-0.013000000000000001,-0.002,-0.99,23.09,28.990000000000002,-94.15,0.9997,-0.0025,0.0063,0.0219,0.001,-0.002,-0.009000000000000001
2025-10-29 18:01:15.562,0.04,-0.005,0.0,0.002,-0.014,-0.003,-0.992,23.09,28.990000000000002,-94.15,0.9996,-0.0022,0.0066,0.024300000000000002,0.001,-0.001,-0.007
2025-10-29 18:01:15.562,0.045,-0.004,-0.002,0.0,-0.012,-0.003,-0.992,22.94,28.64,-94.65,0.9997,-0.0021000000000000003,0.006500000000000001,0.0227,0.0,-0.001,-0.007
2025-10-29 18:01:15.563,0.05,-0.004,-0.002,0.0,-0.012,-0.003,-0.993,22.94,28.64,-94.65,0.9997,-0.0019,0.006500000000000001,0.0221,0.0,0.0,-0.006
2025-10-29 18:01:15.563,0.055,-0.003,-0.002,0.001,-0.013000000000000001,-0.002,-0.991,23.0,29.23,-94.44,0.9997,-0.0017000000000000001,0.0066,0.0224,0.0,-0.001,-0.008
2025-10-29 18:01:15.563,0.06,-0.002,0.0,0.001,-0.013000000000000001,-0.002,-0.99,23.0,29.23,-94.44,0.9997,-0.0016,0.0067,0.0229,0.0,0.0,-0.009000000000000001
2025-10-29 18:01:15.564,0.065,-0.004,-0.001,0.002,-0.013000000000000001,-0.002,-0.992,23.0,29.23,-94.44,0.9997,-0.0016,0.0067,0.0234,0.0,0.0,-0.007
2025-10-29 18:01:15.564,0.07,-0.004,0.0,0.001,-0.013000000000000001,-0.001,-0.99,22.8,29.37,-94.53,0.9997,-0.0014,0.0067,0.0227,0.0,-0.001,-0.009000000000000001
2025-10-29 18:01:15.565,0.075,-0.002,0.001,0.001,-0.014,-0.002,-0.988,22.8,29.37,-94.53,0.9997,-0.0013000000000000002,0.0068000000000000005,0.0233,0.0,0.0,-0.011
2025-10-29 18:01:15.565,0.08,-0.005,-0.002,0.0,-0.013000000000000001,-0.002,-0.99,22.91,28.44,-94.97,0.9997,-0.0012000000000000001,0.0068000000000000005,0.023200000000000002,0.0,0.0,-0.009000000000000001
2025-10-29 18:01:15.565,0.085,-0.001,-0.001,0.0,-0.013000000000000001,-0.001,-0.99,22.91,28.44,-94.97,0.9997,-0.0012000000000000001,0.0068000000000000005,0.0228,0.0,-0.001,-0.009000000000000001
2025-10-29 18:01:15.566,0.09,-0.002,-0.002,0.0,-0.012,-0.002,-0.992,22.82,28.76,-94.09,0.9997,-0.0012000000000000001,0.0067,0.022000000000000002,-0.001,0.0,-0.007
2025-10-29 18:01:15.566,0.095,-0.002,-0.001,0.0,-0.014,-0.003,-0.99,22.82,28.76,-94.09,0.9997,-0.0012000000000000001,0.0068000000000000005,0.0228,0.0,0.0,-0.009000000000000001
2025-10-29 18:01:15.567,0.1,-0.002,0.0,0.0,-0.013000000000000001,-0.002,-0.993,22.82,28.76,-94.09,0.9997,-0.0012000000000000001,0.0068000000000000005,0.0228,0.0,0.0,-0.006
2025-10-29 18:01:15.567,0.105,-0.003,0.0,0.002,-0.013000000000000001,-0.002,-0.992,23.18,29.2,-94.62,0.9997,-0.0011,0.0068000000000000005,0.0228,0.0,0.0,-0.007
2025-10-29 18:01:15.567,0.11,-0.002,0.0,0.0,-0.013000000000000001,-0.002,-0.991,23.18,29.2,-94.62,0.9997,-0.0011,0.0068000000000000005,0.022500000000000003,0.0,0.0,-0.008
2025-10-29 18:01:15.568,0.115,-0.003,-0.003,0.0,-0.013000000000000001,-0.001,-0.991,23.0,29.400000000000002,-94.44,0.9997,-0.0011,0.0068000000000000005,0.0222,0.0,0.0,-0.008
2025-10-29 18:01:15.568,0.12,-0.004,-0.002,0.002,-0.013000000000000001,-0.003,-0.989,23.0,29.400000000000002,-94.44,0.9997,-0.0011,0.0068000000000000005,0.0223,0.0,0.0,-0.01
2025-10-29 18:01:15.568,0.125,-0.003,-0.002,0.0,-0.013000000000000001,-0.002,-0.988,23.0,29.400000000000002,-94.44,0.9997,-0.0011,0.0068000000000000005,0.0221,0.0,0.0,-0.011
2025-10-29 18:01:15.569,0.13,-0.001,0.0,0.0,-0.014,-0.002,-0.987,23.82,29.11,-94.79,0.9997,-0.0011,0.0068000000000000005,0.022500000000000003,0.0,0.0,-0.011
2025-10-29 18:01:15.569,0.135,-0.002,0.0,0.0,-0.013000000000000001,-0.001,-0.989,23.82,29.11,-94.79,0.9997,-0.001,0.006900000000000001,0.022500000000000003,0.0,-0.001,-0.01
2025-10-29 18:01:15.570,0.14,-0.004,0.0,0.0,-0.015,0.0,-0.988,23.61,28.88,-94.18,0.9997,-0.0009000000000000001,0.006900000000000001,0.0229,0.001,-0.001,-0.011
2025-10-29 18:01:15.570,0.145,-0.001,0.0,0.002,-0.014,-0.002,-0.99,23.61,28.88,-94.18,0.9997,-0.0009000000000000001,0.007,0.0234,0.0,0.0,-0.009000000000000001
2025-10-29 18:01:15.570,0.15,0.0,-0.003,0.0,-0.013000000000000001,-0.003,-0.989,23.35,28.73,-94.85000000000001,0.9996,-0.001,0.007,0.0234,0.0,0.001,-0.01
2025-10-29 18:01:15.571,0.155,0.0,0.0,0.0,-0.013000000000000001,-0.001,-0.99,23.35,28.73,-94.85000000000001,0.9997,-0.001,0.007,0.023200000000000002,0.0,0.0,-0.009000000000000001
2025-10-29 18:01:15.571,0.16,0.001,0.0,0.0,-0.013000000000000001,-0.002,-0.989,23.35,28.73,-94.85000000000001,0.9997,-0.001,0.006900000000000001,0.023200000000000002,0.0,0.0,-0.01
2025-10-29 18:01:15.571,0.165,0.0,0.0,0.0,-0.014,-0.003,-0.99,23.85,29.23,-94.18,0.9996,-0.001,0.007,0.0236,0.0,0.001,-0.009000000000000001
2025-10-29 18:01:15.572,0.17,0.001,0.0,0.0,-0.014,-0.003,-0.991,23.85,29.23,-94.18,0.9996,-0.0011,0.007,0.023700000000000002,0.0,0.0,-0.008
2025-10-29 18:01:15.572,0.175,-0.001,0.0,0.0,-0.013000000000000001,-0.002,-0.992,23.61,29.43,-94.76,0.9996,-0.0011,0.007,0.0236,0.0,0.0,-0.007
2025-10-29 18:01:15.573,0.18,0.0,0.0,0.0,-0.012,-0.003,-0.991,23.61,29.43,-94.76,0.9996,-0.0011,0.006900000000000001,0.0235,-0.001,0.001,-0.008
2025-10-29 18:01:15.573,0.185,0.0,0.002,0.0,-0.012,-0.002,-0.991,23.61,29.43,-94.76,0.9997,-0.0011,0.006900000000000001,0.023100000000000002,-0.001,0.0,-0.008
2025-10-29 18:01:15.573,0.19,0.001,0.0,0.0,-0.012,-0.001,-0.991,23.88,29.080000000000002,-94.59,0.9997,-0.0011,0.0068000000000000005,0.0228,0.0,0.0,-0.008
2025-10-29 18:01:15.574,0.195,0.0,0.0,0.0,-0.014,-0.001,-0.992,23.88,29.080000000000002,-94.59,0.9997,-0.0011,0.0068000000000000005,0.0229,0.0,0.0,-0.007
2025-10-29 18:01:15.574,0.2,0.0,0.0,0.0,-0.014,-0.002,-0.993,23.150000000000002,29.14,-95.0,0.9997,-0.001,0.006900000000000001,0.023,0.0,0.0,-0.006
2025-10-29 18:01:15.575,0.205,-0.001,0.0,-0.001,-0.013000000000000001,-0.002,-0.99,23.150000000000002,29.14,-95.0,0.9997,-0.0011,0.0068000000000000005,0.0229,0.0,0.0,-0.009000000000000001
2025-10-29 18:01:15.575,0.21,0.0,-0.006,0.0,-0.013000000000000001,0.0,-0.99,23.61,29.43,-94.65,0.9997,-0.001,0.0068000000000000005,0.0227,0.0,-0.001,-0.009000000000000001
2025-10-29 18:01:15.575,0.215,-0.001,-0.001,0.0,-0.013000000000000001,-0.002,-0.991,23.61,29.43,-94.65,0.9997,-0.001,0.0068000000000000005,0.0227,0.0,0.0,-0.008
2025-10-29 18:01:15.576,0.22,-0.002,0.001,0.0,-0.012,-0.002,-0.989,23.61,29.43,-94.65,0.9997,-0.001,0.0068000000000000005,0.022500000000000003,-0.001,0.0,-0.01
2025-10-29 18:01:15.576,0.225,-0.001,0.0,0.0,-0.013000000000000001,-0.002,-0.991,23.06,29.84,-94.7,0.9997,-0.001,0.0068000000000000005,0.022500000000000003,0.0,0.0,-0.008
2025-10-29 18:01:15.577,0.23,-0.001,0.0,0.0,-0.013000000000000001,-0.003,-0.991,23.06,29.84,-94.7,0.9997,-0.001,0.0068000000000000005,0.022500000000000003,0.0,0.0,-0.008
2025-10-29 18:01:15.577,0.235,-0.001,0.0,0.0,-0.013000000000000001,-0.002,-0.99,23.0,29.96,-95.0,0.9997,-0.001,0.0068000000000000005,0.022600000000000002,0.0,0.0,-0.009000000000000001
2025-10-29 18:01:15.577,0.24,-0.001,-0.002,0.0,-0.012,-0.002,-0.991,23.0,29.96,-95.0,0.9997,-0.001,0.0067,0.0224,0.0,0.0,-0.008
2025-10-29 18:01:15.578,0.245,0.0,0.0,0.0,-0.013000000000000001,-0.001,-0.991,23.0,29.96,-95.0,0.9997,-0.001,0.0067,0.0224,0.0,0.0,-0.008
2025-10-29 18:01:15.578,0.25,0.0,0.0,0.0,-0.013000000000000001,-0.002,-0.99,23.150000000000002,29.34,-94.73,0.9997,-0.001,0.0067,0.0224,0.0,0.0,-0.008
2025-10-29 18:01:15.579,0.255,0.0,-0.001,0.0,-0.013000000000000001,-0.003,-0.991,23.150000000000002,29.34,-94.73,0.9997,-0.0011,0.0068000000000000005,0.022500000000000003,0.0,0.001,-0.008
2025-10-29 18:01:15.579,0.26,-0.001,0.002,0.001,-0.013000000000000001,-0.001,-0.99,22.85,30.04,-94.47,0.9997,-0.001,0.0068000000000000005,0.022500000000000003,0.0,0.0,-0.008
2025-10-29 18:01:15.579,0.265,0.0,0.0,0.0,-0.013000000000000001,-0.001,-0.99,22.85,30.04,-94.47,0.9997,-0.001,0.0068000000000000005,0.0224,0.0,-0.001,-0.009000000000000001
2025-10-29 18:01:15.580,0.27,0.0,-0.003,0.0,-0.013000000000000001,-0.001,-0.991,23.150000000000002,29.02,-94.12,0.9997,-0.001,0.0067,0.0224,0.0,0.0,-0.008
2025-10-29 18:01:15.580,0.275,0.0,0.0,0.0,-0.013000000000000001,-0.002,-0.991,23.150000000000002,29.02,-94.12,0.9997,-0.001,0.0068000000000000005,0.0224,0.0,0.0,-0.008
2025-10-29 18:01:15.581,0.28,-0.001,0.0,0.0,-0.014,-0.001,-0.991,23.150000000000002,29.02,-94.12,0.9997,-0.001,0.0068000000000000005,0.022500000000000003,0.0,0.0,-0.008
2025-10-29 18:01:15.581,0.285,0.0,0.0,0.0,-0.013000000000000001,-0.002,-0.99,23.32,29.64,-93.91,0.9997,-0.0009000000000000001,0.0068000000000000005,0.022500000000000003,0.0,0.0,-0.009000000000000001
2025-10-29 18:01:15.581,0.29,0.0,-0.001,0.0,-0.014,-0.002,-0.992,23.32,29.64,-93.91,0.9997,-0.0009000000000000001,0.0068000000000000005,0.022600000000000002,0.0,0.0,-0.007
2025-10-29 18:01:15.582,0.295,-0.002,0.0,0.0,-0.015,-0.002,-0.992,22.77,29.43,-94.65,0.9997,-0.0009000000000000001,0.006900000000000001,0.0227,0.001,0.0,-0.007
2025-10-29 18:01:15.582,0.3,0.0,-0.001,0.0,-0.014,-0.002,-0.989,22.77,29.43,-94.65,0.9997,-0.0009000000000000001,0.006900000000000001,0.0228,0.0,0.0,-0.009000000000000001
2025-10-29 18:01:15.582,0.305,-0.002,0.0,0.0,-0.016,-0.002,-0.992,22.77,29.43,-94.65,0.9997,-0.0009000000000000001,0.007,0.023,0.002,0.0,-0.007
2025-10-29 18:01:15.583,0.31,0.0,0.002,0.0,-0.012,-0.002,-0.991,23.12,29.37,-95.11,0.9997,-0.001,0.007,0.0229,-0.001,0.0,-0.008
2025-10-29 18:01:15.583,0.315,0.0,0.0,0.0,-0.013000000000000001,-0.002,-0.99,23.12,29.37,-95.11,0.9997,-0.001,0.007,0.023,0.0,0.0,-0.008
2025-10-29 18:01:15.584,0.365,-0.001,0.0,0.0,-0.013000000000000001,-0.002,-0.992,23.06,29.78,-94.76,0.9997,-0.001,0.006900000000000001,0.023,0.0,0.0,-0.007
2025-10-29 18:01:15.584,0.37,0.0,0.002,0.0,-0.013000000000000001,-0.003,-0.992,23.06,29.310000000000002,-94.76,0.9997,-0.0011,0.006900000000000001,0.023,0.0,0.0,-0.007
2025-10-29 18:01:15.584,0.375,0.0,0.002,0.0,-0.013000000000000001,-0.002,-0.992,23.06,29.310000000000002,-94.76,0.9997,-0.0011,0.006900000000000001,0.023,0.0,0.0,-0.007
2025-10-29 18:01:15.585,0.38,0.0,0.001,0.0,-0.012,-0.001,-0.991,23.0,28.93,-95.0,0.9997,-0.0011,0.006900000000000001,0.0229,-0.001,0.0,-0.008
2025-10-29 18:01:15.585,0.385,-0.002,0.002,0.0,-0.012,-0.002,-0.989,23.0,28.93,-95.0,0.9997,-0.0011,0.0068000000000000005,0.0229,0.0,0.0,-0.01
2025-10-29 18:01:15.586,0.39,0.001,0.0,0.0,-0.013000000000000001,-0.001,-0.99,23.44,29.080000000000002,-95.23,0.9997,-0.001,0.0068000000000000005,0.0229,0.0,0.0,-0.009000000000000001
2025-10-29 18:01:15.586,0.395,0.0,0.0,0.0,-0.013000000000000001,-0.002,-0.991,23.44,29.080000000000002,-95.23,0.9997,-0.001,0.0068000000000000005,0.0229,0.0,0.0,-0.008
2025-10-29 18:01:15.587,0.4,0.0,-0.003,0.0,-0.013000000000000001,-0.003,-0.991,23.44,29.080000000000002,-95.23,0.9997,-0.0011,0.0068000000000000005,0.0229,0.0,0.001,-0.008
2025-10-29 18:01:15.587,0.405,0.001,-0.001,0.0,-0.014,-0.002,-0.992,22.82,29.28,-94.27,0.9997,-0.0011,0.006900000000000001,0.0229,0.0,0.0,-0.007
2025-10-29 18:01:15.587,0.41,-0.001,0.0,-0.001,-0.014,-0.002,-0.99,22.82,29.28,-94.27,0.9997,-0.0011,0.006900000000000001,0.0229,0.0,0.0,-0.009000000000000001
2025-10-29 18:01:15.588,0.415,0.0,0.002,0.0,-0.012,-0.002,-0.99,24.72,29.26,-95.29,0.9997,-0.0011,0.0068000000000000005,0.0229,-0.001,0.0,-0.009000000000000001
2025-10-29 18:01:15.588,0.42,0.0,0.0,0.0,-0.014,-0.001,-0.99,24.72,29.26,-95.29,0.9997,-0.001,0.006900000000000001,0.0229,0.0,-0.001,-0.009000000000000001
2025-10-29 18:01:15.589,0.425,-0.001,0.0,0.0,-0.013000000000000001,0.0,-0.989,23.09,29.11,-95.2,0.9997,-0.001,0.006900000000000001,0.0229,0.0,-0.001,-0.01
2025-10-29 18:01:15.589,0.43,-0.001,0.0,0.0,-0.014,-0.002,-0.99,23.09,29.11,-95.2,0.9997,-0.001,0.006900000000000001,0.0229,0.0,0.0,-0.009000000000000001
2025-10-29 18:01:15.589,0.435,0.0,0.0,0.0,-0.013000000000000001,-0.002,-0.99,23.09,29.11,-95.2,0.9997,-0.001,0.006900000000000001,0.0229,0.0,0.0,-0.009000000000000001
2025-10-29 18:01:15.590,0.44,0.001,-0.001,0.0,-0.013000000000000001,-0.002,-0.99,22.91,29.37,-95.26,0.9997,-0.001,0.006900000000000001,0.0229,0.0,0.0,-0.009000000000000001
2025-10-29 18:01:15.590,0.445,0.001,0.0,0.0,-0.014,-0.002,-0.991,22.91,29.37,-95.26,0.9997,-0.001,0.006900000000000001,0.0229,0.0,0.0,-0.008
2025-10-29 18:01:15.591,0.45,0.0,0.0,0.0,-0.013000000000000001,-0.002,-0.992,23.12,29.55,-95.17,0.9997,-0.001,0.006900000000000001,0.0229,0.0,0.0,-0.007
2025-10-29 18:01:15.591,0.455,-0.002,-0.001,0.0,-0.013000000000000001,-0.003,-0.99,23.12,29.55,-95.17,0.9997,-0.001,0.006900000000000001,0.0229,0.0,0.0,-0.008
2025-10-29 18:01:15.592,0.46,-0.001,0.0,0.0,-0.013000000000000001,-0.002,-0.989,23.12,29.55,-95.17,0.9997,-0.001,0.006900000000000001,0.0229,0.0,0.0,-0.01
2025-10-29 18:01:15.592,0.465,0.0,0.003,0.001,-0.012,-0.002,-0.99,23.12,29.23,-95.26,0.9997,-0.001,0.0068000000000000005,0.0229,0.0,0.0,-0.009000000000000001
2025-10-29 18:01:15.592,0.515,0.0,0.0,0.0,-0.014,-0.002,-0.989,24.080000000000002,28.990000000000002,-94.85000000000001,0.9997,-0.0011,0.0068000000000000005,0.0229,0.0,0.0,-0.009000000000000001
2025-10-29 18:01:15.593,0.52,0.0,-0.001,0.0,-0.014,-0.002,-0.992,24.080000000000002,28.990000000000002,-94.85000000000001,0.9997,-0.0011,0.0068000000000000005,0.0229,0.0,0.0,-0.007
2025-10-29 18:01:15.593,0.525,0.0,0.0,0.0,-0.013000000000000001,-0.002,-0.99,23.56,28.93,-95.7,0.9997,-0.0011,0.0068000000000000005,0.0229,0.0,0.0,-0.009000000000000001
2025-10-29 18:01:15.593,0.53,-0.001,0.001,0.0,-0.013000000000000001,0.0,-0.989,23.56,28.93,-95.7,0.9997,-0.001,0.0068000000000000005,0.0229,0.0,-0.001,-0.01
2025-10-29 18:01:15.594,0.535,0.001,0.0,0.0,-0.014,-0.002,-0.99,23.26,28.96,-94.79,0.9997,-0.001,0.0068000000000000005,0.0229,0.0,0.0,-0.008
2025-10-29 18:01:15.594,0.54,0.0,0.0,0.001,-0.013000000000000001,-0.002,-0.989,23.26,28.96,-94.79,0.9997,-0.001,0.0068000000000000005,0.0229,0.0,0.0,-0.01
2025-10-29 18:01:15.595,0.545,-0.001,-0.002,0.0,-0.014,-0.003,-0.989,22.85,29.310000000000002,-95.23,0.9997,-0.0011,0.0068000000000000005,0.0229,0.0,0.0,-0.01
2025-10-29 18:01:15.595,0.55,0.0,0.0,0.0,-0.014,-0.001,-0.99,22.85,29.310000000000002,-95.23,0.9997,-0.001,0.0068000000000000005,0.0229,0.0,-0.001,-0.009000000000000001
2025-10-29 18:01:15.595,0.555,0.0,0.002,0.001,-0.013000000000000001,-0.001,-0.99,22.85,29.310000000000002,-95.23,0.9997,-0.001,0.0068000000000000005,0.0229,0.0,0.0,-0.009000000000000001
2025-10-29 18:01:15.596,0.56,0.0,0.0,0.0,-0.014,-0.002,-0.991,23.09,29.23,-94.94,0.9997,-0.001,0.006900000000000001,0.0229,0.0,0.0,-0.008
2025-10-29 18:01:15.596,0.565,-0.001,0.0,0.0,-0.013000000000000001,-0.002,-0.99,23.09,29.23,-94.94,0.9997,-0.001,0.006900000000000001,0.0229,0.0,0.0,-0.009000000000000001
2025-10-29 18:01:15.597,0.57,0.0,0.0,0.0,-0.013000000000000001,-0.002,-0.988,23.03,29.37,-95.23,0.9997,-0.001,0.006900000000000001,0.0229,0.0,0.0,-0.011
2025-10-29 18:01:15.597,0.575,0.0,0.0,0.0,-0.013000000000000001,-0.003,-0.989,23.03,29.37,-95.23,0.9997,-0.0011,0.006900000000000001,0.0229,0.0,0.0,-0.009000000000000001
2025-10-29 18:01:15.597,0.58,0.0,0.0,0.0,-0.014,-0.001,-0.991,23.03,29.37,-95.23,0.9997,-0.001,0.006900000000000001,0.0229,0.0,0.0,-0.008
2025-10-29 18:01:15.598,0.585,-0.001,0.002,0.0,-0.013000000000000001,-0.001,-0.99,23.150000000000002,29.2,-95.43,0.9997,-0.001,0.006900000000000001,0.0229,0.0,0.0,-0.009000000000000001
2025-10-29 18:01:15.598,0.59,-0.001,0.002,0.0,-0.014,-0.003,-0.991,23.150000000000002,29.2,-95.43,0.9997,-0.001,0.006900000000000001,0.023,0.0,0.0,-0.008
2025-10-29 18:01:15.599,0.595,0.0,0.001,0.0,-0.012,-0.002,-0.991,23.29,29.72,-94.82000000000001,0.9997,-0.001,0.006900000000000001,0.0229,-0.001,0.0,-0.008
2025-10-29 18:01:15.599,0.6,0.0,-0.002,0.0,-0.013000000000000001,-0.002,-0.99,23.29,29.72,-94.82000000000001,0.9997,-0.0011,0.006900000000000001,0.0229,0.0,0.0,-0.009000000000000001
2025-10-29 18:01:15.599,0.605,-0.003,0.0,0.0,-0.013000000000000001,-0.002,-0.988,22.77,29.66,-95.61,0.9997,-0.001,0.006900000000000001,0.0229,0.0,0.0,-0.011
2025-10-29 18:01:15.600,0.61,-0.001,0.001,0.0,-0.013000000000000001,-0.002,-0.99,22.77,29.66,-95.61,0.9997,-0.0011,0.006900000000000001,0.023,0.0,0.0,-0.009000000000000001
2025-10-29 18:01:15.600,0.615,0.0,0.0,0.0,-0.013000000000000001,-0.001,-0.99,22.77,29.66,-95.61,0.9997,-0.001,0.006900000000000001,0.0229,0.0,0.0,-0.009000000000000001
2025-10-29 18:01:15.601,0.665,0.0,0.0,0.001,-0.013000000000000001,-0.001,-0.989,23.580000000000002,29.2,-94.82000000000001,0.9997,-0.001,0.006900000000000001,0.023,0.0,0.0,-0.01
2025-10-29 18:01:15.601,0.67,0.001,0.0,0.0,-0.014,-0.003,-0.991,23.580000000000002,29.2,-94.82000000000001,0.9997,-0.001,0.007,0.023,0.0,0.0,-0.008
2025-10-29 18:01:15.601,0.675,0.0,0.0,0.0,-0.012,-0.002,-0.989,23.580000000000002,29.2,-94.82000000000001,0.9997,-0.001,0.006900000000000001,0.023,0.0,0.0,-0.01
2025-10-29 18:01:15.602,0.68,0.0,0.0,0.002,-0.013000000000000001,-0.002,-0.989,23.0,28.7,-94.7,0.9997,-0.001,0.006900000000000001,0.023,0.0,0.0,-0.01
2025-10-29 18:01:15.602,0.685,-0.001,0.0,0.001,-0.013000000000000001,-0.002,-0.99,23.0,28.7,-94.7,0.9997,-0.001,0.006900000000000001,0.023,0.0,0.0,-0.009000000000000001
2025-10-29 18:01:15.602,0.69,0.0,-0.002,0.0,-0.012,-0.002,-0.991,23.44,29.61,-94.76,0.9997,-0.001,0.0068000000000000005,0.023,-0.001,0.0,-0.008
2025-10-29 18:01:15.603,0.695,0.0,0.0,0.0,-0.013000000000000001,-0.001,-0.99,23.44,29.61,-94.76,0.9997,-0.001,0.0068000000000000005,0.023,0.0,0.0,-0.009000000000000001
2025-10-29 18:01:15.603,0.7,-0.001,0.0,0.0,-0.012,-0.002,-0.989,23.44,29.61,-94.76,0.9997,-0.001,0.0068000000000000005,0.023,0.0,0.0,-0.01
2025-10-29 18:01:15.604,0.705,0.0,0.0,0.0,-0.013000000000000001,-0.001,-0.991,23.2,30.04,-94.97,0.9997,-0.001,0.0068000000000000005,0.023,0.0,0.0,-0.008
2025-10-29 18:01:15.604,0.71,0.0,-0.003,0.0,-0.012,-0.002,-0.989,23.2,30.04,-94.97,0.9997,-0.001,0.0068000000000000005,0.023,0.0,0.0,-0.01
2025-10-29 18:01:15.604,0.715,0.0,0.0,0.0,-0.014,-0.002,-0.988,23.85,29.78,-94.94,0.9997,-0.001,0.0068000000000000005,0.023,0.001,0.0,-0.011
2025-10-29 18:01:15.605,0.72,0.0,0.0,0.001,-0.013000000000000001,-0.002,-0.99,23.85,29.78,-94.94,0.9997,-0.001,0.0068000000000000005,0.023,0.0,0.0,-0.009000000000000001
2025-10-29 18:01:15.605,0.725,0.0,0.0,0.002,-0.012,-0.002,-0.99,23.23,29.46,-94.44,0.9997,-0.001,0.0068000000000000005,0.023,0.0,0.0,-0.009000000000000001
2025-10-29 18:01:15.605,0.73,0.0,0.001,0.0,-0.014,-0.002,-0.992,23.23,29.46,-94.44,0.9997,-0.001,0.0068000000000000005,0.023,0.0,0.0,-0.007
2025-10-29 18:01:15.606,0.735,0.0,0.0,0.0,-0.014,-0.001,-0.99,23.23,29.46,-94.44,0.9997,-0.001,0.006900000000000001,0.023,0.0,0.0,-0.009000000000000001
2025-10-29 18:01:15.606,0.74,0.0,-0.001,0.0,-0.012,-0.002,-0.988,23.47,29.900000000000002,-95.08,0.9997,-0.001,0.0068000000000000005,0.023,-0.001,0.0,-0.011
2025-10-29 18:01:15.606,0.745,0.0,0.0,0.0,-0.013000000000000001,-0.003,-0.989,23.47,29.900000000000002,-95.08,0.9997,-0.001,0.0068000000000000005,0.023,0.0,0.0,-0.01
2025-10-29 18:01:15.607,0.75,-0.002,0.0,0.0,-0.014,-0.001,-0.991,23.03,29.96,-94.12,0.9997,-0.001,0.006900000000000001,0.023,0.0,0.0,-0.008
2025-10-29 18:01:15.607,0.755,0.0,0.0,0.0,-0.014,-0.001,-0.99,23.03,29.96,-94.12,0.9997,-0.001,0.006900000000000001,0.023,0.0,0.0,-0.009000000000000001
2025-10-29 18:01:15.608,0.76,-0.002,-0.002,0.0,-0.012,-0.003,-0.989,23.03,29.96,-94.12,0.9997,-0.001,0.006900000000000001,0.023,0.0,0.001,-0.01
2025-10-29 18:01:15.608,0.765,-0.001,0.0,0.0,-0.013000000000000001,-0.003,-0.99,23.26,29.46,-94.7,0.9997,-0.0011,0.006900000000000001,0.023,0.0,0.001,-0.009000000000000001
2025-10-29 18:01:15.608,0.77,-0.001,0.001,0.0,-0.012,-0.001,-0.991,23.26,29.46,-94.7,0.9997,-0.001,0.0068000000000000005,0.023,0.0,-0.001,-0.008
2025-10-29 18:01:15.609,0.775,-0.001,0.002,0.0,-0.012,-0.002,-0.99,23.5,29.46,-94.53,0.9997,-0.001,0.0068000000000000005,0.023,0.0,0.0,-0.009000000000000001
2025-10-29 18:01:15.609,0.78,0.0,0.001,0.0,-0.013000000000000001,-0.001,-0.989,23.5,29.46,-94.53,0.9997,-0.001,0.0068000000000000005,0.023,0.0,0.0,-0.009000000000000001
2025-10-29 18:01:15.609,0.785,-0.001,0.0,0.0,-0.014,-0.003,-0.988,23.76,29.490000000000002,-94.67,0.9997,-0.001,0.0068000000000000005,0.023,0.0,0.0,-0.011
2025-10-29 18:01:15.610,0.79,-0.001,-0.002,0.0,-0.012,-0.001,-0.989,23.76,29.490000000000002,-94.67,0.9997,-0.001,0.0068000000000000005,0.023,-0.001,0.0,-0.01
2025-10-29 18:01:15.610,0.795,0.0,0.0,0.0,-0.013000000000000001,-0.002,-0.989,23.76,29.490000000000002,-94.67,0.9997,-0.001,0.0068000000000000005,0.023,0.0,0.0,-0.01
2025-10-29 18:01:15.611,0.8,0.0,0.0,0.0,-0.013000000000000001,-0.002,-0.99,23.47,30.04,-93.39,0.9997,-0.001,0.0068000000000000005,0.023,0.0,0.0,-0.008
2025-10-29 18:01:15.611,0.805,-0.001,0.0,0.0,-0.013000000000000001,-0.003,-0.989,23.47,30.04,-93.39,0.9997,-0.0011,0.0068000000000000005,0.023,0.0,0.0,-0.01
2025-10-29 18:01:15.611,0.81,0.0,-0.002,-0.001,-0.013000000000000001,-0.002,-0.99,23.2,29.61,-93.65,0.9997,-0.0011,0.0068000000000000005,0.023,0.0,0.0,-0.009000000000000001
2025-10-29 18:01:15.612,0.815,-0.001,0.006,0.001,-0.013000000000000001,-0.002,-0.99,23.2,29.61,-93.65,0.9997,-0.001,0.0068000000000000005,0.023,0.0,0.0,-0.009000000000000001
2025-10-29 18:01:15.612,0.82,0.0,0.001,0.0,-0.013000000000000001,-0.001,-0.99,23.85,29.61,-94.56,0.9997,-0.001,0.0068000000000000005,0.023,0.0,0.0,-0.009000000000000001
2025-10-29 18:01:15.612,0.825,-0.001,0.0,0.0,-0.013000000000000001,-0.001,-0.99,23.85,29.400000000000002,-94.56,0.9997,-0.001,0.0068000000000000005,0.023,0.0,0.0,-0.009000000000000001
2025-10-29 18:01:15.613,0.83,0.0,0.0,0.0,-0.013000000000000001,-0.002,-0.989,23.85,29.400000000000002,-94.56,0.9997,-0.001,0.0068000000000000005,0.023,0.0,0.0,-0.01
2025-10-29 18:01:15.613,0.835,0.0,-0.001,0.0,-0.012,-0.002,-0.991,23.29,29.26,-94.53,0.9997,-0.001,0.0067,0.023,0.0,0.0,-0.008
2025-10-29 18:01:15.614,0.84,0.001,0.0,0.0,-0.014,-0.003,-0.988,23.29,29.26,-94.53,0.9997,-0.001,0.0068000000000000005,0.023,0.0,0.0,-0.011
2025-10-29 18:01:15.614,0.845,0.001,0.001,0.0,-0.012,-0.002,-0.988,23.41,28.990000000000002,-94.41,0.9997,-0.0011,0.0067,0.023,0.0,0.0,-0.011
2025-10-29 18:01:15.614,0.85,0.002,0.001,0.0,-0.013000000000000001,-0.001,-0.981,23.41,28.990000000000002,-94.41,0.9997,-0.001,0.0067,0.023,0.0,-0.001,-0.018000000000000002
2025-10-29 18:01:15.615,0.855,0.005,0.0,0.0,-0.015,0.0,-0.97,23.41,28.990000000000002,-94.41,0.9997,-0.0009000000000000001,0.0068000000000000005,0.023,0.001,-0.002,-0.029
2025-10-29 18:01:15.615,0.86,0.012,0.003,0.0,-0.014,0.001,-0.9520000000000001,23.44,29.080000000000002,-94.27,0.9997,-0.0008,0.006900000000000001,0.023,0.0,-0.003,-0.047
2025-10-29 18:01:15.615,0.865,0.02,0.004,0.001,-0.013000000000000001,0.0,-0.9460000000000001,23.44,29.080000000000002,-94.27,0.9997,-0.0007,0.006900000000000001,0.023,0.0,-0.002,-0.053
2025-10-29 18:01:15.616,0.87,0.023,0.005,0.0,-0.011,-0.001,-0.984,24.11,29.2,-94.21000000000001,0.9997,-0.0007,0.0068000000000000005,0.0229,-0.002,0.0,-0.015
2025-10-29 18:01:15.616,0.875,0.011,0.006,0.0,-0.011,-0.002,-1.0210000000000001,24.11,29.2,-94.21000000000001,0.9997,-0.0008,0.0067,0.0228,-0.002,0.0,0.022
2025-10-29 18:01:15.616,0.88,0.006,0.005,0.0,-0.013000000000000001,-0.004,-1.044,23.18,29.66,-93.71000000000001,0.9997,-0.0009000000000000001,0.0067,0.0227,0.0,0.002,0.044
2025-10-29 18:01:15.617,0.885,0.0,-0.002,0.0,-0.014,-0.006,-1.049,23.18,29.66,-93.71000000000001,0.9997,-0.0011,0.0067,0.0227,0.001,0.004,0.049
2025-10-29 18:01:15.617,0.89,-0.004,-0.005,0.0,-0.015,-0.008,-1.026,23.18,29.66,-93.71000000000001,0.9997,-0.0014,0.0068000000000000005,0.0227,0.002,0.005,0.026000000000000002
2025-10-29 18:01:15.618,0.895,-0.005,0.0,0.001,-0.014,-0.005,-0.988,23.7,28.96,-94.47,0.9997,-0.0014,0.0068000000000000005,0.0227,0.0,0.001,-0.011
2025-10-29 18:01:15.618,0.9,-0.007,-0.001,0.0,-0.012,-0.004,-0.98,23.7,28.96,-94.47,0.9997,-0.0015,0.0068000000000000005,0.0227,0.0,0.001,-0.019
2025-10-29 18:01:15.618,0.905,-0.009000000000000001,-0.002,0.0,-0.01,-0.003,-0.984,23.06,28.93,-94.59,0.9997,-0.0015,0.0067,0.0228,-0.002,0.0,-0.015
2025-10-29 18:01:15.619,0.91,-0.008,-0.004,0.0,-0.011,-0.003,-0.991,23.06,28.93,-94.59,0.9997,-0.0015,0.0066,0.0229,-0.001,0.0,-0.008
2025-10-29 18:01:15.619,0.915,-0.007,-0.004,0.0,-0.013000000000000001,-0.005,-0.987,23.06,28.93,-94.59,0.9997,-0.0016,0.0066,0.0228,0.0,0.002,-0.012
2025-10-29 18:01:15.619,0.92,-0.007,0.0,0.0,-0.013000000000000001,0.0,-0.981,23.06,28.79,-94.76,0.9997,-0.0014,0.0067,0.0229,0.0,-0.002,-0.017
2025-10-29 18:01:15.620,0.925,-0.005,0.0,0.001,-0.014,0.0,-0.976,23.06,28.79,-94.76,0.9997,-0.0012000000000000001,0.0068000000000000005,0.0228,0.001,-0.003,-0.023
2025-10-29 18:01:15.620,0.93,0.0,0.0,0.0,-0.015,0.001,-0.967,23.41,29.400000000000002,-94.53,0.9997,-0.001,0.006900000000000001,0.0228,0.002,-0.004,-0.032
2025-10-29 18:01:15.621,0.935,0.003,0.0,0.0,-0.016,0.0,-0.9570000000000001,23.41,29.400000000000002,-94.53,0.9997,-0.0009000000000000001,0.007,0.0228,0.002,-0.003,-0.042
2025-10-29 18:01:15.621,0.94,0.009000000000000001,0.002,0.0,-0.016,0.002,-0.9500000000000001,22.8,29.02,-94.88,0.9997,-0.0007,0.007200000000000001,0.0227,0.002,-0.003,-0.049
2025-10-29 18:01:15.621,0.945,0.017,0.011,0.001,-0.013000000000000001,0.001,-0.9460000000000001,22.8,29.02,-94.88,0.9997,-0.0006000000000000001,0.0071,0.022600000000000002,-0.001,-0.002,-0.053
2025-10-29 18:01:15.622,0.95,0.026000000000000002,0.013000000000000001,0.0,-0.01,0.001,-0.9410000000000001,22.8,29.02,-94.88,0.9997,-0.0006000000000000001,0.006900000000000001,0.0222,-0.003,-0.003,-0.058
2025-10-29 18:01:15.622,0.955,0.034,0.013000000000000001,0.0,-0.009000000000000001,0.0,-0.9540000000000001,23.18,28.900000000000002,-93.59,0.9997,-0.0006000000000000001,0.0067,0.0219,-0.003,-0.001,-0.045
2025-10-29 18:01:15.622,0.96,0.036000000000000004,0.015,0.0,-0.009000000000000001,-0.002,-0.992,23.18,28.900000000000002,-93.59,0.9997,-0.0007,0.0066,0.0216,-0.003,0.0,-0.007
2025-10-29 18:01:15.623,0.965,0.029,0.009000000000000001,0.0,-0.011,-0.004,-1.039,23.26,28.93,-94.7,0.9997,-0.0009000000000000001,0.006500000000000001,0.021400000000000002,-0.001,0.002,0.039
2025-10-29 18:01:15.623,0.97,0.022,0.001,-0.002,-0.015,-0.007,-1.058,23.26,28.93,-94.7,0.9997,-0.0011,0.006500000000000001,0.0213,0.002,0.004,0.058
2025-10-29 18:01:15.624,0.975,0.012,-0.005,-0.001,-0.015,-0.01,-1.055,23.26,28.93,-94.7,0.9997,-0.0015,0.0066,0.0213,0.002,0.007,0.055
2025-10-29 18:01:15.624,0.98,0.005,-0.006,0.0,-0.016,-0.009000000000000001,-1.04,23.23,29.61,-94.79,0.9997,-0.0017000000000000001,0.0067,0.0212,0.002,0.005,0.04
2025-10-29 18:01:15.625,0.985,-0.002,-0.003,0.002,-0.013000000000000001,-0.008,-1.0110000000000001,23.23,29.61,-94.79,0.9997,-0.0019,0.0067,0.0213,0.0,0.004,0.011
2025-10-29 18:01:15.625,0.99,-0.006,-0.006,0.0,-0.013000000000000001,-0.01,-1.0,24.32,28.93,-94.53,0.9997,-0.0022,0.0067,0.0213,0.0,0.006,0.0
2025-10-29 18:01:15.625,0.995,-0.009000000000000001,-0.005,0.0,-0.012,-0.007,-0.987,24.32,28.93,-94.53,0.9997,-0.0023,0.0067,0.021500000000000002,-0.001,0.003,-0.012
2025-10-29 18:01:15.626,1.0,-0.012,-0.006,0.001,-0.01,-0.005,-0.974,24.7,28.5,-93.83,0.9997,-0.0023,0.0066,0.0217,-0.002,0.0,-0.025
2025-10-29 18:01:15.626,1.005,-0.012,-0.002,0.0,-0.011,-0.004,-0.976,24.7,28.5,-93.83,0.9997,-0.0022,0.0066,0.0219,-0.001,0.0,-0.022
2025-10-29 18:01:15.626,1.01,-0.007,0.0,0.0,-0.013000000000000001,-0.002,-0.979,24.7,28.5,-93.83,0.9997,-0.0021000000000000003,0.0066,0.0219,0.0,-0.002,-0.02
2025-10-29 18:01:15.627,1.015,-0.002,0.001,0.0,-0.014,0.001,-0.978,23.18,28.85,-94.56,0.9997,-0.0019,0.0067,0.0218,0.001,-0.005,-0.021
2025-10-29 18:01:15.627,1.02,0.0,0.003,-0.002,-0.014,0.0,-0.972,23.18,28.85,-94.56,0.9997,-0.0017000000000000001,0.0067,0.0217,0.001,-0.004,-0.027
2025-10-29 18:01:15.628,1.025,0.005,0.001,0.0,-0.016,0.001,-0.971,23.09,28.47,-93.97,0.9997,-0.0015,0.006900000000000001,0.0217,0.002,-0.005,-0.028
2025-10-29 18:01:15.628,1.03,0.007,0.003,-0.001,-0.016,0.0,-0.971,23.09,28.47,-93.97,0.9997,-0.0014,0.007,0.0217,0.002,-0.002,-0.028
2025-10-29 18:01:15.628,1.035,0.009000000000000001,0.006,0.0,-0.013000000000000001,0.0,-0.97,23.09,28.47,-93.97,0.9997,-0.0012000000000000001,0.007,0.021500000000000002,0.0,-0.002,-0.029
2025-10-29 18:01:15.629,1.04,0.011,0.005,0.0,-0.012,-0.002,-0.976,22.94,29.080000000000002,-94.76,0.9997,-0.0012000000000000001,0.006900000000000001,0.021400000000000002,-0.001,0.0,-0.023
2025-10-29 18:01:15.629,1.045,0.015,0.003,0.0,-0.01,-0.001,-0.983,22.94,29.080000000000002,-94.76,0.9997,-0.0012000000000000001,0.0068000000000000005,0.0213,-0.003,-0.001,-0.016
2025-10-29 18:01:15.629,1.05,0.015,0.006,0.0,-0.011,-0.003,-0.994,24.37,28.93,-94.59,0.9997,-0.0013000000000000002,0.0067,0.0212,-0.001,0.0,-0.005
2025-10-29 18:01:15.630,1.055,0.013000000000000001,0.003,0.0,-0.01,-0.004,-1.0070000000000001,24.37,28.93,-94.59,0.9997,-0.0014,0.0066,0.0211,-0.002,0.001,0.007
2025-10-29 18:01:15.630,1.06,0.012,0.002,0.0,-0.011,-0.005,-1.008,22.88,28.96,-94.82000000000001,0.9997,-0.0016,0.006500000000000001,0.021,-0.001,0.002,0.008
2025-10-29 18:01:15.630,1.065,0.009000000000000001,-0.001,0.0,-0.012,-0.006,-1.0110000000000001,22.88,28.96,-94.82000000000001,0.9997,-0.0017000000000000001,0.0064,0.020900000000000002,0.0,0.002,0.011
2025-10-29 18:01:15.631,1.07,0.002,0.0,0.001,-0.013000000000000001,-0.006,-1.0070000000000001,22.88,28.96,-94.82000000000001,0.9997,-0.0018000000000000002,0.006500000000000001,0.020800000000000003,0.0,0.002,0.008
2025-10-29 18:01:15.631,1.075,0.001,-0.001,0.0,-0.012,-0.004,-0.997,23.7,28.55,-94.56,0.9997,-0.0018000000000000002,0.006500000000000001,0.020800000000000003,0.0,0.0,-0.002
2025-10-29 18:01:15.631,1.08,-0.002,-0.002,0.0,-0.013000000000000001,-0.004,-0.989,23.7,28.55,-94.56,0.9997,-0.0019,0.006500000000000001,0.020800000000000003,0.0,0.0,-0.01
2025-10-29 18:01:15.632,1.085,0.0,0.0,0.0,-0.014,-0.004,-0.982,23.18,28.93,-94.59,0.9997,-0.0019,0.006500000000000001,0.0207,0.001,0.0,-0.016
2025-10-29 18:01:15.632,1.09,0.0,0.003,0.001,-0.014,-0.003,-0.978,23.18,28.93,-94.59,0.9997,-0.0019,0.0066,0.0207,0.001,0.0,-0.021
2025-10-29 18:01:15.633,1.095,0.001,0.0,0.0,-0.012,-0.004,-0.981,23.18,28.93,-94.59,0.9997,-0.0019,0.0066,0.0207,0.0,0.0,-0.018000000000000002
2025-10-29 18:01:15.633,1.1,0.003,0.0,0.0,-0.013000000000000001,-0.005,-0.987,22.91,29.400000000000002,-94.94,0.9997,-0.002,0.0066,0.0207,0.0,0.001,-0.011
2025-10-29 18:01:15.633,1.105,0.001,0.003,0.0,-0.013000000000000001,-0.005,-0.988,22.91,29.400000000000002,-94.94,0.9997,-0.002,0.0066,0.0207,0.0,0.0,-0.011
2025-10-29 18:01:15.634,1.11,0.005,0.004,0.0,-0.014,-0.004,-0.993,22.91,29.23,-94.62,0.9997,-0.002,0.0067,0.0206,0.001,0.0,-0.006
2025-10-29 18:01:15.634,1.115,0.005,0.002,0.0,-0.013000000000000001,-0.004,-0.996,22.91,29.23,-94.62,0.9997,-0.0021000000000000003,0.0067,0.0206,0.0,0.0,-0.003
2025-10-29 18:01:15.634,1.12,0.001,-0.001,0.0,-0.011,-0.003,-0.994,23.0,28.990000000000002,-94.82000000000001,0.9997,-0.002,0.0066,0.0207,-0.001,0.0,-0.005
2025-10-29 18:01:15.635,1.125,0.0,-0.001,0.0,-0.012,-0.003,-0.993,23.0,28.990000000000002,-94.82000000000001,0.9997,-0.002,0.0066,0.0207,0.0,0.0,-0.006
2025-10-29 18:01:15.635,1.13,0.001,0.0,0.0,-0.011,-0.003,-0.99,23.0,28.990000000000002,-94.82000000000001,0.9997,-0.002,0.006500000000000001,0.0207,-0.001,0.0,-0.009000000000000001
2025-10-29 18:01:15.635,1.135,0.0,0.0,0.001,-0.011,-0.002,-0.992,23.09,29.05,-94.79,0.9997,-0.0019,0.006500000000000001,0.0207,-0.001,-0.001,-0.007
2025-10-29 18:01:15.636,1.14,0.0,0.0,0.001,-0.013000000000000001,-0.003,-0.992,23.09,29.05,-94.79,0.9997,-0.0019,0.006500000000000001,0.020800000000000003,0.0,0.0,-0.007
2025-10-29 18:01:15.636,1.145,0.0,0.0,0.0,-0.013000000000000001,-0.005,-0.991,22.53,28.990000000000002,-94.76,0.9997,-0.0019,0.006500000000000001,0.0207,0.0,0.0,-0.008
2025-10-29 18:01:15.637,1.15,0.0,0.0,0.0,-0.013000000000000001,-0.004,-0.987,22.53,28.990000000000002,-94.76,0.9997,-0.0019,0.0066,0.0207,0.0,0.0,-0.012
2025-10-29 18:01:15.637,1.155,0.0,0.0,0.0,-0.014,-0.003,-0.982,22.53,28.990000000000002,-94.76,0.9997,-0.0019,0.0066,0.0207,0.001,0.0,-0.017
2025-10-29 18:01:15.637,1.16,0.001,0.0,0.002,-0.014,-0.003,-0.979,22.71,29.28,-94.67,0.9997,-0.0019,0.0067,0.0207,0.001,0.0,-0.019
2025-10-29 18:01:15.638,1.165,0.005,0.0,0.001,-0.013000000000000001,-0.003,-0.981,22.71,29.28,-94.67,0.9997,-0.0019,0.0067,0.0207,0.0,0.0,-0.018000000000000002
2025-10-29 18:01:15.638,1.17,0.005,0.002,0.0,-0.013000000000000001,-0.002,-0.985,24.55,28.580000000000002,-95.2,0.9997,-0.0018000000000000002,0.0067,0.0207,0.0,-0.001,-0.013000000000000001
2025-10-29 18:01:15.638,1.175,0.005,0.003,0.0,-0.013000000000000001,-0.003,-0.99,24.55,28.580000000000002,-95.2,0.9997,-0.0018000000000000002,0.0067,0.0207,0.0,0.0,-0.009000000000000001
2025-10-29 18:01:15.639,1.18,0.005,0.003,-0.002,-0.014,-0.005,-0.993,22.740000000000002,29.2,-95.05,0.9997,-0.0019,0.0068000000000000005,0.0207,0.001,0.001,-0.006
2025-10-29 18:01:15.639,1.185,0.005,0.0,0.0,-0.012,-0.005,-0.998,22.740000000000002,29.2,-95.05,0.9997,-0.0019,0.0068000000000000005,0.020800000000000003,-0.001,0.0,-0.001
2025-10-29 18:01:15.640,1.19,0.003,0.001,0.0,-0.01,-0.007,-1.002,22.740000000000002,29.2,-95.05,0.9997,-0.0021000000000000003,0.0066,0.020800000000000003,-0.002,0.003,0.002
2025-10-29 18:01:15.640,1.195,0.0,0.001,0.0,-0.013000000000000001,-0.006,-1.0010000000000001,23.0,29.23,-94.79,0.9997,-0.0022,0.0066,0.020800000000000003,0.0,0.001,0.001
2025-10-29 18:01:15.640,1.2,-0.001,0.001,0.001,-0.012,-0.005,-1.0010000000000001,23.0,29.23,-94.79,0.9997,-0.0022,0.0066,0.020800000000000003,0.0,0.0,0.001
2025-10-29 18:01:15.641,1.205,-0.002,0.001,0.0,-0.012,-0.004,-0.997,22.77,28.990000000000002,-95.0,0.9997,-0.0022,0.0066,0.020900000000000002,0.0,0.0,-0.002
2025-10-29 18:01:15.641,1.21,-0.004,-0.002,0.0,-0.013000000000000001,-0.005,-0.991,22.77,28.990000000000002,-95.0,0.9997,-0.0022,0.0066,0.020900000000000002,0.0,0.0,-0.008
2025-10-29 18:01:15.642,1.215,-0.004,0.0,0.0,-0.012,-0.003,-0.987,22.77,28.990000000000002,-95.0,0.9997,-0.0021000000000000003,0.0066,0.020900000000000002,0.0,0.0,-0.012
2025-10-29 18:01:15.642,1.22,-0.002,-0.002,0.0,-0.013000000000000001,-0.003,-0.985,23.150000000000002,29.43,-94.53,0.9997,-0.0021000000000000003,0.0066,0.020900000000000002,0.0,0.0,-0.014
2025-10-29 18:01:15.642,1.225,-0.001,0.0,0.0,-0.014,-0.003,-0.983,23.150000000000002,29.43,-94.53,0.9997,-0.0021000000000000003,0.0066,0.020900000000000002,0.001,-0.001,-0.016
2025-10-29 18:01:15.643,1.23,0.0,0.002,0.001,-0.013000000000000001,-0.003,-0.981,22.97,29.37,-95.23,0.9997,-0.002,0.0066,0.020900000000000002,0.0,0.0,-0.018000000000000002
2025-10-29 18:01:15.643,1.235,0.001,0.0,0.0,-0.014,-0.003,-0.98,22.97,29.37,-95.23,0.9997,-0.002,0.0067,0.020900000000000002,0.0,0.0,-0.019
2025-10-29 18:01:15.643,1.24,0.002,0.0,0.0,-0.012,-0.001,-0.98,22.94,28.990000000000002,-94.62,0.9997,-0.0019,0.0067,0.020800000000000003,0.0,-0.002,-0.019
2025-10-29 18:01:15.644,1.245,0.005,0.002,0.0,-0.013000000000000001,-0.001,-0.981,22.94,28.990000000000002,-94.62,0.9997,-0.0018000000000000002,0.0067,0.020800000000000003,0.0,-0.002,-0.018000000000000002
2025-10-29 18:01:15.644,1.25,0.005,0.0,0.001,-0.012,-0.002,-0.985,22.94,28.990000000000002,-94.62,0.9997,-0.0017000000000000001,0.0067,0.020800000000000003,0.0,-0.001,-0.014
2025-10-29 18:01:15.645,1.255,0.006,0.002,0.0,-0.013000000000000001,-0.003,-0.99,22.68,28.96,-94.53,0.9997,-0.0017000000000000001,0.0066,0.020800000000000003,0.0,0.0,-0.009000000000000001
2025-10-29 18:01:15.645,1.26,0.005,0.002,0.0,-0.012,-0.004,-0.993,22.68,28.96,-94.53,0.9997,-0.0018000000000000002,0.0066,0.0207,0.0,0.0,-0.006
2025-10-29 18:01:15.645,1.265,0.006,0.001,0.0,-0.011,-0.006,-0.997,23.18,29.080000000000002,-94.29,0.9997,-0.0019,0.006500000000000001,0.0207,-0.002,0.002,-0.002
2025-10-29 18:01:15.646,1.27,0.002,0.0,0.0,-0.011,-0.004,-1.0,23.18,29.080000000000002,-94.29,0.9997,-0.0019,0.006500000000000001,0.0207,-0.001,0.0,0.0
2025-10-29 18:01:15.646,1.275,-0.001,0.0,0.0,-0.013000000000000001,-0.006,-1.0,23.18,29.080000000000002,-94.29,0.9997,-0.002,0.006500000000000001,0.0206,0.0,0.002,0.0
2025-10-29 18:01:15.646,1.28,-0.001,-0.002,0.0,-0.013000000000000001,-0.005,-1.0,22.68,29.23,-94.5,0.9997,-0.0021000000000000003,0.006500000000000001,0.0206,0.0,0.0,0.0
2025-10-29 18:01:15.647,1.285,-0.003,0.0,0.0,-0.014,-0.004,-0.997,22.68,29.23,-94.5,0.9997,-0.0021000000000000003,0.0066,0.0206,0.001,0.0,-0.002
2025-10-29 18:01:15.647,1.29,-0.004,0.0,0.0,-0.013000000000000001,-0.004,-0.993,23.26,29.2,-94.91,0.9997,-0.0021000000000000003,0.0066,0.0206,0.0,0.0,-0.006
2025-10-29 18:01:15.648,1.295,-0.007,-0.001,0.0,-0.013000000000000001,-0.004,-0.989,23.26,29.2,-94.91,0.9997,-0.0021000000000000003,0.0066,0.0206,0.0,0.0,-0.01
2025-10-29 18:01:15.648,1.3,-0.002,-0.003,0.0,-0.013000000000000001,-0.004,-0.985,22.97,29.26,-94.62,0.9997,-0.0021000000000000003,0.0066,0.0206,0.0,0.0,-0.013000000000000001
2025-10-29 18:01:15.648,1.305,-0.004,-0.001,0.0,-0.013000000000000001,-0.004,-0.985,22.97,29.26,-94.62,0.9997,-0.0021000000000000003,0.0066,0.0206,0.0,0.0,-0.014
2025-10-29 18:01:15.649,1.31,-0.002,-0.001,0.0,-0.013000000000000001,-0.003,-0.982,22.97,29.26,-94.62,0.9997,-0.002,0.0066,0.0206,0.0,-0.001,-0.017
2025-10-29 18:01:15.649,1.315,-0.001,-0.001,0.0,-0.012,-0.003,-0.983,22.97,29.37,-94.7,0.9997,-0.002,0.0066,0.0206,0.0,0.0,-0.016
2025-10-29 18:01:15.649,1.32,-0.001,0.003,0.0,-0.012,-0.003,-0.982,22.97,29.37,-94.7,0.9997,-0.002,0.0066,0.0206,-0.001,0.0,-0.017
2025-10-29 18:01:15.650,1.325,0.001,0.0,0.0,-0.012,-0.003,-0.983,23.18,28.55,-94.94,0.9997,-0.0019,0.006500000000000001,0.0206,-0.001,-0.001,-0.016
2025-10-29 18:01:15.650,1.33,0.001,0.0,0.002,-0.012,-0.002,-0.983,23.18,28.55,-94.94,0.9997,-0.0018000000000000002,0.006500000000000001,0.0206,0.0,-0.001,-0.016
2025-10-29 18:01:15.650,1.335,0.003,0.001,0.001,-0.012,-0.002,-0.985,23.0,28.88,-94.29,0.9997,-0.0018000000000000002,0.006500000000000001,0.0206,0.0,-0.001,-0.014
2025-10-29 18:01:15.651,1.34,0.003,0.002,0.0,-0.013000000000000001,-0.002,-0.988,23.0,28.88,-94.29,0.9997,-0.0017000000000000001,0.006500000000000001,0.0206,0.0,0.0,-0.011
2025-10-29 18:01:15.651,1.345,0.003,0.002,0.002,-0.013000000000000001,-0.004,-0.99,23.0,28.88,-94.29,0.9997,-0.0018000000000000002,0.006500000000000001,0.0206,0.0,0.0,-0.009000000000000001
2025-10-29 18:01:15.652,1.35,0.003,0.002,0.0,-0.012,-0.005,-0.994,24.32,28.88,-94.38,0.9997,-0.0018000000000000002,0.006500000000000001,0.0206,0.0,0.001,-0.005
2025-10-29 18:01:15.652,1.355,0.003,0.0,0.0,-0.013000000000000001,-0.005,-0.993,24.32,28.88,-94.38,0.9997,-0.0019,0.006500000000000001,0.0206,0.0,0.001,-0.006
2025-10-29 18:01:15.652,1.36,0.002,0.0,0.0,-0.013000000000000001,-0.005,-0.994,22.77,29.580000000000002,-94.73,0.9997,-0.0019,0.0066,0.0206,0.0,0.0,-0.004
2025-10-29 18:01:15.653,1.365,0.003,0.0,0.0,-0.013000000000000001,-0.004,-0.995,22.77,29.580000000000002,-94.73,0.9997,-0.002,0.0066,0.0206,0.0,0.0,-0.004
2025-10-29 18:01:15.653,1.37,-0.001,-0.003,0.001,-0.013000000000000001,-0.003,-0.995,22.77,29.580000000000002,-94.73,0.9997,-0.002,0.0066,0.0206,0.0,0.0,-0.004
2025-10-29 18:01:15.653,1.375,-0.001,0.0,-0.001,-0.012,-0.004,-0.995,23.06,29.26,-94.85000000000001,0.9997,-0.002,0.0066,0.0206,-0.001,0.0,-0.004
2025-10-29 18:01:15.654,1.38,-0.001,0.0,0.0,-0.012,-0.005,-0.994,23.06,29.26,-94.85000000000001,0.9997,-0.002,0.0066,0.0206,0.0,0.001,-0.005
2025-10-29 18:01:15.654,1.385,-0.004,0.0,0.0,-0.011,-0.004,-0.995,23.29,29.28,-94.76,0.9997,-0.002,0.006500000000000001,0.0206,-0.001,0.0,-0.004
2025-10-29 18:01:15.655,1.39,-0.002,-0.002,0.0,-0.012,-0.004,-0.99,23.29,29.28,-94.76,0.9997,-0.002,0.006500000000000001,0.0206,0.0,0.0,-0.009000000000000001
2025-10-29 18:01:15.655,1.395,-0.002,0.0,0.001,-0.012,-0.004,-0.992,22.5,29.64,-95.46000000000001,0.9997,-0.0021000000000000003,0.006500000000000001,0.0206,0.0,0.0,-0.007
2025-10-29 18:01:15.655,1.4,-0.004,-0.004,0.0,-0.012,-0.003,-0.99,22.5,29.64,-95.46000000000001,0.9997,-0.002,0.006500000000000001,0.0206,0.0,0.0,-0.009000000000000001
2025-10-29 18:01:15.656,1.405,-0.003,-0.001,0.001,-0.012,-0.004,-0.986,22.5,29.64,-95.46000000000001,0.9997,-0.002,0.006500000000000001,0.0206,0.0,0.0,-0.013000000000000001
2025-10-29 18:01:15.656,1.41,-0.001,0.0,0.0,-0.013000000000000001,-0.002,-0.981,22.56,29.52,-95.0,0.9997,-0.002,0.006500000000000001,0.0206,0.0,-0.001,-0.018000000000000002
2025-10-29 18:01:15.657,1.415,0.0,0.0,0.0,-0.011,-0.002,-0.98,22.56,29.52,-95.0,0.9997,-0.0019,0.006500000000000001,0.0207,-0.001,-0.002,-0.019
2025-10-29 18:01:15.657,1.42,0.001,0.001,0.0,-0.012,-0.002,-0.982,22.650000000000002,29.37,-94.53,0.9997,-0.0018000000000000002,0.006500000000000001,0.0207,0.0,-0.001,-0.017
2025-10-29 18:01:15.657,1.425,0.0,0.0,0.002,-0.012,-0.001,-0.983,22.650000000000002,29.37,-94.53,0.9997,-0.0017000000000000001,0.0064,0.0207,0.0,-0.002,-0.016
2025-10-29 18:01:15.658,1.43,0.003,0.0,0.002,-0.012,-0.002,-0.984,22.650000000000002,29.37,-94.53,0.9997,-0.0017000000000000001,0.0064,0.0207,0.0,0.0,-0.014
2025-10-29 18:01:15.658,1.435,0.002,0.003,0.0,-0.012,-0.002,-0.988,22.62,29.11,-94.09,0.9997,-0.0016,0.0064,0.0207,0.0,0.0,-0.011
2025-10-29 18:01:15.658,1.44,0.006,0.0,0.0,-0.012,-0.002,-0.992,22.62,29.11,-94.09,0.9997,-0.0016,0.0064,0.0207,0.0,0.0,-0.006
2025-10-29 18:01:15.659,1.445,0.002,0.001,0.0,-0.012,-0.004,-0.993,22.62,28.990000000000002,-94.35000000000001,0.9997,-0.0017000000000000001,0.0064,0.0207,0.0,0.0,-0.006
2025-10-29 18:01:15.659,1.45,0.003,0.0,0.0,-0.014,-0.004,-0.992,22.62,28.990000000000002,-94.35000000000001,0.9997,-0.0017000000000000001,0.006500000000000001,0.020800000000000003,0.001,0.001,-0.007
2025-10-29 18:01:15.660,1.455,0.003,-0.001,0.0,-0.012,-0.006,-0.993,22.53,29.310000000000002,-94.06,0.9997,-0.0018000000000000002,0.006500000000000001,0.020800000000000003,0.0,0.002,-0.006
2025-10-29 18:01:15.660,1.46,0.001,-0.002,0.0,-0.012,-0.005,-0.994,22.53,29.310000000000002,-94.06,0.9997,-0.0019,0.006500000000000001,0.0207,0.0,0.0,-0.005
2025-10-29 18:01:15.660,1.465,0.0,0.0,0.0,-0.012,-0.005,-0.994,22.53,29.310000000000002,-94.06,0.9997,-0.0019,0.006500000000000001,0.0207,0.0,0.001,-0.004
2025-10-29 18:01:15.661,1.47,0.0,-0.002,0.0,-0.013000000000000001,-0.006,-0.995,22.42,28.76,-93.86,0.9997,-0.002,0.006500000000000001,0.0207,0.0,0.001,-0.004
2025-10-29 18:01:15.661,1.475,-0.002,0.0,0.0,-0.013000000000000001,-0.006,-0.996,22.42,28.76,-93.86,0.9997,-0.0021000000000000003,0.006500000000000001,0.0207,0.0,0.001,-0.003
2025-10-29 18:01:15.661,1.48,-0.001,-0.002,0.0,-0.013000000000000001,-0.004,-0.994,22.53,28.88,-94.5,0.9997,-0.0021000000000000003,0.006500000000000001,0.0207,0.0,0.0,-0.005
2025-10-29 18:01:15.662,1.485,-0.005,-0.002,0.0,-0.013000000000000001,-0.004,-0.994,22.53,28.88,-94.5,0.9997,-0.0021000000000000003,0.0066,0.0207,0.0,0.0,-0.005
2025-10-29 18:01:15.662,1.49,-0.005,-0.002,0.001,-0.013000000000000001,-0.006,-0.992,22.53,28.88,-94.5,0.9997,-0.0021000000000000003,0.0066,0.0206,0.0,0.001,-0.006
2025-10-29 18:01:15.662,1.495,-0.005,-0.003,0.001,-0.012,-0.003,-0.991,22.77,29.11,-94.12,0.9997,-0.0021000000000000003,0.0066,0.0207,0.0,0.0,-0.008
2025-10-29 18:01:15.663,1.5,-0.005,-0.002,0.0,-0.012,-0.005,-0.986,22.77,29.11,-94.12,0.9997,-0.0021000000000000003,0.0066,0.0207,0.0,0.0,-0.013000000000000001
2025-10-29 18:01:15.663,1.505,-0.006,-0.003,0.0,-0.012,-0.003,-0.985,22.56,28.96,-94.47,0.9997,-0.002,0.0066,0.0207,0.0,-0.001,-0.014
2025-10-29 18:01:15.663,1.51,-0.004,-0.003,-0.001,-0.012,-0.003,-0.985,22.56,28.96,-94.47,0.9997,-0.002,0.0066,0.0207,0.0,0.0,-0.014
2025-10-29 18:01:15.664,1.515,-0.003,-0.001,0.0,-0.012,-0.002,-0.985,22.5,29.11,-94.38,0.9997,-0.0019,0.0066,0.0207,0.0,-0.001,-0.014
2025-10-29 18:01:15.664,1.52,0.0,0.0,0.0,-0.013000000000000001,-0.003,-0.986,22.5,29.11,-94.38,0.9997,-0.0019,0.0066,0.0207,0.0,0.0,-0.013000000000000001
2025-10-29 18:01:15.665,1.525,0.001,0.001,0.0,-0.012,-0.002,-0.986,22.5,29.11,-94.38,0.9997,-0.0018000000000000002,0.006500000000000001,0.0207,0.0,-0.001,-0.013000000000000001
2025-10-29 18:01:15.665,1.53,0.0,0.0,0.0,-0.012,-0.002,-0.984,22.740000000000002,28.96,-94.41,0.9997,-0.0018000000000000002,0.006500000000000001,0.0207,0.0,-0.001,-0.015
2025-10-29 18:01:15.665,1.535,0.0,0.0,-0.001,-0.013000000000000001,-0.003,-0.984,22.740000000000002,28.96,-94.41,0.9997,-0.0018000000000000002,0.006500000000000001,0.0207,0.0,0.0,-0.015
2025-10-29 18:01:15.666,1.54,0.0,-0.001,0.002,-0.014,-0.003,-0.988,22.42,29.34,-94.12,0.9997,-0.0018000000000000002,0.0066,0.0207,0.001,0.0,-0.011
2025-10-29 18:01:15.666,1.545,0.0,0.0,0.001,-0.012,-0.004,-0.989,22.42,29.34,-94.12,0.9997,-0.0018000000000000002,0.0066,0.0207,0.0,0.0,-0.01
2025-10-29 18:01:15.666,1.55,0.001,-0.003,0.0,-0.012,-0.005,-0.99,22.42,29.34,-94.12,0.9997,-0.0019,0.0066,0.0207,0.0,0.001,-0.009000000000000001
2025-10-29 18:01:15.667,1.555,0.0,0.0,0.0,-0.012,-0.004,-0.99,23.18,28.82,-94.27,0.9997,-0.0019,0.0066,0.0207,0.0,0.0,-0.009000000000000001
2025-10-29 18:01:15.667,1.56,0.0,0.0,0.0,-0.014,-0.004,-0.991,23.18,28.82,-94.27,0.9997,-0.0019,0.0066,0.0207,0.0,0.0,-0.008
2025-10-29 18:01:15.667,1.565,0.001,0.002,0.0,-0.012,-0.005,-0.991,22.85,29.34,-94.44,0.9997,-0.002,0.0066,0.0207,0.0,0.001,-0.007
2025-10-29 18:01:15.668,1.57,0.001,-0.004,0.0,-0.011,-0.005,-0.994,22.85,29.34,-94.44,0.9997,-0.002,0.006500000000000001,0.0207,-0.001,0.001,-0.005
2025-10-29 18:01:15.668,1.575,0.0,0.0,0.0,-0.011,-0.004,-0.991,22.27,28.990000000000002,-94.41,0.9997,-0.002,0.006500000000000001,0.020800000000000003,-0.001,0.0,-0.008
2025-10-29 18:01:15.668,1.58,0.0,0.0,0.0,-0.013000000000000001,-0.004,-0.991,22.27,28.990000000000002,-94.41,0.9997,-0.002,0.006500000000000001,0.0207,0.0,0.0,-0.008
2025-10-29 18:01:15.669,1.585,-0.002,0.0,0.0,-0.014,-0.004,-0.991,22.27,28.990000000000002,-94.41,0.9997,-0.002,0.006500000000000001,0.0207,0.001,0.0,-0.008
2025-10-29 18:01:15.669,1.59,-0.001,0.0,0.0,-0.013000000000000001,-0.004,-0.987,22.97,29.080000000000002,-94.09,0.9997,-0.0021000000000000003,0.006500000000000001,0.0207,0.0,0.0,-0.011
2025-10-29 18:01:15.669,1.595,0.0,0.0,0.001,-0.013000000000000001,-0.002,-0.984,22.97,29.080000000000002,-94.09,0.9997,-0.002,0.0066,0.0207,0.0,-0.001,-0.015
2025-10-29 18:01:15.670,1.6,0.0,-0.002,0.0,-0.011,-0.003,-0.986,22.71,28.7,-94.38,0.9997,-0.002,0.006500000000000001,0.0207,-0.001,0.0,-0.013000000000000001
2025-10-29 18:01:15.670,1.605,0.0,-0.001,0.0,-0.013000000000000001,-0.003,-0.988,22.71,28.7,-94.38,0.9997,-0.0019,0.006500000000000001,0.0207,0.0,0.0,-0.011
2025-10-29 18:01:15.671,1.61,0.0,0.0,0.0,-0.013000000000000001,-0.003,-0.987,22.71,28.7,-94.38,0.9997,-0.0019,0.006500000000000001,0.0207,0.0,0.0,-0.012
2025-10-29 18:01:15.671,1.615,0.0,-0.001,0.0,-0.012,-0.003,-0.987,22.62,29.02,-94.53,0.9997,-0.0019,0.006500000000000001,0.0207,0.0,0.0,-0.012
2025-10-29 18:01:15.672,1.62,0.0,-0.001,0.001,-0.012,-0.004,-0.987,22.62,29.02,-94.53,0.9997,-0.0019,0.006500000000000001,0.0207,0.0,0.0,-0.012
2025-10-29 18:01:15.672,1.625,0.003,0.001,0.0,-0.011,-0.003,-0.985,22.09,29.2,-94.5,0.9997,-0.0019,0.006500000000000001,0.0207,-0.001,0.0,-0.013000000000000001
2025-10-29 18:01:15.672,1.63,0.002,0.002,0.0,-0.013000000000000001,-0.002,-0.988,22.09,29.2,-94.5,0.9997,-0.0018000000000000002,0.006500000000000001,0.020800000000000003,0.0,-0.001,-0.011
2025-10-29 18:01:15.673,1.635,0.001,0.0,0.0,-0.012,-0.003,-0.989,22.330000000000002,29.400000000000002,-94.47,0.9997,-0.0018000000000000002,0.006500000000000001,0.020800000000000003,0.0,0.0,-0.01
2025-10-29 18:01:15.673,1.64,0.003,-0.001,0.0,-0.012,-0.004,-0.991,22.330000000000002,29.400000000000002,-94.47,0.9997,-0.0018000000000000002,0.006500000000000001,0.0207,0.0,0.0,-0.008
2025-10-29 18:01:15.674,1.645,0.001,0.0,0.0,-0.013000000000000001,-0.006,-0.993,22.330000000000002,29.400000000000002,-94.47,0.9997,-0.0019,0.006500000000000001,0.0207,0.0,0.002,-0.006
2025-10-29 18:01:15.674,1.65,0.001,0.0,0.0,-0.013000000000000001,-0.004,-0.995,22.82,29.34,-94.88,0.9997,-0.0019,0.006500000000000001,0.0207,0.0,0.0,-0.004
2025-10-29 18:01:15.674,1.655,0.001,-0.002,0.001,-0.013000000000000001,-0.003,-0.99,22.82,29.34,-94.88,0.9997,-0.0019,0.0066,0.0207,0.0,0.0,-0.009000000000000001
2025-10-29 18:01:15.675,1.66,0.001,0.0,0.0,-0.014,-0.004,-0.99,23.35,28.93,-94.41,0.9997,-0.0019,0.0066,0.0207,0.001,0.0,-0.008
2025-10-29 18:01:15.675,1.665,0.0,0.0,0.0,-0.013000000000000001,-0.006,-0.993,23.35,28.93,-94.41,0.9997,-0.002,0.0066,0.020800000000000003,0.0,0.002,-0.006
2025-10-29 18:01:15.675,1.67,0.0,0.0,0.0,-0.013000000000000001,-0.005,-0.995,23.35,28.93,-94.41,0.9997,-0.0021000000000000003,0.0066,0.020800000000000003,0.0,0.0,-0.003
2025-10-29 18:01:15.676,1.675,-0.002,-0.002,0.0,-0.011,-0.005,-0.997,22.39,29.310000000000002,-93.86,0.9997,-0.0021000000000000003,0.0066,0.020800000000000003,-0.001,0.001,-0.002
2025-10-29 18:01:15.676,1.68,-0.002,0.0,0.0,-0.013000000000000001,-0.006,-0.992,22.39,29.310000000000002,-93.86,0.9997,-0.0022,0.0066,0.020800000000000003,0.0,0.001,-0.007
2025-10-29 18:01:15.676,1.685,-0.002,0.001,0.0,-0.012,-0.004,-0.989,22.650000000000002,28.88,-94.0,0.9997,-0.0022,0.0066,0.020800000000000003,0.0,0.0,-0.01
2025-10-29 18:01:15.677,1.69,-0.002,-0.002,0.0,-0.012,-0.004,-0.984,22.650000000000002,28.88,-94.0,0.9997,-0.0021000000000000003,0.006500000000000001,0.020900000000000002,0.0,0.0,-0.015
2025-10-29 18:01:15.677,1.695,0.0,0.001,0.0,-0.011,-0.004,-0.98,22.59,29.23,-93.91,0.9997,-0.0022,0.006500000000000001,0.020900000000000002,-0.001,0.0,-0.019
2025-10-29 18:01:15.677,1.7,-0.001,0.0,0.0,-0.013000000000000001,-0.003,-0.981,22.59,29.23,-93.91,0.9997,-0.0021000000000000003,0.006500000000000001,0.020900000000000002,0.0,-0.001,-0.018000000000000002
2025-10-29 18:01:15.678,1.705,0.001,-0.002,0.0,-0.013000000000000001,-0.003,-0.985,22.59,29.23,-93.91,0.9997,-0.0021000000000000003,0.006500000000000001,0.020900000000000002,0.0,0.0,-0.014
2025-10-29 18:01:15.678,1.71,0.0,0.0,0.0,-0.012,-0.003,-0.988,23.150000000000002,28.73,-93.89,0.9997,-0.002,0.006500000000000001,0.020900000000000002,0.0,0.0,-0.011
2025-10-29 18:01:15.678,1.715,0.0,0.0,0.0,-0.011,-0.003,-0.99,23.150000000000002,28.73,-93.89,0.9997,-0.002,0.006500000000000001,0.020900000000000002,-0.001,0.0,-0.009000000000000001
2025-10-29 18:01:15.679,1.72,0.001,0.0,0.0,-0.013000000000000001,-0.002,-0.991,22.36,28.990000000000002,-94.59,0.9997,-0.0019,0.006500000000000001,0.020900000000000002,0.0,-0.001,-0.008
2025-10-29 18:01:15.679,1.725,0.002,0.0,0.0,-0.013000000000000001,-0.004,-0.987,22.36,28.990000000000002,-94.59,0.9997,-0.002,0.006500000000000001,0.020900000000000002,0.0,0.0,-0.012
2025-10-29 18:01:15.680,1.73,0.001,0.0,0.0,-0.013000000000000001,-0.004,-0.987,22.36,28.990000000000002,-94.59,0.9997,-0.002,0.006500000000000001,0.020900000000000002,0.0,0.0,-0.012
2025-10-29 18:01:15.680,1.735,0.001,0.0,0.0,-0.013000000000000001,-0.003,-0.988,22.8,28.09,-94.67,0.9997,-0.0019,0.0066,0.020900000000000002,0.0,0.0,-0.011
2025-10-29 18:01:15.680,1.74,0.001,0.001,0.0,-0.013000000000000001,-0.002,-0.988,22.8,28.09,-94.67,0.9997,-0.0019,0.0066,0.020900000000000002,0.0,-0.001,-0.011
2025-10-29 18:01:15.681,1.745,0.0,0.002,0.0,-0.012,-0.004,-0.992,22.94,28.85,-94.73,0.9997,-0.0019,0.0066,0.020900000000000002,0.0,0.0,-0.007
2025-10-29 18:01:15.681,1.75,0.0,0.002,0.0,-0.012,-0.005,-0.996,22.94,28.85,-94.73,0.9997,-0.002,0.006500000000000001,0.020900000000000002,0.0,0.001,-0.003
2025-10-29 18:01:15.681,1.755,0.0,0.002,0.0,-0.013000000000000001,-0.004,-0.994,23.29,28.7,-94.65,0.9997,-0.002,0.0066,0.020900000000000002,0.0,0.0,-0.005
2025-10-29 18:01:15.682,1.76,0.0,-0.003,0.001,-0.014,-0.007,-0.993,23.29,28.7,-94.65,0.9997,-0.0021000000000000003,0.0066,0.020900000000000002,0.001,0.002,-0.006
2025-10-29 18:01:15.682,1.765,-0.001,-0.001,0.0,-0.014,-0.004,-0.994,23.29,28.7,-94.65,0.9997,-0.0021000000000000003,0.0067,0.020900000000000002,0.001,0.0,-0.005
2025-10-29 18:01:15.682,1.77,-0.002,-0.001,0.0,-0.014,-0.004,-0.992,22.8,29.23,-94.53,0.9997,-0.0021000000000000003,0.0067,0.020900000000000002,0.0,0.0,-0.007
2025-10-29 18:01:15.683,1.775,-0.001,-0.005,-0.001,-0.013000000000000001,-0.004,-0.994,22.8,29.23,-94.53,0.9997,-0.0021000000000000003,0.0068000000000000005,0.020900000000000002,0.0,0.0,-0.005
2025-10-29 18:01:15.683,1.78,-0.004,-0.004,0.0,-0.012,-0.003,-0.991,22.71,29.23,-95.38,0.9997,-0.0021000000000000003,0.0067,0.020900000000000002,0.0,0.0,-0.008
2025-10-29 18:01:15.684,1.785,-0.006,-0.001,0.0,-0.013000000000000001,-0.005,-0.986,22.71,29.23,-95.38,0.9997,-0.0021000000000000003,0.0067,0.020900000000000002,0.0,0.0,-0.013000000000000001
2025-10-29 18:01:15.684,1.79,-0.002,0.001,0.0,-0.012,-0.005,-0.981,22.71,29.23,-94.73,0.9997,-0.0021000000000000003,0.0067,0.020900000000000002,-0.001,0.0,-0.018000000000000002
2025-10-29 18:01:15.684,1.795,-0.001,0.0,0.0,-0.011,-0.003,-0.981,22.94,29.11,-94.73,0.9997,-0.0021000000000000003,0.0066,0.021,-0.001,0.0,-0.017
2025-10-29 18:01:15.685,1.8,0.0,0.002,0.0,-0.013000000000000001,-0.002,-0.982,22.94,29.11,-94.73,0.9997,-0.002,0.0066,0.021,0.0,-0.001,-0.016
2025-10-29 18:01:15.685,1.805,0.001,0.003,0.0,-0.011,-0.002,-0.984,22.59,28.990000000000002,-94.73,0.9997,-0.0019,0.006500000000000001,0.021,-0.001,-0.001,-0.015
2025-10-29 18:01:15.685,1.81,0.003,0.0,0.0,-0.012,-0.002,-0.985,22.59,28.990000000000002,-94.73,0.9997,-0.0019,0.006500000000000001,0.021,0.0,-0.001,-0.014
2025-10-29 18:01:15.686,1.815,0.001,0.0,0.0,-0.013000000000000001,-0.001,-0.987,22.62,28.82,-94.56,0.9997,-0.0018000000000000002,0.006500000000000001,0.021,0.0,-0.002,-0.012
2025-10-29 18:01:15.686,1.82,0.003,0.002,-0.001,-0.015,-0.001,-0.987,22.62,28.82,-94.56,0.9997,-0.0017000000000000001,0.0066,0.0211,0.001,-0.001,-0.012
2025-10-29 18:01:15.687,1.825,0.003,0.0,0.0,-0.013000000000000001,-0.003,-0.989,22.62,28.82,-94.56,0.9997,-0.0017000000000000001,0.0067,0.0211,0.0,0.0,-0.01
2025-10-29 18:01:15.687,1.83,0.002,0.0,0.0,-0.013000000000000001,-0.004,-0.992,23.32,28.96,-94.27,0.9997,-0.0017000000000000001,0.0067,0.0211,0.0,0.0,-0.007
2025-10-29 18:01:15.687,1.835,0.001,0.0,0.0,-0.012,-0.004,-0.996,23.32,28.96,-94.27,0.9997,-0.0017000000000000001,0.0066,0.0211,-0.001,0.0,-0.003
2025-10-29 18:01:15.688,1.84,0.0,-0.001,-0.001,-0.013000000000000001,-0.004,-0.996,22.36,29.43,-94.06,0.9997,-0.0017000000000000001,0.0066,0.0211,0.0,0.0,-0.003
2025-10-29 18:01:15.688,1.845,0.0,-0.002,0.001,-0.012,-0.004,-0.998,22.36,29.43,-94.06,0.9997,-0.0018000000000000002,0.0066,0.0211,0.0,0.0,0.0
2025-10-29 18:01:15.689,1.85,-0.002,0.0,0.0,-0.013000000000000001,-0.005,-0.997,22.82,29.43,-93.68,0.9997,-0.0018000000000000002,0.0066,0.0211,0.0,0.001,-0.002
2025-10-29 18:01:15.689,1.855,-0.003,-0.002,0.0,-0.011,-0.005,-0.992,22.82,29.43,-93.68,0.9997,-0.0019,0.006500000000000001,0.0211,-0.001,0.001,-0.007
2025-10-29 18:01:15.689,1.86,-0.004,-0.003,0.0,-0.012,-0.004,-0.987,22.82,29.43,-93.68,0.9997,-0.0019,0.006500000000000001,0.0211,0.0,0.0,-0.011
2025-10-29 18:01:15.690,1.865,-0.004,0.0,0.0,-0.013000000000000001,-0.003,-0.986,23.2,28.990000000000002,-94.44,0.9997,-0.0019,0.0066,0.0211,0.0,0.0,-0.013000000000000001
2025-10-29 18:01:15.690,1.87,-0.004,0.0,0.001,-0.013000000000000001,-0.003,-0.984,23.2,28.990000000000002,-94.44,0.9997,-0.0019,0.0066,0.0211,0.0,0.0,-0.015
2025-10-29 18:01:15.691,1.875,-0.001,0.0,0.0,-0.012,-0.003,-0.983,22.650000000000002,29.400000000000002,-93.91,0.9997,-0.0018000000000000002,0.006500000000000001,0.0211,0.0,-0.001,-0.016
2025-10-29 18:01:15.691,1.88,-0.001,0.0,0.0,-0.013000000000000001,-0.003,-0.981,22.650000000000002,29.400000000000002,-93.91,0.9997,-0.0018000000000000002,0.0066,0.0211,0.0,0.0,-0.018000000000000002
2025-10-29 18:01:15.691,1.885,0.0,0.0,0.0,-0.013000000000000001,-0.001,-0.981,22.650000000000002,29.400000000000002,-93.91,0.9997,-0.0017000000000000001,0.0066,0.0211,0.0,-0.002,-0.018000000000000002
2025-10-29 18:01:15.692,1.89,0.001,0.0,0.0,-0.012,-0.003,-0.985,24.43,28.88,-94.21000000000001,0.9997,-0.0017000000000000001,0.0066,0.0211,0.0,0.0,-0.014
2025-10-29 18:01:15.692,1.895,0.003,0.002,0.0,-0.014,-0.002,-0.986,24.43,28.88,-94.21000000000001,0.9997,-0.0016,0.0066,0.0211,0.0,-0.001,-0.013000000000000001
2025-10-29 18:01:15.692,1.9,0.005,0.0,0.002,-0.012,-0.001,-0.988,22.59,29.34,-94.0,0.9997,-0.0016,0.0066,0.0211,0.0,-0.001,-0.011
2025-10-29 18:01:15.693,1.905,0.003,0.001,0.0,-0.012,-0.003,-0.99,22.59,29.34,-94.0,0.9997,-0.0016,0.006500000000000001,0.0211,0.0,0.0,-0.009000000000000001
2025-10-29 18:01:15.693,1.91,0.001,-0.001,0.0,-0.012,-0.004,-0.993,23.44,29.26,-94.38,0.9997,-0.0016,0.006500000000000001,0.021,0.0,0.0,-0.006
2025-10-29 18:01:15.693,1.915,0.002,0.0,0.0,-0.013000000000000001,-0.003,-0.994,23.44,29.26,-94.38,0.9997,-0.0016,0.006500000000000001,0.021,0.0,0.0,-0.005
2025-10-29 18:01:15.694,1.92,0.0,0.0,0.0,-0.013000000000000001,-0.005,-0.992,23.44,29.26,-94.38,0.9997,-0.0017000000000000001,0.0066,0.0211,0.0,0.001,-0.007
2025-10-29 18:01:15.694,1.925,0.001,-0.001,0.0,-0.012,-0.004,-0.995,22.68,29.34,-94.29,0.9997,-0.0017000000000000001,0.006500000000000001,0.021,0.0,0.0,-0.004
2025-10-29 18:01:15.695,1.93,0.0,0.0,0.0,-0.012,-0.004,-0.992,22.68,29.34,-94.29,0.9997,-0.0018000000000000002,0.006500000000000001,0.021,0.0,0.0,-0.007
2025-10-29 18:01:15.695,1.935,0.001,-0.002,0.0,-0.012,-0.006,-0.992,22.8,29.310000000000002,-94.79,0.9997,-0.0019,0.006500000000000001,0.021,0.0,0.002,-0.007
2025-10-29 18:01:15.695,1.94,-0.002,-0.002,0.0,-0.012,-0.004,-0.991,22.8,29.310000000000002,-94.79,0.9997,-0.0019,0.006500000000000001,0.021,0.0,0.0,-0.008
2025-10-29 18:01:15.696,1.945,-0.001,0.0,0.0,-0.013000000000000001,-0.005,-0.988,22.8,29.310000000000002,-94.79,0.9997,-0.0019,0.006500000000000001,0.021,0.0,0.001,-0.011
2025-10-29 18:01:15.696,1.95,-0.002,-0.001,0.0,-0.013000000000000001,-0.003,-0.986,22.44,29.43,-94.27,0.9997,-0.0019,0.006500000000000001,0.021,0.0,0.0,-0.012
2025-10-29 18:01:15.696,1.955,0.0,0.0,0.0,-0.014,-0.004,-0.985,22.44,29.43,-94.27,0.9997,-0.0019,0.0066,0.021,0.001,0.0,-0.014
2025-10-29 18:01:15.697,1.96,0.001,0.0,0.0,-0.013000000000000001,-0.004,-0.986,23.0,29.990000000000002,-94.44,0.9997,-0.0019,0.0066,0.021,0.0,0.0,-0.013000000000000001
2025-10-29 18:01:15.697,1.965,-0.001,0.0,0.0,-0.014,-0.003,-0.988,23.0,29.990000000000002,-94.44,0.9997,-0.0019,0.0067,0.021,0.001,0.0,-0.011
2025-10-29 18:01:15.698,1.97,0.0,0.0,-0.001,-0.012,-0.004,-0.992,22.62,29.43,-94.15,0.9997,-0.0019,0.0066,0.021,-0.001,0.0,-0.007
2025-10-29 18:01:15.698,1.975,0.001,0.0,0.0,-0.011,-0.003,-0.991,22.62,29.43,-94.15,0.9997,-0.0019,0.0066,0.021,-0.001,0.0,-0.008
2025-10-29 18:01:15.698,1.98,0.001,0.0,0.001,-0.011,-0.003,-0.989,22.62,29.43,-94.15,0.9997,-0.0019,0.006500000000000001,0.021,-0.001,0.0,-0.01
2025-10-29 18:01:15.699,1.985,0.001,-0.003,0.0,-0.011,-0.002,-0.988,22.77,29.37,-94.21000000000001,0.9997,-0.0018000000000000002,0.006500000000000001,0.021,-0.001,-0.001,-0.011
2025-10-29 18:01:15.699,1.99,0.0,0.0,0.0,-0.012,-0.004,-0.989,22.77,29.37,-94.21000000000001,0.9997,-0.0019,0.0064,0.021,0.0,0.0,-0.01
2025-10-29 18:01:15.699,1.995,0.0,-0.003,0.0,-0.012,-0.003,-0.991,22.330000000000002,28.79,-94.38,0.9997,-0.0018000000000000002,0.0064,0.021,0.0,0.0,-0.008
2025-10-29 18:01:15.700,2.0,0.001,0.0,0.0,-0.013000000000000001,-0.004,-0.99,22.330000000000002,28.79,-94.38,0.9997,-0.0019,0.006500000000000001,0.021,0.0,0.0,-0.009000000000000001
2025-10-29 18:01:15.700,2.005,-0.001,0.0,0.0,-0.013000000000000001,-0.004,-0.989,22.330000000000002,28.79,-94.38,0.9997,-0.0019,0.006500000000000001,0.021,0.0,0.0,-0.009000000000000001
2025-10-29 18:01:15.700,2.01,0.0,0.0,-0.001,-0.013000000000000001,-0.006,-0.989,22.8,29.37,-94.09,0.9997,-0.002,0.006500000000000001,0.021,0.0,0.001,-0.01
2025-10-29 18:01:15.701,2.015,-0.001,0.0,0.0,-0.013000000000000001,-0.004,-0.989,22.8,29.37,-94.09,0.9997,-0.002,0.0066,0.021,0.0,0.0,-0.01
2025-10-29 18:01:15.701,2.02,0.0,-0.001,0.0,-0.012,-0.002,-0.987,22.5,29.02,-94.27,0.9997,-0.0019,0.006500000000000001,0.021,0.0,-0.002,-0.011
2025-10-29 18:01:15.702,2.025,0.0,0.0,0.001,-0.012,-0.004,-0.987,22.5,29.02,-94.27,0.9997,-0.0019,0.006500000000000001,0.021,0.0,0.0,-0.012
2025-10-29 18:01:15.702,2.03,0.0,-0.002,0.0,-0.012,-0.004,-0.988,22.91,29.310000000000002,-94.0,0.9997,-0.002,0.006500000000000001,0.021,0.0,0.0,-0.011
2025-10-29 18:01:15.702,2.035,0.0,-0.002,0.0,-0.012,-0.004,-0.987,22.91,29.310000000000002,-94.0,0.9997,-0.002,0.006500000000000001,0.021,0.0,0.0,-0.012
2025-10-29 18:01:15.703,2.04,0.001,0.0,-0.002,-0.012,-0.004,-0.989,22.91,29.310000000000002,-94.0,0.9997,-0.002,0.006500000000000001,0.021,0.0,0.0,-0.01
2025-10-29 18:01:15.703,2.045,-0.001,-0.001,0.0,-0.012,-0.005,-0.99,22.97,29.37,-94.21000000000001,0.9997,-0.002,0.0064,0.021,0.0,0.0,-0.009000000000000001
2025-10-29 18:01:15.704,2.05,0.0,0.0,0.0,-0.011,-0.002,-0.993,22.97,29.37,-94.21000000000001,0.9997,-0.0019,0.0064,0.021,-0.001,-0.001,-0.006
2025-10-29 18:01:15.705,2.055,0.0,-0.001,0.0,-0.012,-0.004,-0.991,22.53,28.82,-94.59,0.9997,-0.002,0.0064,0.021,0.0,0.0,-0.008
2025-10-29 18:01:15.705,2.06,-0.001,-0.001,0.0,-0.013000000000000001,-0.003,-0.989,22.53,28.82,-94.59,0.9997,-0.0019,0.0064,0.021,0.001,0.0,-0.01
2025-10-29 18:01:15.706,2.065,-0.001,-0.003,0.0,-0.013000000000000001,-0.004,-0.989,22.53,28.82,-94.59,0.9997,-0.002,0.006500000000000001,0.021,0.0,0.0,-0.01
2025-10-29 18:01:15.706,2.07,0.0,-0.002,0.0,-0.014,-0.004,-0.989,22.97,29.05,-95.26,0.9997,-0.002,0.006500000000000001,0.021,0.001,0.0,-0.01
2025-10-29 18:01:15.706,2.075,0.001,-0.002,0.0,-0.013000000000000001,-0.004,-0.989,22.97,29.05,-95.26,0.9997,-0.002,0.0066,0.021,0.0,0.0,-0.01
2025-10-29 18:01:15.707,2.08,0.0,0.0,0.0,-0.012,-0.004,-0.991,22.71,28.76,-95.17,0.9997,-0.002,0.0066,0.021,0.0,0.0,-0.008
2025-10-29 18:01:15.707,2.085,0.0,0.001,0.0,-0.012,-0.003,-0.989,22.71,28.76,-95.17,0.9997,-0.0019,0.006500000000000001,0.021,0.0,0.0,-0.01
2025-10-29 18:01:15.707,2.09,0.001,-0.001,0.0,-0.012,-0.003,-0.989,23.12,28.580000000000002,-94.29,0.9997,-0.0019,0.006500000000000001,0.021,0.0,-0.001,-0.01
2025-10-29 18:01:15.708,2.095,-0.001,0.0,0.0,-0.013000000000000001,-0.003,-0.989,23.12,28.580000000000002,-94.29,0.9997,-0.0019,0.006500000000000001,0.021,0.0,0.0,-0.009000000000000001
2025-10-29 18:01:15.708,2.1,-0.001,0.0,0.0,-0.013000000000000001,-0.005,-0.988,23.12,28.580000000000002,-94.29,0.9997,-0.0019,0.0066,0.021,0.0,0.001,-0.011
2025-10-29 18:01:15.709,2.105,0.001,0.0,0.0,-0.013000000000000001,-0.004,-0.988,22.68,29.37,-94.59,0.9997,-0.0019,0.0066,0.021,0.0,0.0,-0.011
2025-10-29 18:01:15.709,2.11,-0.001,0.0,0.001,-0.012,-0.006,-0.989,22.68,29.37,-94.59,0.9997,-0.002,0.0066,0.021,0.0,0.001,-0.01
2025-10-29 18:01:15.709,2.115,0.0,0.0,0.0,-0.012,-0.003,-0.988,24.580000000000002,29.64,-95.2,0.9997,-0.002,0.006500000000000001,0.021,0.0,0.0,-0.011
2025-10-29 18:01:15.710,2.12,0.0,0.0,0.0,-0.013000000000000001,-0.004,-0.988,24.580000000000002,29.64,-95.2,0.9997,-0.002,0.0066,0.021,0.0,0.0,-0.011
2025-10-29 18:01:15.710,2.125,0.0,0.0,0.0,-0.013000000000000001,-0.003,-0.989,24.580000000000002,29.64,-95.2,0.9997,-0.002,0.0066,0.021,0.0,0.0,-0.01
2025-10-29 18:01:15.710,2.13,0.0,0.003,0.0,-0.012,-0.004,-0.992,23.06,29.75,-94.21000000000001,0.9997,-0.002,0.006500000000000001,0.021,0.0,0.0,-0.007
2025-10-29 18:01:15.711,2.135,-0.001,0.0,0.0,-0.012,-0.002,-0.99,23.06,29.75,-94.21000000000001,0.9997,-0.0019,0.006500000000000001,0.021,0.0,-0.001,-0.008
2025-10-29 18:01:15.711,2.14,-0.001,-0.004,0.0,-0.012,-0.004,-0.989,22.62,28.990000000000002,-93.71000000000001,0.9997,-0.0019,0.006500000000000001,0.021,0.0,0.0,-0.01
2025-10-29 18:01:15.711,2.145,0.0,-0.001,0.0,-0.013000000000000001,-0.004,-0.989,22.62,28.990000000000002,-93.71000000000001,0.9997,-0.0019,0.006500000000000001,0.021,0.0,0.0,-0.01
2025-10-29 18:01:15.712,2.15,-0.001,0.0,0.001,-0.013000000000000001,-0.002,-0.99,22.36,29.26,-93.89,0.9997,-0.0018000000000000002,0.0066,0.021,0.0,-0.001,-0.009000000000000001
2025-10-29 18:01:15.712,2.155,-0.001,0.0,0.0,-0.012,-0.004,-0.988,22.36,29.26,-93.89,0.9997,-0.0018000000000000002,0.006500000000000001,0.021,0.0,0.0,-0.011
2025-10-29 18:01:15.713,2.16,0.001,-0.004,0.002,-0.013000000000000001,-0.004,-0.99,22.36,29.26,-93.89,0.9997,-0.0019,0.0066,0.021,0.0,0.0,-0.009000000000000001
2025-10-29 18:01:15.713,2.165,-0.001,0.0,0.0,-0.013000000000000001,-0.003,-0.988,22.85,28.82,-94.59,0.9997,-0.0018000000000000002,0.0066,0.021,0.0,0.0,-0.011
2025-10-29 18:01:15.713,2.17,0.0,-0.002,0.0,-0.013000000000000001,-0.004,-0.99,22.85,28.82,-94.59,0.9997,-0.0019,0.0066,0.021,0.0,0.0,-0.009000000000000001
2025-10-29 18:01:15.714,2.175,-0.001,0.0,0.0,-0.013000000000000001,-0.005,-0.989,22.82,28.900000000000002,-94.85000000000001,0.9997,-0.0019,0.0067,0.021,0.0,0.0,-0.01
2025-10-29 18:01:15.714,2.18,-0.001,0.003,0.0,-0.013000000000000001,-0.004,-0.992,22.82,28.900000000000002,-94.85000000000001,0.9997,-0.0019,0.0067,0.021,0.0,0.0,-0.006
2025-10-29 18:01:15.714,2.185,-0.002,0.002,0.0,-0.013000000000000001,-0.004,-0.991,22.82,28.900000000000002,-94.85000000000001,0.9997,-0.0019,0.0067,0.021,0.0,0.0,-0.008
2025-10-29 18:01:15.715,2.19,-0.001,-0.002,0.0,-0.012,-0.005,-0.988,22.62,28.82,-94.35000000000001,0.9997,-0.002,0.0066,0.021,0.0,0.001,-0.011
2025-10-29 18:01:15.715,2.195,0.0,0.0,0.0,-0.013000000000000001,-0.002,-0.99,22.62,28.82,-94.35000000000001,0.9997,-0.0019,0.0066,0.021,0.0,-0.001,-0.009000000000000001
2025-10-29 18:01:15.715,2.2,-0.001,0.0,0.0,-0.013000000000000001,-0.003,-0.986,22.12,28.96,-94.12,0.9997,-0.0019,0.0066,0.021,0.0,0.0,-0.013000000000000001
2025-10-29 18:01:15.716,2.205,0.0,0.002,0.0,-0.013000000000000001,-0.002,-0.987,22.12,28.96,-94.12,0.9997,-0.0018000000000000002,0.0067,0.021,0.0,-0.001,-0.012
2025-10-29 18:01:15.716,2.21,0.0,0.002,0.0,-0.013000000000000001,-0.003,-0.986,23.26,29.23,-94.27,0.9997,-0.0018000000000000002,0.0066,0.021,0.0,0.0,-0.013000000000000001
2025-10-29 18:01:15.717,2.215,0.0,-0.002,-0.001,-0.012,-0.002,-0.988,23.26,29.23,-94.27,0.9997,-0.0018000000000000002,0.0066,0.021,0.0,-0.001,-0.011
2025-10-29 18:01:15.717,2.22,0.001,-0.001,0.0,-0.013000000000000001,-0.003,-0.987,23.26,29.23,-94.27,0.9997,-0.0018000000000000002,0.0066,0.021,0.0,0.0,-0.011
2025-10-29 18:01:15.717,2.225,0.0,0.0,0.0,-0.014,-0.003,-0.99,22.150000000000002,29.43,-94.24,0.9997,-0.0017000000000000001,0.0067,0.021,0.001,0.0,-0.009000000000000001
2025-10-29 18:01:15.718,2.23,0.0,0.001,0.0,-0.013000000000000001,-0.003,-0.989,22.150000000000002,29.43,-94.24,0.9997,-0.0017000000000000001,0.0067,0.021,0.0,0.0,-0.01
2025-10-29 18:01:15.718,2.235,0.001,-0.002,0.0,-0.013000000000000001,-0.005,-0.989,22.88,28.85,-94.21000000000001,0.9997,-0.0018000000000000002,0.0067,0.021,0.0,0.001,-0.01
2025-10-29 18:01:15.718,2.24,0.001,0.0,0.0,-0.014,-0.005,-0.99,22.88,28.85,-94.21000000000001,0.9997,-0.0018000000000000002,0.0067,0.0211,0.0,0.001,-0.009000000000000001
2025-10-29 18:01:15.719,2.245,0.0,0.003,0.0,-0.014,-0.003,-0.989,22.88,28.85,-94.21000000000001,0.9997,-0.0018000000000000002,0.0068000000000000005,0.0211,0.0,0.0,-0.01
2025-10-29 18:01:15.719,2.25,0.0,-0.001,0.0,-0.013000000000000001,-0.003,-0.989,23.44,28.44,-94.76,0.9997,-0.0018000000000000002,0.0068000000000000005,0.0211,0.0,0.0,-0.01
2025-10-29 18:01:15.720,2.255,0.0,0.0,0.0,-0.013000000000000001,-0.004,-0.991,23.44,28.44,-94.76,0.9997,-0.0018000000000000002,0.0068000000000000005,0.0211,0.0,0.0,-0.008
2025-10-29 18:01:15.720,2.26,-0.001,0.0,0.0,-0.012,-0.004,-0.989,22.94,28.93,-94.82000000000001,0.9997,-0.0018000000000000002,0.0068000000000000005,0.0211,0.0,0.0,-0.01
2025-10-29 18:01:15.721,2.265,0.0,0.0,0.0,-0.012,-0.002,-0.99,22.94,28.93,-94.82000000000001,0.9997,-0.0018000000000000002,0.0067,0.021,0.0,-0.001,-0.009000000000000001
2025-10-29 18:01:15.721,2.27,0.0,-0.003,0.0,-0.013000000000000001,-0.003,-0.989,22.740000000000002,28.5,-94.97,0.9997,-0.0018000000000000002,0.0067,0.021,0.0,0.0,-0.01
2025-10-29 18:01:15.721,2.275,-0.001,0.0,0.0,-0.014,-0.003,-0.987,22.740000000000002,28.5,-94.97,0.9997,-0.0018000000000000002,0.0068000000000000005,0.0211,0.0,0.0,-0.011
2025-10-29 18:01:15.722,2.28,0.001,0.002,0.0,-0.012,-0.004,-0.987,22.740000000000002,28.5,-94.97,0.9997,-0.0018000000000000002,0.0068000000000000005,0.0211,0.0,0.0,-0.012
2025-10-29 18:01:15.722,2.285,0.0,0.003,0.002,-0.012,-0.002,-0.987,22.44,28.93,-94.65,0.9997,-0.0018000000000000002,0.0067,0.021,-0.001,-0.001,-0.011
2025-10-29 18:01:15.723,2.29,0.002,0.0,0.0,-0.012,-0.002,-0.987,22.44,28.93,-94.65,0.9997,-0.0017000000000000001,0.0067,0.021,0.0,0.0,-0.011
2025-10-29 18:01:15.723,2.295,0.0,0.0,0.0,-0.013000000000000001,-0.005,-0.988,22.740000000000002,29.02,-94.79,0.9997,-0.0018000000000000002,0.0067,0.021,0.0,0.001,-0.011
2025-10-29 18:01:15.723,2.3,-0.001,-0.001,0.0,-0.012,-0.003,-0.989,22.740000000000002,29.02,-94.79,0.9997,-0.0018000000000000002,0.0067,0.021,-0.001,0.0,-0.01
2025-10-29 18:01:15.724,2.305,-0.001,0.002,0.001,-0.012,-0.005,-0.988,22.56,29.26,-94.56,0.9997,-0.0018000000000000002,0.0066,0.021,0.0,0.001,-0.011
2025-10-29 18:01:15.724,2.31,0.003,0.0,0.0,-0.011,-0.004,-0.989,22.56,29.26,-94.56,0.9997,-0.0018000000000000002,0.0066,0.021,-0.001,0.0,-0.009000000000000001
2025-10-29 18:01:15.724,2.315,0.002,0.0,0.0,-0.011,-0.004,-0.99,22.56,29.26,-94.56,0.9997,-0.0018000000000000002,0.006500000000000001,0.021,-0.001,0.0,-0.009000000000000001
2025-10-29 18:01:15.725,2.32,0.0,0.0,0.0,-0.012,-0.003,-0.989,22.04,29.28,-94.5,0.9997,-0.0018000000000000002,0.006500000000000001,0.021,0.0,0.0,-0.01
2025-10-29 18:01:15.725,2.325,0.002,0.002,0.0,-0.012,-0.005,-0.991,22.04,29.28,-94.5,0.9997,-0.0019,0.006500000000000001,0.021,0.0,0.0,-0.008
2025-10-29 18:01:15.725,2.33,0.0,0.002,0.0,-0.011,-0.005,-0.991,22.740000000000002,29.37,-94.29,0.9997,-0.0019,0.0064,0.021,0.0,0.001,-0.008
2025-10-29 18:01:15.726,2.335,0.002,-0.002,0.0,-0.013000000000000001,-0.004,-0.992,22.740000000000002,29.37,-94.29,0.9997,-0.0019,0.006500000000000001,0.021,0.0,0.0,-0.007
2025-10-29 18:01:15.726,2.34,0.0,0.001,0.0,-0.013000000000000001,-0.004,-0.992,22.740000000000002,29.37,-94.29,0.9997,-0.0019,0.006500000000000001,0.021,0.0,0.0,-0.007
2025-10-29 18:01:15.727,2.345,0.0,0.0,0.0,-0.013000000000000001,-0.006,-0.99,22.740000000000002,29.52,-94.44,0.9997,-0.002,0.006500000000000001,0.020900000000000002,0.0,0.001,-0.008
2025-10-29 18:01:15.727,2.35,0.0,0.0,0.0,-0.015,-0.004,-0.988,22.740000000000002,29.52,-94.44,0.9997,-0.002,0.0066,0.020900000000000002,0.001,0.0,-0.011
2025-10-29 18:01:15.727,2.355,-0.001,-0.003,0.0,-0.012,-0.005,-0.988,23.06,29.55,-94.21000000000001,0.9997,-0.0021000000000000003,0.0066,0.020900000000000002,0.0,0.0,-0.01
2025-10-29 18:01:15.728,2.36,0.0,0.0,0.003,-0.011,-0.003,-0.989,23.06,29.55,-94.21000000000001,0.9997,-0.002,0.0066,0.020900000000000002,-0.001,0.0,-0.01
2025-10-29 18:01:15.728,2.365,-0.001,0.0,0.0,-0.011,-0.004,-0.989,22.62,29.55,-94.5,0.9997,-0.002,0.006500000000000001,0.021,-0.001,0.0,-0.01
2025-10-29 18:01:15.728,2.37,-0.002,0.0,0.0,-0.011,-0.003,-0.989,22.62,29.55,-94.5,0.9997,-0.002,0.006500000000000001,0.021,0.0,0.0,-0.01
2025-10-29 18:01:15.729,2.375,0.0,0.003,0.0,-0.011,-0.005,-0.988,22.62,29.55,-94.5,0.9997,-0.002,0.0064,0.021,0.0,0.001,-0.011
2025-10-29 18:01:15.729,2.38,0.001,0.006,0.0,-0.012,-0.003,-0.99,22.53,29.17,-94.62,0.9997,-0.002,0.0064,0.021,0.0,0.0,-0.009000000000000001
2025-10-29 18:01:15.730,2.385,-0.001,0.0,0.001,-0.013000000000000001,-0.004,-0.99,22.53,29.17,-94.62,0.9997,-0.002,0.0064,0.021,0.0,0.0,-0.009000000000000001
2025-10-29 18:01:15.730,2.39,0.0,0.0,0.0,-0.014,-0.005,-0.991,22.8,29.11,-94.67,0.9997,-0.002,0.006500000000000001,0.021,0.001,0.0,-0.008
2025-10-29 18:01:15.730,2.395,-0.002,0.0,0.0,-0.012,-0.004,-0.99,22.8,29.11,-94.67,0.9997,-0.0021000000000000003,0.006500000000000001,0.021,0.0,0.0,-0.009000000000000001
2025-10-29 18:01:15.731,2.4,0.0,0.0,0.0,-0.012,-0.005,-0.989,22.8,29.11,-94.67,0.9997,-0.0021000000000000003,0.006500000000000001,0.021,0.0,0.0,-0.01
2025-10-29 18:01:15.731,2.405,0.0,0.0,0.0,-0.013000000000000001,-0.002,-0.989,22.650000000000002,29.34,-94.29,0.9997,-0.002,0.006500000000000001,0.021,0.0,-0.001,-0.01
2025-10-29 18:01:15.731,2.41,0.0,-0.002,0.001,-0.012,-0.004,-0.988,22.650000000000002,29.34,-94.29,0.9997,-0.002,0.006500000000000001,0.021,0.0,0.0,-0.011
2025-10-29 18:01:15.732,2.415,0.0,-0.001,0.0,-0.013000000000000001,-0.004,-0.989,22.36,29.17,-94.32000000000001,0.9997,-0.002,0.006500000000000001,0.021,0.0,0.0,-0.01
2025-10-29 18:01:15.732,2.42,-0.002,0.0,0.001,-0.013000000000000001,-0.003,-0.991,22.36,29.17,-94.32000000000001,0.9997,-0.002,0.006500000000000001,0.021,0.0,0.0,-0.008
2025-10-29 18:01:15.732,2.425,0.0,0.0,0.0,-0.013000000000000001,-0.005,-0.99,23.09,29.14,-94.67,0.9997,-0.002,0.0066,0.021,0.0,0.0,-0.009000000000000001
2025-10-29 18:01:15.733,2.43,0.0,0.0,0.0,-0.012,-0.004,-0.989,23.09,29.14,-94.67,0.9997,-0.002,0.006500000000000001,0.021,0.0,0.0,-0.01
2025-10-29 18:01:15.733,2.435,-0.001,0.0,-0.001,-0.013000000000000001,-0.003,-0.991,23.09,29.14,-94.67,0.9997,-0.002,0.006500000000000001,0.021,0.0,0.0,-0.008
2025-10-29 18:01:15.734,2.44,-0.001,0.0,0.001,-0.013000000000000001,-0.005,-0.989,22.5,29.26,-94.56,0.9997,-0.002,0.0066,0.021,0.0,0.0,-0.01
2025-10-29 18:01:15.734,2.445,0.0,0.0,0.0,-0.013000000000000001,-0.003,-0.988,22.5,29.26,-94.56,0.9997,-0.002,0.0066,0.021,0.0,0.0,-0.011
2025-10-29 18:01:15.734,2.45,-0.001,-0.002,0.001,-0.012,-0.004,-0.987,22.68,29.37,-94.32000000000001,0.9997,-0.002,0.0066,0.021,0.0,0.0,-0.011
2025-10-29 18:01:15.735,2.455,0.0,0.001,0.0,-0.013000000000000001,-0.004,-0.987,22.68,29.37,-94.32000000000001,0.9997,-0.002,0.0066,0.021,0.0,0.0,-0.012
2025-10-29 18:01:15.735,2.46,-0.001,0.0,0.0,-0.013000000000000001,-0.004,-0.988,22.68,29.37,-94.32000000000001,0.9997,-0.002,0.0066,0.021,0.0,0.0,-0.011
2025-10-29 18:01:15.736,2.465,0.0,0.0,0.0,-0.012,-0.004,-0.989,22.68,29.28,-94.44,0.9997,-0.002,0.0066,0.021,0.0,0.0,-0.01
2025-10-29 18:01:15.737,2.47,0.0,0.001,0.0,-0.013000000000000001,-0.002,-0.989,22.68,29.28,-94.44,0.9997,-0.0019,0.0066,0.020900000000000002,0.0,-0.001,-0.01
2025-10-29 18:01:15.737,2.475,0.0,0.0,0.0,-0.012,-0.003,-0.988,22.650000000000002,29.080000000000002,-95.11,0.9997,-0.0019,0.0066,0.020900000000000002,0.0,0.0,-0.011
2025-10-29 18:01:15.738,2.48,0.0,0.0,0.0,-0.013000000000000001,-0.005,-0.99,22.650000000000002,29.080000000000002,-95.11,0.9997,-0.002,0.0066,0.020900000000000002,0.0,0.0,-0.009000000000000001
2025-10-29 18:01:15.738,2.485,0.003,0.002,0.0,-0.012,-0.005,-0.988,22.12,29.37,-95.0,0.9997,-0.002,0.0066,0.020900000000000002,0.0,0.0,-0.011
2025-10-29 18:01:15.739,2.49,0.0,0.0,0.0,-0.012,-0.004,-0.99,22.12,29.37,-95.0,0.9997,-0.002,0.006500000000000001,0.020900000000000002,0.0,0.0,-0.009000000000000001
2025-10-29 18:01:15.739,2.495,0.0,0.0,0.0,-0.012,-0.004,-0.99,22.12,29.37,-95.0,0.9997,-0.002,0.006500000000000001,0.020900000000000002,0.0,0.0,-0.008
2025-10-29 18:01:15.740,2.5,0.0,-0.001,0.0,-0.012,-0.005,-0.989,22.47,29.580000000000002,-94.32000000000001,0.9997,-0.0021000000000000003,0.006500000000000001,0.020900000000000002,0.0,0.001,-0.01
2025-10-29 18:01:15.740,2.505,0.0,-0.004,0.0,-0.013000000000000001,-0.004,-0.992,22.47,29.580000000000002,-94.32000000000001,0.9997,-0.0021000000000000003,0.006500000000000001,0.020900000000000002,0.0,0.0,-0.007
2025-10-29 18:01:15.740,2.51,-0.001,0.0,0.002,-0.013000000000000001,-0.005,-0.989,22.44,29.810000000000002,-94.67,0.9997,-0.0021000000000000003,0.0066,0.020900000000000002,0.0,0.001,-0.01
2025-10-29 18:01:15.741,2.515,-0.001,0.0,0.0,-0.012,-0.003,-0.989,22.44,29.810000000000002,-94.67,0.9997,-0.0021000000000000003,0.006500000000000001,0.020900000000000002,0.0,0.0,-0.01
2025-10-29 18:01:15.741,2.52,0.0,0.0,0.002,-0.013000000000000001,-0.003,-0.989,22.44,29.810000000000002,-94.67,0.9997,-0.0021000000000000003,0.0066,0.020900000000000002,0.0,0.0,-0.01
2025-10-29 18:01:15.742,2.525,0.0,0.0,0.002,-0.011,-0.005,-0.987,22.77,29.37,-94.53,0.9997,-0.0021000000000000003,0.006500000000000001,0.020900000000000002,-0.001,0.001,-0.012
2025-10-29 18:01:15.742,2.53,0.0,0.0,0.0,-0.013000000000000001,-0.002,-0.987,22.77,29.37,-94.53,0.9997,-0.002,0.006500000000000001,0.020900000000000002,0.0,-0.001,-0.011
2025-10-29 18:01:15.742,2.535,0.0,0.0,0.0,-0.013000000000000001,-0.004,-0.989,22.56,29.2,-94.76,0.9997,-0.002,0.006500000000000001,0.020900000000000002,0.0,0.0,-0.01
2025-10-29 18:01:15.743,2.54,-0.001,0.0,0.0,-0.013000000000000001,-0.004,-0.991,22.56,29.2,-94.76,0.9997,-0.002,0.006500000000000001,0.020900000000000002,0.0,0.0,-0.008
2025-10-29 18:01:15.743,2.545,0.0,0.002,0.0,-0.013000000000000001,-0.003,-0.99,22.88,29.11,-94.38,0.9997,-0.002,0.006500000000000001,0.020900000000000002,0.0,0.0,-0.009000000000000001
2025-10-29 18:01:15.743,2.55,0.0,0.002,-0.001,-0.013000000000000001,-0.003,-0.991,22.88,29.11,-94.38,0.9997,-0.002,0.0066,0.020900000000000002,0.0,0.0,-0.008
2025-10-29 18:01:15.744,2.555,0.0,0.0,0.001,-0.013000000000000001,-0.004,-0.992,22.88,29.11,-94.38,0.9997,-0.002,0.0066,0.020900000000000002,0.0,0.0,-0.007
2025-10-29 18:01:15.744,2.56,-0.001,0.0,0.0,-0.012,-0.004,-0.99,23.0,29.72,-94.5,0.9997,-0.002,0.0066,0.020900000000000002,0.0,0.0,-0.009000000000000001
2025-10-29 18:01:15.744,2.565,0.0,0.0,0.0,-0.011,-0.005,-0.99,23.0,29.72,-94.5,0.9997,-0.002,0.006500000000000001,0.020900000000000002,-0.001,0.0,-0.009000000000000001
2025-10-29 18:01:15.745,2.57,-0.001,0.0,0.0,-0.013000000000000001,-0.004,-0.989,22.18,29.69,-94.91,0.9997,-0.002,0.006500000000000001,0.020900000000000002,0.0,0.0,-0.009000000000000001
2025-10-29 18:01:15.745,2.575,-0.001,0.0,0.0,-0.012,-0.004,-0.988,22.18,29.69,-94.91,0.9997,-0.002,0.006500000000000001,0.020900000000000002,0.0,0.0,-0.011
2025-10-29 18:01:15.746,2.58,-0.001,0.001,0.0,-0.013000000000000001,-0.004,-0.989,22.18,29.69,-94.91,0.9997,-0.0021000000000000003,0.006500000000000001,0.020900000000000002,0.0,0.0,-0.01
2025-10-29 18:01:15.746,2.585,-0.001,-0.001,0.0,-0.012,-0.003,-0.988,22.71,29.69,-94.21000000000001,0.9997,-0.002,0.006500000000000001,0.020900000000000002,0.0,0.0,-0.011
2025-10-29 18:01:15.746,2.59,-0.001,-0.001,0.0,-0.011,-0.003,-0.988,22.71,29.69,-94.21000000000001,0.9997,-0.002,0.006500000000000001,0.021,-0.001,0.0,-0.011
2025-10-29 18:01:15.747,2.595,0.0,0.0,0.0,-0.013000000000000001,-0.004,-0.986,22.150000000000002,29.66,-94.09,0.9997,-0.002,0.006500000000000001,0.021,0.0,0.0,-0.013000000000000001
2025-10-29 18:01:15.747,2.6,-0.001,0.0,0.0,-0.014,-0.003,-0.985,22.150000000000002,29.66,-94.09,0.9997,-0.002,0.006500000000000001,0.021,0.001,0.0,-0.013000000000000001
2025-10-29 18:01:15.747,2.605,0.0,-0.001,0.0,-0.013000000000000001,-0.004,-0.986,22.3,29.310000000000002,-94.44,0.9997,-0.002,0.0066,0.021,0.0,0.0,-0.013000000000000001
2025-10-29 18:01:15.748,2.61,0.001,0.002,0.0,-0.012,-0.004,-0.986,22.3,29.310000000000002,-94.44,0.9997,-0.002,0.006500000000000001,0.021,-0.001,0.0,-0.013000000000000001
2025-10-29 18:01:15.748,2.615,0.0,0.003,-0.001,-0.014,-0.003,-0.987,22.3,29.310000000000002,-94.44,0.9997,-0.002,0.0066,0.021,0.001,0.0,-0.012
2025-10-29 18:01:15.748,2.62,0.002,0.0,0.0,-0.013000000000000001,-0.003,-0.988,22.42,29.080000000000002,-94.5,0.9997,-0.002,0.0066,0.021,0.0,0.0,-0.011
2025-10-29 18:01:15.749,2.625,0.0,0.0,0.0,-0.013000000000000001,-0.004,-0.988,22.42,29.080000000000002,-94.5,0.9997,-0.002,0.0066,0.021,0.0,0.0,-0.011
2025-10-29 18:01:15.749,2.63,0.001,0.0,0.0,-0.012,-0.005,-0.99,22.47,29.66,-94.41,0.9997,-0.002,0.0066,0.021,0.0,0.001,-0.009000000000000001
2025-10-29 18:01:15.750,2.635,0.0,0.0,0.0,-0.013000000000000001,-0.003,-0.99,22.47,29.66,-94.41,0.9997,-0.002,0.0066,0.021,0.0,0.0,-0.009000000000000001
2025-10-29 18:01:15.750,2.64,0.0,-0.002,0.0,-0.012,-0.005,-0.991,22.47,29.66,-94.41,0.9997,-0.002,0.0066,0.021,-0.001,0.0,-0.008
2025-10-29 18:01:15.750,2.645,0.001,0.0,0.0,-0.011,-0.004,-0.99,22.71,29.34,-94.62,0.9997,-0.002,0.006500000000000001,0.021,-0.001,0.0,-0.009000000000000001
2025-10-29 18:01:15.750,2.65,0.001,-0.002,0.001,-0.012,-0.004,-0.99,22.71,29.34,-94.62,0.9997,-0.002,0.006500000000000001,0.021,0.0,0.0,-0.009000000000000001
2025-10-29 18:01:15.750,2.655,0.001,0.0,-0.001,-0.013000000000000001,-0.005,-0.99,22.36,29.11,-94.56,0.9997,-0.0021000000000000003,0.006500000000000001,0.021,0.0,0.0,-0.009000000000000001
2025-10-29 18:01:15.751,2.66,0.0,-0.002,-0.001,-0.013000000000000001,-0.004,-0.99,22.36,29.11,-94.56,0.9997,-0.002,0.0066,0.021,0.0,0.0,-0.009000000000000001
2025-10-29 18:01:15.751,2.665,-0.001,-0.001,0.001,-0.014,-0.003,-0.99,22.42,28.82,-94.47,0.9997,-0.002,0.0066,0.021,0.001,0.0,-0.009000000000000001
2025-10-29 18:01:15.751,2.67,0.0,-0.002,0.0,-0.013000000000000001,-0.004,-0.991,22.42,28.82,-94.47,0.9997,-0.002,0.0066,0.021,0.0,0.0,-0.008
2025-10-29 18:01:15.752,2.675,0.0,0.0,0.0,-0.012,-0.004,-0.99,22.42,28.82,-94.47,0.9997,-0.002,0.0066,0.021,0.0,0.0,-0.009000000000000001
2025-10-29 18:01:15.752,2.68,0.0,0.001,0.0,-0.012,-0.006,-0.99,22.01,28.93,-94.06,0.9997,-0.0021000000000000003,0.0066,0.021,0.0,0.001,-0.009000000000000001
2025-10-29 18:01:15.752,2.685,0.001,0.002,0.002,-0.012,-0.003,-0.988,22.01,28.93,-94.06,0.9997,-0.0021000000000000003,0.0066,0.021,0.0,0.0,-0.011
2025-10-29 18:01:15.753,2.69,-0.001,0.002,0.0,-0.012,-0.005,-0.989,22.42,28.93,-94.85000000000001,0.9997,-0.0021000000000000003,0.0066,0.021,0.0,0.0,-0.009000000000000001
2025-10-29 18:01:15.753,2.695,-0.001,-0.001,0.002,-0.012,-0.003,-0.987,22.42,28.93,-94.85000000000001,0.9997,-0.0021000000000000003,0.006500000000000001,0.021,-0.001,0.0,-0.012
2025-10-29 18:01:15.754,2.7,0.0,0.001,0.0,-0.012,-0.004,-0.989,22.42,28.93,-94.85000000000001,0.9997,-0.0021000000000000003,0.006500000000000001,0.021,0.0,0.0,-0.009000000000000001
2025-10-29 18:01:15.754,2.705,-0.001,0.0,0.0,-0.012,-0.003,-0.991,22.27,29.400000000000002,-94.73,0.9997,-0.002,0.006500000000000001,0.021,0.0,-0.001,-0.008
2025-10-29 18:01:15.754,2.71,0.0,0.001,0.001,-0.012,-0.004,-0.99,22.27,29.400000000000002,-94.73,0.9997,-0.002,0.006500000000000001,0.021,0.0,0.0,-0.009000000000000001
2025-10-29 18:01:15.755,2.715,0.0,0.0,0.0,-0.013000000000000001,-0.004,-0.988,22.06,28.900000000000002,-94.24,0.9997,-0.002,0.006500000000000001,0.021,0.0,0.0,-0.011
2025-10-29 18:01:15.755,2.72,0.0,0.001,-0.002,-0.013000000000000001,-0.002,-0.988,22.06,28.900000000000002,-94.24,0.9997,-0.002,0.006500000000000001,0.021,0.0,-0.001,-0.011
2025-10-29 18:01:15.755,2.725,0.0,0.002,0.0,-0.012,-0.004,-0.987,22.62,29.02,-93.48,0.9997,-0.002,0.006500000000000001,0.021,0.0,0.0,-0.012
2025-10-29 18:01:15.756,2.73,0.0,0.0,0.0,-0.013000000000000001,-0.004,-0.986,22.62,29.02,-93.48,0.9997,-0.002,0.0066,0.021,0.0,0.0,-0.012
2025-10-29 18:01:15.756,2.735,-0.001,0.0,0.0,-0.013000000000000001,-0.004,-0.988,22.62,29.02,-93.48,0.9997,-0.002,0.0066,0.021,0.0,0.0,-0.011
2025-10-29 18:01:15.756,2.74,0.0,0.005,0.0,-0.013000000000000001,-0.006,-0.99,22.47,29.26,-94.38,0.9997,-0.0021000000000000003,0.0066,0.021,0.0,0.001,-0.009000000000000001
2025-10-29 18:01:15.757,2.745,0.001,0.0,0.0,-0.011,-0.004,-0.992,22.47,29.26,-94.38,0.9997,-0.0021000000000000003,0.006500000000000001,0.0211,-0.001,0.0,-0.007
2025-10-29 18:01:15.757,2.75,0.0,0.001,0.0,-0.012,-0.005,-0.992,22.59,28.96,-93.65,0.9997,-0.0021000000000000003,0.006500000000000001,0.0211,0.0,0.001,-0.007
2025-10-29 18:01:15.757,2.755,0.0,0.0,-0.001,-0.013000000000000001,-0.004,-0.991,22.59,28.96,-93.65,0.9997,-0.0021000000000000003,0.006500000000000001,0.0211,0.0,0.0,-0.008
2025-10-29 18:01:15.758,2.76,-0.001,0.002,0.0,-0.012,-0.005,-0.99,22.59,28.96,-93.65,0.9997,-0.0022,0.006500000000000001,0.0211,0.0,0.001,-0.009000000000000001
2025-10-29 18:01:15.758,2.765,0.0,0.001,0.0,-0.013000000000000001,-0.004,-0.989,22.330000000000002,29.11,-93.97,0.9997,-0.0022,0.006500000000000001,0.0211,0.0,0.0,-0.01
2025-10-29 18:01:15.758,2.77,0.0,0.0,0.0,-0.013000000000000001,-0.003,-0.989,22.330000000000002,29.11,-93.97,0.9997,-0.0021000000000000003,0.006500000000000001,0.0211,0.0,0.0,-0.01
2025-10-29 18:01:15.759,2.775,-0.001,0.0,0.0,-0.012,-0.005,-0.988,22.42,29.080000000000002,-94.35000000000001,0.9997,-0.0022,0.006500000000000001,0.0211,0.0,0.0,-0.011
2025-10-29 18:01:15.759,2.78,-0.001,0.0,0.0,-0.013000000000000001,-0.002,-0.988,22.42,29.080000000000002,-94.35000000000001,0.9997,-0.0021000000000000003,0.006500000000000001,0.0211,0.0,-0.001,-0.011
2025-10-29 18:01:15.759,2.785,0.0,0.002,0.0,-0.012,-0.005,-0.989,22.650000000000002,29.310000000000002,-93.77,0.9997,-0.0021000000000000003,0.006500000000000001,0.0211,0.0,0.0,-0.01
2025-10-29 18:01:15.760,2.79,0.0,0.0,0.0,-0.013000000000000001,-0.004,-0.991,22.650000000000002,29.310000000000002,-93.77,0.9997,-0.0021000000000000003,0.006500000000000001,0.021,0.0,0.0,-0.008
2025-10-29 18:01:15.760,2.795,-0.001,0.001,0.0,-0.013000000000000001,-0.005,-0.991,22.650000000000002,29.310000000000002,-93.77,0.9997,-0.0021000000000000003,0.0066,0.021,0.0,0.0,-0.008
2025-10-29 18:01:15.761,2.8,0.0,-0.001,0.0,-0.012,-0.004,-0.99,22.27,29.61,-94.65,0.9997,-0.0021000000000000003,0.006500000000000001,0.021,0.0,0.0,-0.009000000000000001
2025-10-29 18:01:15.761,2.82,-0.002,0.0,0.0,-0.014,-0.004,-0.987,22.77,29.55,-94.73,0.9997,-0.0022,0.0066,0.021,0.001,0.0,-0.012
2025-10-29 18:01:15.761,2.825,0.0,0.0,0.0,-0.012,-0.003,-0.988,22.77,29.310000000000002,-94.73,0.9997,-0.0021000000000000003,0.0066,0.021,0.0,-0.001,-0.011
2025-10-29 18:01:15.762,2.83,0.0,0.0,0.0,-0.012,-0.005,-0.986,22.77,29.310000000000002,-94.73,0.9997,-0.0022,0.006500000000000001,0.021,0.0,0.001,-0.013000000000000001
2025-10-29 18:01:15.762,2.835,0.0,0.0,0.0,-0.013000000000000001,-0.004,-0.985,22.47,29.28,-94.85000000000001,0.9997,-0.0022,0.0066,0.021,0.0,0.0,-0.014
2025-10-29 18:01:15.763,2.84,0.0,-0.002,-0.001,-0.013000000000000001,-0.004,-0.986,22.47,29.28,-94.85000000000001,0.9997,-0.0022,0.0066,0.021,0.0,0.0,-0.012
2025-10-29 18:01:15.763,2.845,0.001,0.003,-0.001,-0.012,-0.004,-0.988,23.03,28.67,-94.35000000000001,0.9997,-0.0022,0.0066,0.021,0.0,0.0,-0.011
2025-10-29 18:01:15.763,2.85,0.0,0.0,0.0,-0.013000000000000001,-0.003,-0.991,23.03,28.67,-94.35000000000001,0.9997,-0.0021000000000000003,0.0066,0.021,0.0,0.0,-0.008
2025-10-29 18:01:15.764,2.855,0.0,0.0,0.0,-0.014,-0.004,-0.99,23.03,28.67,-94.35000000000001,0.9997,-0.0021000000000000003,0.0067,0.021,0.0,0.0,-0.009000000000000001
2025-10-29 18:01:15.764,2.86,0.0,0.002,-0.001,-0.012,-0.003,-0.989,22.240000000000002,29.72,-94.27,0.9997,-0.0021000000000000003,0.0066,0.021,0.0,0.0,-0.01
2025-10-29 18:01:15.764,2.865,0.001,0.002,0.001,-0.013000000000000001,-0.004,-0.989,22.240000000000002,29.72,-94.27,0.9997,-0.0021000000000000003,0.0066,0.021,0.0,0.0,-0.01
2025-10-29 18:01:15.765,2.87,0.001,0.001,-0.001,-0.013000000000000001,-0.004,-0.99,23.26,29.46,-95.05,0.9997,-0.0021000000000000003,0.0067,0.021,0.0,0.0,-0.009000000000000001
2025-10-29 18:01:15.765,2.875,0.003,0.0,0.0,-0.011,-0.004,-0.989,23.26,29.46,-95.05,0.9997,-0.0021000000000000003,0.0066,0.021,-0.001,0.0,-0.01
2025-10-29 18:01:15.765,2.88,0.001,0.0,0.0,-0.011,-0.003,-0.99,22.44,29.400000000000002,-95.05,0.9997,-0.0021000000000000003,0.006500000000000001,0.021,-0.001,0.0,-0.009000000000000001
2025-10-29 18:01:15.766,2.885,0.0,0.0,0.0,-0.013000000000000001,-0.004,-0.991,22.44,29.400000000000002,-95.05,0.9997,-0.0021000000000000003,0.006500000000000001,0.021,0.0,0.0,-0.008
2025-10-29 18:01:15.766,2.89,-0.001,-0.001,0.0,-0.012,-0.003,-0.994,22.44,29.400000000000002,-95.05,0.9997,-0.002,0.006500000000000001,0.021,0.0,-0.001,-0.005
2025-10-29 18:01:15.766,2.895,0.0,0.0,0.0,-0.014,-0.004,-0.992,22.62,28.82,-95.32000000000001,0.9997,-0.002,0.0066,0.021,0.0,0.0,-0.007
2025-10-29 18:01:15.767,2.9,-0.002,0.0,0.0,-0.014,-0.004,-0.992,22.62,28.82,-95.32000000000001,0.9997,-0.002,0.0066,0.021,0.0,0.0,-0.007
2025-10-29 18:01:15.767,2.905,-0.001,-0.001,0.0,-0.013000000000000001,-0.005,-0.988,22.44,29.55,-94.91,0.9997,-0.0021000000000000003,0.0067,0.021,0.0,0.0,-0.011
2025-10-29 18:01:15.767,2.91,-0.002,0.0,0.0,-0.012,-0.003,-0.988,22.44,29.55,-94.91,0.9997,-0.002,0.0067,0.021,0.0,0.0,-0.011
2025-10-29 18:01:15.768,2.915,0.0,-0.001,0.0,-0.013000000000000001,-0.004,-0.989,22.44,29.55,-94.91,0.9997,-0.002,0.0067,0.021,0.0,0.0,-0.01
2025-10-29 18:01:15.768,2.92,-0.001,0.002,0.0,-0.012,-0.003,-0.987,22.18,29.46,-95.11,0.9997,-0.002,0.0066,0.021,0.0,0.0,-0.012
2025-10-29 18:01:15.768,2.925,-0.001,0.0,0.0,-0.011,-0.004,-0.989,22.18,29.46,-95.11,0.9997,-0.002,0.0066,0.021,-0.001,0.0,-0.01
2025-10-29 18:01:15.769,2.93,-0.001,-0.002,0.0,-0.011,-0.004,-0.989,22.8,29.52,-94.38,0.9997,-0.002,0.006500000000000001,0.021,-0.001,0.0,-0.01
2025-10-29 18:01:15.769,2.935,0.0,0.0,-0.001,-0.012,-0.003,-0.991,22.8,29.52,-94.38,0.9997,-0.002,0.006500000000000001,0.021,0.0,0.0,-0.008
2025-10-29 18:01:15.769,3.005,-0.001,0.0,0.0,-0.013000000000000001,-0.004,-0.988,22.71,29.14,-95.2,0.9997,-0.002,0.0067,0.0211,0.0,0.0,-0.011
2025-10-29 18:01:15.770,3.01,-0.001,0.0,0.0,-0.013000000000000001,-0.004,-0.988,22.71,29.14,-95.2,0.9997,-0.002,0.0067,0.0211,0.0,0.0,-0.011
2025-10-29 18:01:15.770,3.015,-0.002,0.0,0.0,-0.013000000000000001,-0.005,-0.989,22.01,29.55,-94.7,0.9997,-0.0021000000000000003,0.0067,0.0211,0.0,0.001,-0.01
2025-10-29 18:01:15.770,3.02,0.0,0.0,0.0,-0.013000000000000001,-0.003,-0.987,22.01,29.55,-94.7,0.9997,-0.002,0.0067,0.0211,0.0,-0.001,-0.012
2025-10-29 18:01:15.771,3.025,-0.001,-0.001,0.0,-0.012,-0.004,-0.988,22.97,29.17,-94.41,0.9997,-0.0021000000000000003,0.0067,0.0211,-0.001,0.0,-0.011
2025-10-29 18:01:15.771,3.03,0.0,0.0,0.0,-0.011,-0.005,-0.987,22.97,29.17,-94.41,0.9997,-0.0021000000000000003,0.0066,0.0211,-0.001,0.0,-0.012
2025-10-29 18:01:15.771,3.035,-0.001,0.0,0.001,-0.012,-0.003,-0.985,22.97,29.17,-94.41,0.9997,-0.0021000000000000003,0.0066,0.0211,0.0,0.0,-0.013000000000000001
2025-10-29 18:01:15.772,3.04,0.0,0.001,0.0,-0.012,-0.003,-0.986,22.21,29.34,-94.5,0.9997,-0.002,0.006500000000000001,0.0211,0.0,0.0,-0.013000000000000001
2025-10-29 18:01:15.772,3.045,0.0,0.0,0.0,-0.013000000000000001,-0.004,-0.987,22.21,29.34,-94.5,0.9997,-0.002,0.0066,0.0211,0.0,0.0,-0.012
2025-10-29 18:01:15.772,3.05,0.0,0.0,0.0,-0.013000000000000001,-0.005,-0.989,22.39,29.43,-95.14,0.9997,-0.0021000000000000003,0.0066,0.0211,0.0,0.0,-0.01
2025-10-29 18:01:15.773,3.055,0.0,-0.003,0.0,-0.012,-0.004,-0.989,22.39,29.43,-95.14,0.9997,-0.002,0.0066,0.0211,0.0,0.0,-0.01
2025-10-29 18:01:15.773,3.06,0.0,0.0,0.0,-0.011,-0.004,-0.989,22.150000000000002,29.75,-94.44,0.9997,-0.0021000000000000003,0.006500000000000001,0.0211,-0.001,0.0,-0.01
2025-10-29 18:01:15.773,3.065,0.001,0.0,0.0,-0.012,-0.004,-0.989,22.150000000000002,29.75,-94.44,0.9997,-0.002,0.006500000000000001,0.0211,0.0,0.0,-0.01
2025-10-29 18:01:15.774,3.07,0.0,0.0,0.0,-0.013000000000000001,-0.005,-0.99,22.150000000000002,29.75,-94.44,0.9997,-0.0021000000000000003,0.006500000000000001,0.0211,0.0,0.0,-0.009000000000000001
2025-10-29 18:01:15.774,3.075,0.0,0.0,-0.001,-0.013000000000000001,-0.003,-0.99,22.740000000000002,29.26,-94.79,0.9997,-0.002,0.006500000000000001,0.0211,0.0,0.0,-0.009000000000000001
2025-10-29 18:01:15.774,3.08,0.002,-0.002,0.0,-0.013000000000000001,-0.004,-0.99,22.740000000000002,29.26,-94.79,0.9997,-0.0021000000000000003,0.006500000000000001,0.0211,0.0,0.0,-0.009000000000000001
2025-10-29 18:01:15.775,3.085,0.001,-0.002,0.0,-0.013000000000000001,-0.005,-0.99,22.94,29.2,-94.94,0.9997,-0.0021000000000000003,0.0066,0.0211,0.0,0.0,-0.008
2025-10-29 18:01:15.775,3.09,0.002,0.0,0.0,-0.013000000000000001,-0.004,-0.99,22.94,29.2,-94.94,0.9997,-0.0021000000000000003,0.0066,0.0211,0.0,0.0,-0.009000000000000001
2025-10-29 18:01:15.776,3.095,0.0,0.0,-0.001,-0.013000000000000001,-0.004,-0.99,22.94,29.2,-94.94,0.9997,-0.0021000000000000003,0.0066,0.0211,0.0,0.0,-0.009000000000000001
2025-10-29 18:01:15.776,3.1,0.0,0.0,0.0,-0.012,-0.003,-0.987,22.39,29.080000000000002,-94.85000000000001,0.9997,-0.0021000000000000003,0.0066,0.0211,0.0,0.0,-0.012
2025-10-29 18:01:15.776,3.105,-0.001,0.0,0.0,-0.012,-0.003,-0.988,22.39,29.080000000000002,-94.85000000000001,0.9997,-0.002,0.0066,0.0211,0.0,0.0,-0.011
2025-10-29 18:01:15.777,3.11,0.0,0.0,0.001,-0.013000000000000001,-0.004,-0.988,22.650000000000002,28.67,-94.88,0.9997,-0.002,0.0066,0.0211,0.0,0.0,-0.011
2025-10-29 18:01:15.777,3.115,0.001,0.001,0.0,-0.012,-0.004,-0.988,22.650000000000002,28.67,-94.88,0.9997,-0.002,0.006500000000000001,0.0211,0.0,0.0,-0.011
2025-10-29 18:01:15.777,3.16,-0.001,0.0,0.0,-0.012,-0.005,-0.99,22.3,29.23,-94.59,0.9997,-0.0021000000000000003,0.006500000000000001,0.021,0.0,0.0,-0.009000000000000001
2025-10-29 18:01:15.778,3.165,0.0,-0.001,-0.002,-0.012,-0.004,-0.992,22.3,29.23,-94.59,0.9997,-0.0021000000000000003,0.006500000000000001,0.021,0.0,0.0,-0.007
2025-10-29 18:01:15.778,3.17,0.0,0.002,0.002,-0.012,-0.004,-0.991,22.82,28.96,-94.73,0.9997,-0.0021000000000000003,0.006500000000000001,0.021,0.0,0.0,-0.008
2025-10-29 18:01:15.778,3.175,-0.002,-0.003,0.0,-0.013000000000000001,-0.003,-0.99,22.82,28.96,-94.73,0.9997,-0.0021000000000000003,0.006500000000000001,0.021,0.0,0.0,-0.009000000000000001
2025-10-29 18:01:15.779,3.18,0.0,0.002,0.0,-0.013000000000000001,-0.004,-0.99,22.82,29.43,-94.88,0.9997,-0.0021000000000000003,0.006500000000000001,0.021,0.0,0.0,-0.009000000000000001
2025-10-29 18:01:15.779,3.185,-0.002,0.0,-0.001,-0.013000000000000001,-0.003,-0.988,22.82,29.43,-94.88,0.9997,-0.002,0.006500000000000001,0.0211,0.0,0.0,-0.011
2025-10-29 18:01:15.779,3.19,-0.001,-0.001,0.0,-0.014,-0.003,-0.987,22.82,29.43,-94.88,0.9997,-0.002,0.0066,0.0211,0.001,0.0,-0.011
2025-10-29 18:01:15.780,3.195,-0.001,-0.002,0.0,-0.013000000000000001,-0.004,-0.987,22.8,29.46,-94.41,0.9997,-0.002,0.0066,0.0211,0.0,0.0,-0.012
2025-10-29 18:01:15.780,3.2,0.0,0.0,0.0,-0.013000000000000001,-0.005,-0.986,22.8,29.46,-94.41,0.9997,-0.002,0.0066,0.0211,0.0,0.001,-0.013000000000000001
2025-10-29 18:01:15.781,3.205,-0.001,0.0,0.0,-0.013000000000000001,-0.003,-0.987,22.650000000000002,29.080000000000002,-94.38,0.9997,-0.002,0.0067,0.0211,0.0,0.0,-0.012
2025-10-29 18:01:15.781,3.21,0.001,0.0,0.0,-0.012,-0.004,-0.986,22.650000000000002,29.080000000000002,-94.38,0.9997,-0.002,0.0066,0.0211,-0.001,0.0,-0.013000000000000001
2025-10-29 18:01:15.781,3.215,0.001,0.002,0.0,-0.012,-0.004,-0.988,22.650000000000002,29.080000000000002,-94.38,0.9997,-0.002,0.0066,0.0211,0.0,0.0,-0.011
2025-10-29 18:01:15.782,3.22,0.0,0.0,0.0,-0.013000000000000001,-0.002,-0.987,22.56,29.28,-94.56,0.9997,-0.0019,0.0066,0.0211,0.0,-0.001,-0.012
2025-10-29 18:01:15.782,3.225,0.001,0.001,0.0,-0.012,-0.005,-0.989,22.56,29.28,-94.56,0.9997,-0.002,0.0066,0.0211,0.0,0.0,-0.01
2025-10-29 18:01:15.782,3.23,0.0,0.002,0.0,-0.014,-0.004,-0.989,22.39,28.64,-94.06,0.9997,-0.002,0.0066,0.0211,0.001,0.0,-0.01
2025-10-29 18:01:15.783,3.235,0.0,-0.002,0.0,-0.012,-0.003,-0.99,22.39,28.64,-94.06,0.9997,-0.002,0.0066,0.0211,-0.001,0.0,-0.009000000000000001
2025-10-29 18:01:15.783,3.24,0.001,-0.002,0.0,-0.012,-0.004,-0.992,22.53,28.64,-94.44,0.9997,-0.002,0.0066,0.0211,0.0,0.0,-0.007
2025-10-29 18:01:15.784,3.245,0.0,0.0,0.0,-0.012,-0.004,-0.992,22.53,28.64,-94.44,0.9997,-0.002,0.006500000000000001,0.021,0.0,0.0,-0.007
2025-10-29 18:01:15.784,3.25,0.0,0.001,0.0,-0.013000000000000001,-0.005,-0.993,22.53,28.64,-94.44,0.9997,-0.002,0.006500000000000001,0.021,0.0,0.0,-0.006
2025-10-29 18:01:15.784,3.255,0.0,0.0,0.001,-0.013000000000000001,-0.004,-0.992,22.3,28.93,-94.53,0.9997,-0.002,0.0066,0.021,0.0,0.0,-0.007
2025-10-29 18:01:15.785,3.26,-0.001,0.0,0.0,-0.013000000000000001,-0.005,-0.993,22.3,28.93,-94.53,0.9997,-0.002,0.0066,0.021,0.0,0.0,-0.006
2025-10-29 18:01:15.785,3.265,0.0,0.0,0.002,-0.013000000000000001,-0.005,-0.99,22.56,28.41,-94.73,0.9997,-0.0021000000000000003,0.0066,0.021,0.0,0.0,-0.009000000000000001
2025-10-29 18:01:15.785,3.27,-0.001,0.0,0.001,-0.014,-0.006,-0.99,22.56,28.41,-94.73,0.9997,-0.0021000000000000003,0.0067,0.021,0.001,0.001,-0.009000000000000001
2025-10-29 18:01:15.786,3.275,-0.002,-0.001,0.0,-0.012,-0.003,-0.988,22.56,28.41,-94.73,0.9997,-0.0021000000000000003,0.0067,0.021,0.0,0.0,-0.011
2025-10-29 18:01:15.786,3.3,0.0,0.0,0.0,-0.012,-0.003,-0.987,22.59,29.37,-94.35000000000001,0.9997,-0.002,0.006500000000000001,0.0211,0.0,-0.001,-0.012
2025-10-29 18:01:15.786,3.305,-0.001,0.0,0.0,-0.013000000000000001,-0.002,-0.988,22.59,29.37,-94.35000000000001,0.9997,-0.0019,0.0066,0.0211,0.0,-0.001,-0.011
2025-10-29 18:01:15.787,3.31,-0.001,-0.003,0.002,-0.012,-0.004,-0.989,22.59,29.37,-94.35000000000001,0.9997,-0.0019,0.006500000000000001,0.021,0.0,0.0,-0.01
2025-10-29 18:01:15.787,3.315,0.001,0.0,0.0,-0.013000000000000001,-0.004,-0.988,22.47,28.88,-95.05,0.9997,-0.0019,0.006500000000000001,0.0211,0.0,0.0,-0.011
2025-10-29 18:01:15.788,3.32,0.002,0.0,0.001,-0.014,-0.003,-0.99,22.47,28.88,-95.05,0.9997,-0.0019,0.0066,0.0211,0.001,0.0,-0.009000000000000001
2025-10-29 18:01:15.788,3.325,0.001,0.001,0.0,-0.014,-0.004,-0.991,22.42,28.64,-94.12,0.9997,-0.0019,0.0067,0.0211,0.001,0.0,-0.008
2025-10-29 18:01:15.788,3.33,0.001,-0.002,0.0,-0.012,-0.004,-0.991,22.42,28.64,-94.12,0.9997,-0.002,0.0067,0.0211,0.0,0.0,-0.008
2025-10-29 18:01:15.789,3.335,-0.001,0.001,0.0,-0.013000000000000001,-0.005,-0.993,22.47,28.64,-94.18,0.9997,-0.002,0.0067,0.0211,0.0,0.001,-0.006
2025-10-29 18:01:15.789,3.34,0.0,0.0,0.0,-0.013000000000000001,-0.005,-0.989,22.47,29.26,-94.18,0.9997,-0.0021000000000000003,0.0067,0.0211,0.0,0.001,-0.01
2025-10-29 18:01:15.789,3.345,0.0,0.0,0.0,-0.013000000000000001,-0.004,-0.989,22.47,29.26,-94.18,0.9997,-0.0021000000000000003,0.0067,0.0211,0.0,0.0,-0.01
2025-10-29 18:01:15.790,3.35,0.0,0.0,0.0,-0.011,-0.004,-0.989,22.47,28.55,-93.91,0.9997,-0.0021000000000000003,0.0066,0.0211,-0.001,0.0,-0.009000000000000001
2025-10-29 18:01:15.790,3.355,-0.001,0.0,0.0,-0.011,-0.005,-0.989,22.47,28.55,-93.91,0.9997,-0.0021000000000000003,0.0066,0.0212,-0.001,0.0,-0.01
2025-10-29 18:01:15.790,3.36,-0.002,0.0,-0.002,-0.012,-0.004,-0.989,22.36,28.88,-94.59,0.9997,-0.0021000000000000003,0.0066,0.0212,0.0,0.0,-0.01
2025-10-29 18:01:15.791,3.365,0.0,-0.002,0.0,-0.013000000000000001,-0.003,-0.989,22.36,28.88,-94.59,0.9997,-0.0021000000000000003,0.0066,0.0212,0.0,0.0,-0.01
2025-10-29 18:01:15.791,3.37,0.0,0.0,0.0,-0.013000000000000001,-0.004,-0.988,22.36,28.88,-94.59,0.9997,-0.0021000000000000003,0.0066,0.0212,0.0,0.0,-0.011
2025-10-29 18:01:15.791,3.375,0.0,0.003,0.0,-0.011,-0.004,-0.988,23.150000000000002,28.900000000000002,-94.5,0.9997,-0.0021000000000000003,0.006500000000000001,0.0212,-0.001,0.0,-0.011
2025-10-29 18:01:15.792,3.38,0.0,0.0,0.0,-0.012,-0.004,-0.99,23.150000000000002,28.900000000000002,-94.5,0.9997,-0.0021000000000000003,0.006500000000000001,0.0212,0.0,0.0,-0.009000000000000001
2025-10-29 18:01:15.792,3.385,0.0,0.0,-0.002,-0.014,-0.004,-0.99,22.59,29.26,-93.65,0.9997,-0.0021000000000000003,0.0066,0.0212,0.001,0.0,-0.009000000000000001
2025-10-29 18:01:15.793,3.39,-0.001,0.0,0.0,-0.013000000000000001,-0.004,-0.99,22.59,29.26,-93.65,0.9997,-0.0021000000000000003,0.0066,0.0212,0.0,0.0,-0.008
2025-10-29 18:01:15.793,3.395,0.0,0.0,0.0,-0.014,-0.004,-0.989,22.97,29.11,-94.85000000000001,0.9997,-0.0021000000000000003,0.0066,0.0211,0.0,0.0,-0.01
2025-10-29 18:01:15.793,3.4,0.001,-0.003,0.0,-0.012,-0.003,-0.989,22.97,29.11,-94.85000000000001,0.9997,-0.0021000000000000003,0.0066,0.0212,0.0,0.0,-0.01
2025-10-29 18:01:15.794,3.405,0.0,-0.001,0.0,-0.014,-0.005,-0.99,22.97,29.11,-94.85000000000001,0.9997,-0.0021000000000000003,0.0067,0.0212,0.0,0.0,-0.009000000000000001
2025-10-29 18:01:15.794,3.41,0.0,-0.002,0.0,-0.012,-0.004,-0.988,22.47,29.43,-94.06,0.9997,-0.0021000000000000003,0.0067,0.0212,0.0,0.0,-0.011
2025-10-29 18:01:15.794,3.415,0.0,0.0,0.0,-0.012,-0.003,-0.989,22.47,29.43,-94.06,0.9997,-0.002,0.0067,0.0212,0.0,0.0,-0.01
2025-10-29 18:01:15.795,3.45,0.0,0.0,0.001,-0.013000000000000001,-0.003,-0.992,22.740000000000002,29.400000000000002,-94.82000000000001,0.9997,-0.0021000000000000003,0.0066,0.0212,0.0,0.0,-0.007
2025-10-29 18:01:15.795,3.455,0.001,0.0,0.0,-0.012,-0.004,-0.992,22.47,28.76,-94.5,0.9997,-0.002,0.0066,0.0212,0.0,0.0,-0.007
2025-10-29 18:01:15.795,3.46,0.0,-0.002,0.0,-0.013000000000000001,-0.003,-0.991,22.47,28.76,-94.5,0.9997,-0.002,0.0066,0.0212,0.0,0.0,-0.008
2025-10-29 18:01:15.796,3.465,0.0,0.002,0.0,-0.011,-0.004,-0.989,22.47,28.76,-94.5,0.9997,-0.002,0.006500000000000001,0.0212,-0.001,0.0,-0.01
2025-10-29 18:01:15.797,3.47,0.0,0.0,0.002,-0.012,-0.004,-0.989,22.44,29.11,-94.7,0.9997,-0.002,0.006500000000000001,0.0212,0.0,0.0,-0.01
2025-10-29 18:01:15.797,3.475,0.001,-0.001,0.001,-0.014,-0.005,-0.989,22.44,29.11,-94.7,0.9997,-0.0021000000000000003,0.0066,0.0212,0.001,0.0,-0.01
2025-10-29 18:01:15.797,3.48,0.0,-0.001,0.0,-0.013000000000000001,-0.004,-0.989,22.82,28.64,-93.74,0.9997,-0.0021000000000000003,0.0066,0.0212,0.0,0.0,-0.01
2025-10-29 18:01:15.798,3.485,0.001,-0.002,0.0,-0.013000000000000001,-0.003,-0.989,22.82,28.64,-93.74,0.9997,-0.002,0.0066,0.0212,0.0,-0.001,-0.01
2025-10-29 18:01:15.798,3.49,0.0,0.0,0.0,-0.013000000000000001,-0.003,-0.989,22.82,28.64,-93.74,0.9997,-0.002,0.0067,0.0212,0.0,0.0,-0.01
2025-10-29 18:01:15.798,3.495,0.001,0.001,0.001,-0.013000000000000001,-0.005,-0.988,22.3,29.23,-93.89,0.9997,-0.002,0.0067,0.0212,0.0,0.0,-0.011
2025-10-29 18:01:15.799,3.5,0.0,0.0,0.0,-0.013000000000000001,-0.002,-0.987,22.3,29.23,-93.89,0.9997,-0.0019,0.0067,0.0212,0.0,-0.001,-0.012
2025-10-29 18:01:15.799,3.505,0.0,0.0,0.0,-0.011,-0.004,-0.988,22.82,28.990000000000002,-94.06,0.9997,-0.002,0.0066,0.0211,-0.001,0.0,-0.011
2025-10-29 18:01:15.799,3.51,0.0,0.001,0.0,-0.012,-0.004,-0.987,22.82,28.990000000000002,-94.06,0.9997,-0.0019,0.0066,0.0211,0.0,0.0,-0.012
2025-10-29 18:01:15.800,3.515,0.0,0.003,0.0,-0.013000000000000001,-0.003,-0.989,22.650000000000002,29.490000000000002,-94.18,0.9997,-0.0019,0.0066,0.0211,0.0,0.0,-0.01
2025-10-29 18:01:15.800,3.52,0.0,0.0,0.0,-0.012,-0.004,-0.991,22.650000000000002,29.490000000000002,-94.18,0.9997,-0.0019,0.0066,0.0211,0.0,0.0,-0.008
2025-10-29 18:01:15.800,3.525,0.0,0.002,0.0,-0.013000000000000001,-0.005,-0.99,22.650000000000002,29.490000000000002,-94.18,0.9997,-0.002,0.0066,0.0211,0.0,0.001,-0.009000000000000001
2025-10-29 18:01:15.801,3.53,0.0,0.002,0.0,-0.012,-0.005,-0.989,22.82,29.02,-93.8,0.9997,-0.002,0.0066,0.0211,0.0,0.0,-0.01
2025-10-29 18:01:15.801,3.535,0.0,0.0,0.001,-0.013000000000000001,-0.005,-0.988,22.82,29.02,-93.8,0.9997,-0.0021000000000000003,0.0066,0.0211,0.0,0.0,-0.011
2025-10-29 18:01:15.802,3.54,0.0,0.0,0.0,-0.013000000000000001,-0.003,-0.989,22.42,29.46,-93.97,0.9997,-0.002,0.0066,0.0211,0.0,-0.001,-0.01
2025-10-29 18:01:15.802,3.545,0.001,0.001,-0.001,-0.013000000000000001,-0.002,-0.989,22.42,29.46,-93.97,0.9997,-0.0019,0.0066,0.0211,0.0,-0.002,-0.01
2025-10-29 18:01:15.802,3.55,0.001,-0.001,0.0,-0.013000000000000001,-0.003,-0.991,22.42,29.46,-93.97,0.9997,-0.0019,0.0066,0.0211,0.0,0.0,-0.008
2025-10-29 18:01:15.803,3.555,-0.001,-0.001,0.0,-0.013000000000000001,-0.004,-0.992,22.53,29.28,-94.06,0.9997,-0.0019,0.0066,0.0211,0.0,0.0,-0.007
2025-10-29 18:01:15.803,3.56,-0.001,0.0,0.001,-0.013000000000000001,-0.005,-0.992,22.53,29.28,-94.06,0.9997,-0.002,0.0066,0.0211,0.0,0.001,-0.007
2025-10-29 18:01:15.804,3.565,0.0,-0.001,0.0,-0.012,-0.004,-0.992,22.59,29.490000000000002,-94.38,0.9997,-0.002,0.0066,0.0211,0.0,0.0,-0.007
2025-10-29 18:01:15.804,3.63,0.0,-0.001,0.0,-0.012,-0.004,-0.99,22.91,29.75,-94.7,0.9997,-0.0021000000000000003,0.0066,0.0211,-0.001,0.0,-0.009000000000000001
2025-10-29 18:01:15.804,3.635,0.0,-0.002,0.0,-0.011,-0.004,-0.99,22.68,29.55,-94.62,0.9997,-0.0021000000000000003,0.006500000000000001,0.0212,-0.001,0.0,-0.009000000000000001
2025-10-29 18:01:15.805,3.64,0.001,0.002,-0.002,-0.013000000000000001,-0.004,-0.989,22.68,29.55,-94.62,0.9997,-0.0021000000000000003,0.006500000000000001,0.0212,0.0,0.0,-0.01
2025-10-29 18:01:15.805,3.645,0.0,0.0,0.0,-0.013000000000000001,-0.005,-0.989,22.68,29.55,-94.62,0.9997,-0.0021000000000000003,0.0066,0.0211,0.0,0.0,-0.01
2025-10-29 18:01:15.806,3.65,0.0,0.002,0.0,-0.013000000000000001,-0.004,-0.988,23.150000000000002,28.76,-94.88,0.9997,-0.0021000000000000003,0.0066,0.0211,0.0,0.0,-0.011
2025-10-29 18:01:15.806,3.655,0.0,0.0,0.0,-0.012,-0.004,-0.988,23.150000000000002,28.76,-94.88,0.9997,-0.0021000000000000003,0.006500000000000001,0.0211,0.0,0.0,-0.011
2025-10-29 18:01:15.806,3.66,0.0,0.001,0.0,-0.012,-0.005,-0.988,22.39,28.67,-94.82000000000001,0.9997,-0.0022,0.006500000000000001,0.0211,0.0,0.0,-0.011
2025-10-29 18:01:15.807,3.665,0.0,0.0,0.0,-0.013000000000000001,-0.005,-0.987,22.39,28.67,-94.82000000000001,0.9997,-0.0022,0.0066,0.0211,0.0,0.0,-0.012
2025-10-29 18:01:15.807,3.67,-0.001,0.0,0.0,-0.013000000000000001,-0.004,-0.988,22.39,28.67,-94.82000000000001,0.9997,-0.0022,0.0066,0.0211,0.0,0.0,-0.011
2025-10-29 18:01:15.807,3.675,-0.001,-0.003,0.0,-0.014,-0.004,-0.989,22.88,28.82,-94.91,0.9997,-0.0022,0.0066,0.0211,0.0,0.0,-0.01
2025-10-29 18:01:15.808,3.68,0.0,0.0,0.0,-0.013000000000000001,-0.003,-0.991,22.88,28.82,-94.91,0.9997,-0.0021000000000000003,0.0067,0.0211,0.0,0.0,-0.008
2025-10-29 18:01:15.808,3.685,-0.002,0.0,0.001,-0.013000000000000001,-0.005,-0.994,22.91,29.11,-94.5,0.9997,-0.0022,0.0067,0.0211,0.0,0.001,-0.005
2025-10-29 18:01:15.808,3.69,-0.002,0.0,0.0,-0.013000000000000001,-0.003,-0.99,22.91,29.11,-94.5,0.9997,-0.0022,0.0067,0.0211,0.0,0.0,-0.008
2025-10-29 18:01:15.809,3.695,-0.001,-0.001,0.001,-0.012,-0.004,-0.99,23.06,28.990000000000002,-94.21000000000001,0.9997,-0.0021000000000000003,0.0066,0.0211,0.0,0.0,-0.009000000000000001
2025-10-29 18:01:15.809,3.7,-0.002,0.003,0.002,-0.012,-0.005,-0.989,23.06,28.990000000000002,-94.21000000000001,0.9997,-0.0022,0.0066,0.0211,0.0,0.0,-0.01
2025-10-29 18:01:15.810,3.705,-0.002,0.001,0.0,-0.012,-0.003,-0.988,23.06,28.990000000000002,-94.21000000000001,0.9997,-0.0021000000000000003,0.0066,0.0211,0.0,-0.001,-0.011
2025-10-29 18:01:15.810,3.71,-0.001,0.0,0.0,-0.012,-0.003,-0.987,22.59,29.11,-94.44,0.9997,-0.0021000000000000003,0.0066,0.0211,0.0,0.0,-0.012
2025-10-29 18:01:15.810,3.715,-0.002,-0.001,0.0,-0.013000000000000001,-0.004,-0.986,22.59,29.11,-94.44,0.9997,-0.0021000000000000003,0.0066,0.0211,0.0,0.0,-0.013000000000000001
2025-10-29 18:01:15.811,3.72,-0.001,0.003,0.0,-0.013000000000000001,-0.005,-0.987,22.8,29.080000000000002,-95.11,0.9997,-0.0021000000000000003,0.0066,0.0211,0.0,0.0,-0.012
2025-10-29 18:01:15.811,3.725,0.0,0.001,0.0,-0.013000000000000001,-0.004,-0.987,22.8,29.080000000000002,-95.11,0.9997,-0.0021000000000000003,0.0066,0.0211,0.0,0.0,-0.012
2025-10-29 18:01:15.811,3.73,0.0,0.0,0.0,-0.013000000000000001,-0.004,-0.987,22.8,29.080000000000002,-95.11,0.9997,-0.0021000000000000003,0.0066,0.0211,0.0,0.0,-0.012
2025-10-29 18:01:15.812,3.735,-0.001,0.003,-0.001,-0.014,-0.004,-0.986,22.5,29.11,-94.85000000000001,0.9997,-0.0021000000000000003,0.0067,0.0211,0.0,0.0,-0.013000000000000001
2025-10-29 18:01:15.812,3.74,0.0,0.0,0.0,-0.012,-0.003,-0.987,22.5,29.11,-94.85000000000001,0.9997,-0.0021000000000000003,0.0066,0.0211,0.0,0.0,-0.012
2025-10-29 18:01:15.813,3.795,0.0,0.0,-0.001,-0.012,-0.004,-0.984,22.77,29.580000000000002,-94.53,0.9997,-0.0021000000000000003,0.0067,0.0211,0.0,0.0,-0.015
2025-10-29 18:01:15.813,3.8,0.001,0.001,0.0,-0.013000000000000001,-0.003,-0.984,22.77,29.580000000000002,-94.53,0.9997,-0.002,0.0067,0.0211,0.0,-0.001,-0.015
2025-10-29 18:01:15.813,3.805,0.002,0.003,0.001,-0.013000000000000001,-0.004,-0.985,22.5,29.61,-95.17,0.9997,-0.002,0.0067,0.0211,0.0,0.0,-0.014
2025-10-29 18:01:15.814,3.81,0.005,0.003,0.0,-0.013000000000000001,-0.002,-0.99,22.5,29.61,-95.17,0.9997,-0.0019,0.0067,0.021,0.0,-0.001,-0.009000000000000001
2025-10-29 18:01:15.814,3.815,0.002,0.0,0.0,-0.012,-0.004,-0.993,23.0,28.82,-95.43,0.9997,-0.002,0.0066,0.021,-0.001,0.0,-0.006
2025-10-29 18:01:15.814,3.82,0.002,0.0,0.0,-0.011,-0.004,-0.992,23.0,28.82,-95.43,0.9997,-0.002,0.0066,0.021,-0.001,0.0,-0.006
2025-10-29 18:01:15.815,3.825,-0.001,0.0,0.001,-0.013000000000000001,-0.005,-0.996,23.0,28.82,-95.43,0.9997,-0.002,0.0066,0.021,0.0,0.0,-0.002
2025-10-29 18:01:15.815,3.83,0.0,0.0,0.0,-0.012,-0.005,-0.995,22.59,29.14,-94.47,0.9997,-0.0021000000000000003,0.0066,0.021,0.0,0.001,-0.004
2025-10-29 18:01:15.816,3.835,-0.002,-0.001,0.0,-0.012,-0.005,-0.992,22.59,29.14,-94.47,0.9997,-0.0021000000000000003,0.0066,0.021,0.0,0.001,-0.007
2025-10-29 18:01:15.816,3.84,-0.002,0.0,0.0,-0.012,-0.005,-0.99,22.150000000000002,29.810000000000002,-94.85000000000001,0.9997,-0.0022,0.006500000000000001,0.021,0.0,0.001,-0.008
2025-10-29 18:01:15.816,3.845,-0.001,-0.001,0.0,-0.013000000000000001,-0.003,-0.989,22.150000000000002,29.810000000000002,-94.85000000000001,0.9997,-0.0021000000000000003,0.0066,0.021,0.0,-0.001,-0.01
2025-10-29 18:01:15.817,3.85,-0.001,0.0,0.001,-0.013000000000000001,-0.005,-0.986,22.150000000000002,29.810000000000002,-94.73,0.9997,-0.0022,0.0066,0.021,0.0,0.0,-0.013000000000000001
2025-10-29 18:01:15.817,3.855,-0.002,0.0,0.0,-0.012,-0.004,-0.986,22.56,29.810000000000002,-94.73,0.9997,-0.0022,0.0066,0.021,0.0,0.0,-0.013000000000000001
2025-10-29 18:01:15.817,3.86,0.0,0.001,0.0,-0.013000000000000001,-0.004,-0.986,22.56,29.810000000000002,-94.73,0.9997,-0.0022,0.0066,0.021,0.0,0.0,-0.013000000000000001
2025-10-29 18:01:15.818,3.865,-0.001,0.002,0.0,-0.013000000000000001,-0.004,-0.984,22.82,29.72,-94.88,0.9997,-0.0022,0.0066,0.021,0.0,0.0,-0.015
2025-10-29 18:01:15.818,3.87,0.001,0.002,0.0,-0.012,-0.004,-0.986,22.82,29.72,-94.88,0.9997,-0.0022,0.0066,0.021,0.0,0.0,-0.013000000000000001
2025-10-29 18:01:15.818,3.875,-0.001,0.0,0.0,-0.013000000000000001,-0.003,-0.986,22.8,29.43,-94.7,0.9997,-0.0021000000000000003,0.0066,0.021,0.0,-0.001,-0.013000000000000001
2025-10-29 18:01:15.819,3.88,0.001,0.002,0.0,-0.011,-0.003,-0.988,22.8,29.43,-94.7,0.9997,-0.0021000000000000003,0.0066,0.021,-0.001,0.0,-0.011
2025-10-29 18:01:15.819,3.885,0.001,-0.002,0.0,-0.012,-0.003,-0.99,22.8,29.43,-94.7,0.9997,-0.0021000000000000003,0.0066,0.021,0.0,0.0,-0.009000000000000001
2025-10-29 18:01:15.819,3.89,0.001,0.001,0.0,-0.013000000000000001,-0.005,-0.99,22.5,29.580000000000002,-94.56,0.9997,-0.0021000000000000003,0.0066,0.021,0.0,0.001,-0.009000000000000001
2025-10-29 18:01:15.820,3.895,0.001,0.0,0.0,-0.011,-0.004,-0.992,22.5,29.580000000000002,-94.56,0.9997,-0.0021000000000000003,0.006500000000000001,0.021,-0.001,0.0,-0.007
2025-10-29 18:01:15.820,3.9,0.001,-0.002,0.0,-0.012,-0.004,-0.992,23.38,28.96,-94.44,0.9997,-0.0021000000000000003,0.006500000000000001,0.021,0.0,0.0,-0.007
2025-10-29 18:01:15.820,3.905,0.001,0.0,0.002,-0.012,-0.004,-0.993,23.38,28.96,-94.44,0.9997,-0.0021000000000000003,0.006500000000000001,0.021,0.0,0.0,-0.006
2025-10-29 18:01:15.821,3.925,-0.001,-0.003,0.0,-0.012,-0.005,-0.989,21.98,29.580000000000002,-94.94,0.9997,-0.0022,0.0066,0.021,0.0,0.0,-0.01
2025-10-29 18:01:15.821,3.93,0.0,-0.001,0.0,-0.014,-0.004,-0.988,21.98,29.580000000000002,-94.94,0.9997,-0.0022,0.0066,0.020900000000000002,0.001,0.0,-0.011
2025-10-29 18:01:15.821,3.935,0.0,0.0,-0.001,-0.013000000000000001,-0.004,-0.987,22.42,29.34,-95.29,0.9997,-0.0022,0.0067,0.020900000000000002,0.0,0.0,-0.012
2025-10-29 18:01:15.822,3.94,0.0,-0.003,0.0,-0.013000000000000001,-0.004,-0.985,22.42,29.34,-95.29,0.9997,-0.0022,0.0067,0.020900000000000002,0.0,0.0,-0.014
2025-10-29 18:01:15.822,3.945,-0.001,0.001,0.0,-0.012,-0.004,-0.986,22.42,29.34,-95.29,0.9997,-0.0022,0.0067,0.020900000000000002,0.0,0.0,-0.013000000000000001
2025-10-29 18:01:15.822,3.95,0.0,0.001,0.0,-0.012,-0.003,-0.986,22.53,29.72,-94.91,0.9997,-0.0021000000000000003,0.0066,0.020900000000000002,0.0,0.0,-0.013000000000000001
2025-10-29 18:01:15.823,3.955,0.0,-0.001,0.001,-0.011,-0.004,-0.987,22.53,29.72,-94.91,0.9997,-0.0021000000000000003,0.0066,0.020900000000000002,-0.001,0.0,-0.012
2025-10-29 18:01:15.823,3.96,0.0,0.003,0.0,-0.013000000000000001,-0.003,-0.986,22.68,29.17,-94.97,0.9997,-0.0021000000000000003,0.0066,0.020900000000000002,0.0,0.0,-0.013000000000000001
2025-10-29 18:01:15.823,3.965,0.001,0.001,0.0,-0.013000000000000001,-0.003,-0.99,22.68,29.17,-94.97,0.9997,-0.002,0.0066,0.020900000000000002,0.0,-0.001,-0.009000000000000001
2025-10-29 18:01:15.824,3.97,0.0,-0.002,0.0,-0.012,-0.003,-0.988,22.44,29.23,-95.26,0.9997,-0.002,0.0066,0.020900000000000002,0.0,0.0,-0.011
2025-10-29 18:01:15.824,3.975,0.001,-0.001,0.0,-0.012,-0.003,-0.991,22.44,29.23,-95.26,0.9997,-0.002,0.006500000000000001,0.020900000000000002,0.0,0.0,-0.008
2025-10-29 18:01:15.824,3.98,0.0,0.0,0.0,-0.012,-0.005,-0.992,22.44,29.23,-95.26,0.9997,-0.002,0.006500000000000001,0.020900000000000002,0.0,0.001,-0.007
2025-10-29 18:01:15.825,3.985,0.0,0.0,0.0,-0.013000000000000001,-0.005,-0.991,22.27,29.900000000000002,-94.18,0.9997,-0.0021000000000000003,0.0066,0.020900000000000002,0.0,0.0,-0.008
2025-10-29 18:01:15.825,3.99,0.0,0.0,0.0,-0.014,-0.004,-0.99,22.27,29.900000000000002,-94.18,0.9997,-0.0021000000000000003,0.0066,0.020900000000000002,0.0,0.0,-0.009000000000000001
2025-10-29 18:01:15.825,3.995,0.0,0.001,0.0,-0.012,-0.004,-0.989,21.77,29.61,-94.7,0.9997,-0.0021000000000000003,0.0066,0.020900000000000002,0.0,0.0,-0.01
2025-10-29 18:01:15.826,4.0,-0.001,0.0,0.0,-0.012,-0.004,-0.991,21.77,29.61,-94.7,0.9997,-0.0021000000000000003,0.0066,0.020900000000000002,-0.001,0.0,-0.008
2025-10-29 18:01:15.826,4.005,0.0,0.0,0.0,-0.014,-0.005,-0.989,21.77,29.61,-94.7,0.9997,-0.0021000000000000003,0.0066,0.020900000000000002,0.001,0.001,-0.009000000000000001
2025-10-29 18:01:15.827,4.01,-0.002,0.002,0.0,-0.012,-0.003,-0.99,22.06,29.69,-94.44,0.9997,-0.0021000000000000003,0.0066,0.020900000000000002,0.0,0.0,-0.009000000000000001
2025-10-29 18:01:15.827,4.015,-0.001,0.0,0.001,-0.012,-0.004,-0.991,22.06,29.69,-94.44,0.9997,-0.0021000000000000003,0.006500000000000001,0.020900000000000002,-0.001,0.0,-0.008
2025-10-29 18:01:15.827,4.02,-0.003,0.0,0.001,-0.012,-0.005,-0.991,22.27,29.72,-93.94,0.9997,-0.0022,0.006500000000000001,0.020900000000000002,0.0,0.0,-0.008
2025-10-29 18:01:15.828,4.025,-0.003,-0.002,0.0,-0.011,-0.004,-0.989,22.27,29.72,-93.94,0.9997,-0.0021000000000000003,0.006500000000000001,0.020900000000000002,-0.001,0.0,-0.009000000000000001
2025-10-29 18:01:15.828,4.03,-0.001,0.0,0.0,-0.013000000000000001,-0.005,-0.99,22.47,29.2,-93.39,0.9997,-0.0022,0.006500000000000001,0.020900000000000002,0.0,0.0,-0.009000000000000001
2025-10-29 18:01:15.828,4.035,-0.001,0.0,0.001,-0.013000000000000001,-0.004,-0.987,22.47,29.2,-93.39,0.9997,-0.0022,0.006500000000000001,0.020900000000000002,0.0,0.0,-0.012
2025-10-29 18:01:15.829,4.04,-0.002,0.0,0.0,-0.012,-0.005,-0.987,22.47,29.2,-93.39,0.9997,-0.0022,0.006500000000000001,0.020900000000000002,0.0,0.0,-0.012
2025-10-29 18:01:15.829,4.07,-0.003,0.0,0.0,-0.014,-0.004,-0.988,22.91,29.17,-95.23,0.9997,-0.002,0.0066,0.020900000000000002,0.0,0.0,-0.011
2025-10-29 18:01:15.830,4.075,0.0,0.001,0.0,-0.013000000000000001,-0.005,-0.987,22.91,29.17,-95.23,0.9997,-0.002,0.0066,0.020900000000000002,0.0,0.0,-0.012
2025-10-29 18:01:15.830,4.08,0.001,-0.001,0.0,-0.013000000000000001,-0.003,-0.989,22.330000000000002,29.72,-94.5,0.9997,-0.002,0.0066,0.020900000000000002,0.0,0.0,-0.009000000000000001
2025-10-29 18:01:15.830,4.085,0.0,0.002,0.0,-0.012,-0.003,-0.989,22.330000000000002,29.72,-94.5,0.9997,-0.002,0.0066,0.020900000000000002,0.0,-0.001,-0.01
2025-10-29 18:01:15.831,4.09,0.001,0.0,0.0,-0.014,-0.004,-0.988,22.47,28.96,-94.82000000000001,0.9997,-0.002,0.0067,0.020900000000000002,0.001,0.0,-0.011
2025-10-29 18:01:15.831,4.095,0.0,-0.002,-0.001,-0.013000000000000001,-0.005,-0.991,22.47,28.96,-94.82000000000001,0.9997,-0.002,0.0067,0.020900000000000002,0.0,0.001,-0.008
2025-10-29 18:01:15.831,4.1,0.0,0.0,0.0,-0.014,-0.004,-0.99,22.47,28.96,-94.82000000000001,0.9997,-0.0021000000000000003,0.0067,0.020900000000000002,0.0,0.0,-0.009000000000000001
2025-10-29 18:01:15.832,4.105,0.0,-0.003,0.0,-0.013000000000000001,-0.003,-0.991,22.47,29.26,-94.56,0.9997,-0.002,0.0067,0.020900000000000002,0.0,-0.001,-0.008
2025-10-29 18:01:15.832,4.11,0.0,0.0,0.0,-0.012,-0.005,-0.991,22.47,29.26,-94.56,0.9997,-0.002,0.0067,0.020900000000000002,0.0,0.0,-0.008
2025-10-29 18:01:15.832,4.115,0.0,0.001,0.001,-0.014,-0.004,-0.987,22.8,29.64,-94.24,0.9997,-0.002,0.0067,0.020900000000000002,0.0,0.0,-0.011
2025-10-29 18:01:15.833,4.12,0.0,-0.002,0.0,-0.013000000000000001,-0.003,-0.989,22.8,29.64,-94.24,0.9997,-0.002,0.0067,0.020900000000000002,0.0,0.0,-0.01
2025-10-29 18:01:15.833,4.125,0.0,0.0,0.0,-0.013000000000000001,-0.004,-0.986,22.8,29.64,-94.24,0.9997,-0.002,0.0068000000000000005,0.020900000000000002,0.0,0.0,-0.012
2025-10-29 18:01:15.834,4.13,-0.001,0.0,-0.002,-0.013000000000000001,-0.005,-0.987,22.27,29.69,-94.62,0.9997,-0.0021000000000000003,0.0067,0.020900000000000002,0.0,0.001,-0.012
2025-10-29 18:01:15.834,4.135,0.0,0.0,0.001,-0.013000000000000001,-0.003,-0.987,22.27,29.69,-94.62,0.9997,-0.002,0.0067,0.020900000000000002,0.0,-0.001,-0.012
2025-10-29 18:01:15.834,4.14,0.0,0.0,0.0,-0.011,-0.004,-0.987,23.03,29.52,-94.91,0.9997,-0.002,0.0067,0.020900000000000002,-0.001,0.0,-0.012
2025-10-29 18:01:15.835,4.145,0.001,-0.001,0.0,-0.013000000000000001,-0.004,-0.989,23.03,29.52,-94.91,0.9997,-0.002,0.0067,0.020900000000000002,0.0,0.0,-0.01
2025-10-29 18:01:15.835,4.15,0.0,0.0,0.0,-0.013000000000000001,-0.003,-0.989,22.3,29.310000000000002,-94.38,0.9997,-0.002,0.0067,0.020900000000000002,0.0,0.0,-0.01
2025-10-29 18:01:15.835,4.155,-0.001,0.0,0.0,-0.013000000000000001,-0.004,-0.987,22.3,29.310000000000002,-94.38,0.9997,-0.002,0.0067,0.020900000000000002,0.0,0.0,-0.012
2025-10-29 18:01:15.836,4.16,0.001,0.0,0.0,-0.013000000000000001,-0.004,-0.988,22.3,29.310000000000002,-94.38,0.9997,-0.002,0.0067,0.020900000000000002,0.0,0.0,-0.011
2025-10-29 18:01:15.836,4.165,0.001,0.001,0.001,-0.012,-0.004,-0.986,22.68,29.37,-93.83,0.9997,-0.002,0.0067,0.020900000000000002,0.0,0.0,-0.013000000000000001
2025-10-29 18:01:15.836,4.17,0.0,-0.001,0.0,-0.013000000000000001,-0.004,-0.987,22.68,29.37,-93.83,0.9997,-0.002,0.0067,0.020900000000000002,0.0,0.0,-0.012
2025-10-29 18:01:15.837,4.175,0.001,0.002,0.001,-0.01,-0.004,-0.989,22.94,29.02,-94.56,0.9997,-0.002,0.0066,0.020900000000000002,-0.002,0.0,-0.009000000000000001
2025-10-29 18:01:15.837,4.18,0.003,0.0,0.0,-0.012,-0.004,-0.991,22.94,29.02,-94.56,0.9997,-0.002,0.0066,0.020900000000000002,0.0,0.0,-0.008
2025-10-29 18:01:15.838,4.245,0.001,-0.005,0.0,-0.013000000000000001,-0.003,-0.988,22.36,29.78,-94.21000000000001,0.9997,-0.002,0.0066,0.020900000000000002,0.0,0.0,-0.01
2025-10-29 18:01:15.838,4.25,0.0,0.001,0.0,-0.012,-0.004,-0.991,22.740000000000002,29.580000000000002,-94.41,0.9997,-0.002,0.0066,0.020900000000000002,0.0,0.0,-0.008
2025-10-29 18:01:15.838,4.255,0.001,0.0,0.001,-0.011,-0.005,-0.992,22.740000000000002,29.580000000000002,-94.41,0.9997,-0.002,0.006500000000000001,0.020900000000000002,-0.001,0.001,-0.007
2025-10-29 18:01:15.839,4.26,0.0,0.002,0.0,-0.012,-0.005,-0.99,21.92,30.07,-94.06,0.9997,-0.0021000000000000003,0.006500000000000001,0.020900000000000002,0.0,0.0,-0.009000000000000001
2025-10-29 18:01:15.839,4.265,0.001,0.0,0.001,-0.013000000000000001,-0.004,-0.991,21.92,30.07,-94.06,0.9997,-0.0021000000000000003,0.006500000000000001,0.020900000000000002,0.0,0.0,-0.007
