Timestamp,imuTimestamp,Gyro_X (rad/s),Gyro_Y (rad/s),Gyro_Z (rad/s),Acc_X (g),Acc_Y (g),Acc_Z (g),Mag_X (¦ÌT),Mag_Y (¦ÌT),Mag_Z (¦ÌT),Euler_X,Euler_Y,Euler_Z,Quaternion_W,Quaternion_X,Quaternion_Y,Quaternion_Z,Linear_Acc_X (g),Linear_Acc_Y (g),Linear_Acc_Z (g)
2025-10-27 11:13:00.642,115.255,0.0,0.0,-0.001,-0.017,0.001,-0.991,8.88,12.59,-96.49000000000001,0.0032,0.0082,0.261,0.0,0.0,0.0,0.9652000000000001,-0.019,-0.17500000000000002,-5.281
2025-10-27 11:13:00.644,115.2575,-0.002,-0.001,0.0,-0.018000000000000002,0.001,-0.99,8.88,12.59,-96.49000000000001,0.0032,0.0082,0.261,0.0,0.0,0.0,0.9652000000000001,-0.019,-0.17500000000000002,-5.281
2025-10-27 11:13:00.646,115.26,0.0,0.002,0.002,-0.019,0.0,-0.989,8.88,12.59,-96.49000000000001,0.0032,0.0082,0.261,0.0,0.0,0.0,0.9652000000000001,-0.019,-0.17500000000000002,-5.281
2025-10-27 11:13:00.648,115.2625,0.0,-0.002,-0.001,-0.02,0.0,-0.988,8.88,13.030000000000001,-96.25,0.0032,0.0082,0.261,0.0,0.0,0.0,0.9652000000000001,-0.019,-0.177,-5.281
2025-10-27 11:13:00.649,115.265,0.001,-0.001,0.0,-0.018000000000000002,0.002,-0.987,8.88,13.030000000000001,-96.25,0.0032,0.0082,0.261,0.0,0.0,0.0,0.9652000000000001,-0.02,-0.176,-5.281
2025-10-27 11:13:00.656,115.375,0.001,0.001,-0.001,-0.019,0.0,-0.988,8.790000000000001,12.51,-96.28,0.003,0.008400000000000001,0.261,0.0,0.0,0.0,0.9652000000000001,-0.015,-0.179,-5.281
2025-10-27 11:13:00.658,115.3775,0.001,0.0,0.0,-0.018000000000000002,0.0,-0.989,8.790000000000001,12.51,-96.28,0.003,0.008400000000000001,0.261,0.0,0.0,0.0,0.9652000000000001,-0.015,-0.179,-5.281
2025-10-27 11:13:00.660,115.38,0.001,0.0,0.001,-0.019,0.0,-0.991,8.790000000000001,12.51,-96.28,0.003,0.008400000000000001,0.261,0.0,0.0,0.0,0.9652000000000001,-0.015,-0.18,-5.281
2025-10-27 11:13:00.662,115.3825,0.001,0.0,0.0,-0.02,0.002,-0.989,8.56,12.71,-95.46000000000001,0.0031000000000000003,0.0085,0.2609,0.0,0.0,0.0,0.9652000000000001,-0.016,-0.18,-5.281
2025-10-27 11:13:00.663,115.385,0.0,-0.001,0.0,-0.017,0.0,-0.989,8.56,12.71,-95.46000000000001,0.0031000000000000003,0.008400000000000001,0.2609,0.0,0.0,0.0,0.9652000000000001,-0.016,-0.179,-5.281
2025-10-27 11:13:00.666,115.3875,-0.002,0.0,0.001,-0.018000000000000002,0.0,-0.987,8.56,12.71,-95.46000000000001,0.0031000000000000003,0.008400000000000001,0.2609,0.0,0.0,0.0,0.9652000000000001,-0.015,-0.179,-5.281
2025-10-27 11:13:00.668,115.39,0.001,0.0,0.0,-0.018000000000000002,0.002,-0.988,8.56,12.71,-95.46000000000001,0.0031000000000000003,0.008400000000000001,0.2609,0.0,0.0,0.0,0.9652000000000001,-0.016,-0.179,-5.281
2025-10-27 11:13:00.669,115.3925,0.001,0.001,0.0,-0.018000000000000002,0.001,-0.989,9.17,11.98,-96.55,0.0031000000000000003,0.008400000000000001,0.2609,0.0,0.0,0.0,0.9652000000000001,-0.017,-0.179,-5.281
2025-10-27 11:13:00.675,115.395,0.0,0.001,-0.001,-0.017,0.0,-0.988,9.17,11.98,-96.55,0.0031000000000000003,0.008400000000000001,0.2609,0.0,0.0,0.0,0.9652000000000001,-0.017,-0.178,-5.281
2025-10-27 11:13:00.677,115.3975,0.0,-0.002,-0.002,-0.018000000000000002,0.0,-0.987,9.17,11.98,-96.55,0.0031000000000000003,0.0083,0.2609,0.0,0.0,0.0,0.9652000000000001,-0.016,-0.178,-5.281
2025-10-27 11:13:00.678,115.4,-0.001,-0.001,0.001,-0.019,0.0,-0.988,9.17,11.98,-96.55,0.0031000000000000003,0.008400000000000001,0.2609,0.0,0.0,0.0,0.9652000000000001,-0.016,-0.178,-5.281
2025-10-27 11:13:00.687,115.4025,0.001,0.0,0.0,-0.018000000000000002,0.001,-0.989,9.17,11.98,-96.55,0.0031000000000000003,0.0083,0.2609,0.0,0.0,0.0,0.9652000000000001,-0.016,-0.178,-5.281
2025-10-27 11:13:00.689,115.405,0.001,0.0,0.0,-0.018000000000000002,0.0,-0.99,10.200000000000001,12.01,-96.14,0.0031000000000000003,0.0083,0.2609,0.0,0.0,0.0,0.9652000000000001,-0.016,-0.178,-5.281
2025-10-27 11:13:00.691,115.4075,0.0,0.001,0.001,-0.02,0.0,-0.989,10.200000000000001,12.01,-96.14,0.0031000000000000003,0.008400000000000001,0.2609,0.0,0.0,0.0,0.9652000000000001,-0.016,-0.178,-5.281
2025-10-27 11:13:00.701,115.41,-0.001,0.002,-0.001,-0.017,0.001,-0.99,10.200000000000001,12.01,-96.14,0.0031000000000000003,0.0083,0.2609,0.0,0.0,0.0,0.9652000000000001,-0.017,-0.178,-5.281
2025-10-27 11:13:00.703,115.4125,0.0,0.0,-0.001,-0.017,0.0,-0.988,10.200000000000001,12.01,-96.14,0.0031000000000000003,0.0083,0.2609,0.0,0.0,0.0,0.9652000000000001,-0.017,-0.177,-5.281
2025-10-27 11:13:00.705,115.415,0.003,0.002,0.0,-0.017,0.0,-0.989,10.200000000000001,12.01,-96.14,0.0031000000000000003,0.0083,0.2609,0.0,0.0,0.0,0.9652000000000001,-0.016,-0.177,-5.281
2025-10-27 11:13:00.717,115.4825,0.002,0.004,0.0,-0.019,0.001,-0.987,10.78,12.92,-97.13,0.0033,0.008400000000000001,0.261,0.0002,0.0004,0.0,0.9652000000000001,-0.02,-0.179,-5.281
2025-10-27 11:13:00.718,115.485,0.0,0.0,-0.001,-0.018000000000000002,0.0,-0.987,10.78,12.92,-97.13,0.0033,0.008400000000000001,0.261,0.0,0.0,0.0,0.9652000000000001,-0.02,-0.179,-5.281
2025-10-27 11:13:00.732,115.4875,0.001,-0.001,0.0,-0.018000000000000002,0.0,-0.989,10.78,12.92,-97.13,0.0032,0.0083,0.261,0.0,0.0,0.0,0.9652000000000001,-0.019,-0.179,-5.281
2025-10-27 11:13:00.734,115.49,0.001,0.001,0.0,-0.018000000000000002,0.001,-0.99,8.620000000000001,12.42,-96.57000000000001,0.0032,0.0083,0.261,0.0,0.0,0.0,0.9652000000000001,-0.019,-0.179,-5.281
2025-10-27 11:13:00.735,115.4925,0.0,0.001,0.001,-0.018000000000000002,0.0,-0.991,8.620000000000001,12.42,-96.57000000000001,0.0032,0.0083,0.261,0.0,0.0,0.0,0.9652000000000001,-0.019,-0.178,-5.281
2025-10-27 11:13:00.746,115.495,0.001,-0.001,0.0,-0.018000000000000002,0.001,-0.988,8.620000000000001,12.42,-96.57000000000001,0.0033,0.0083,0.261,0.0,0.0,0.0,0.9652000000000001,-0.02,-0.178,-5.281
2025-10-27 11:13:00.748,115.4975,0.001,-0.001,0.001,-0.017,0.002,-0.989,8.620000000000001,12.42,-96.57000000000001,0.0033,0.0083,0.261,0.0,0.0,0.0,0.9652000000000001,-0.02,-0.178,-5.281
2025-10-27 11:13:00.750,115.5,0.0,-0.001,-0.001,-0.017,0.001,-0.988,8.620000000000001,12.42,-96.57000000000001,0.0033,0.0082,0.2609,0.0,0.0,0.0,0.9652000000000001,-0.021,-0.177,-5.281
2025-10-27 11:13:00.760,115.5025,0.001,-0.002,-0.001,-0.018000000000000002,0.0,-0.989,8.74,12.68,-95.87,0.0033,0.0082,0.2609,0.0,0.0,0.0,0.9652000000000001,-0.02,-0.177,-5.281
2025-10-27 11:13:00.762,115.505,-0.001,0.001,0.0,-0.017,0.0,-0.988,8.74,12.68,-95.87,0.0033,0.0082,0.2609,0.0,0.0,0.0,0.9652000000000001,-0.02,-0.176,-5.281
2025-10-27 11:13:00.765,115.5075,-0.001,-0.001,0.0,-0.016,0.0,-0.989,8.74,12.68,-95.87,0.0032,0.0082,0.2609,0.0,0.0,0.0,0.9652000000000001,-0.02,-0.17500000000000002,-5.281
2025-10-27 11:13:00.775,115.51,-0.001,0.003,-0.001,-0.017,0.001,-0.989,8.74,12.68,-95.87,0.0033,0.0081,0.2609,0.0,0.0,0.0,0.9652000000000001,-0.021,-0.17500000000000002,-5.281
2025-10-27 11:13:00.776,115.5125,0.001,0.002,-0.001,-0.017,0.0,-0.99,9.52,12.07,-96.31,0.0032,0.0081,0.2609,0.0,0.0,0.0,0.9653,-0.02,-0.17400000000000002,-5.281
2025-10-27 11:13:00.790,115.515,0.0,0.0,0.0,-0.017,0.002,-0.989,9.52,12.07,-96.31,0.0033,0.0081,0.2609,0.0,0.0,0.0,0.9653,-0.021,-0.17400000000000002,-5.281
2025-10-27 11:13:00.792,115.5175,0.0,0.0,0.001,-0.017,0.001,-0.989,9.52,12.07,-96.31,0.0033,0.0081,0.2609,0.0,0.0,0.0,0.9653,-0.021,-0.17400000000000002,-5.281
2025-10-27 11:13:00.794,115.52,-0.002,0.002,0.0,-0.017,0.0,-0.987,9.52,12.07,-96.31,0.0032,0.0081,0.2609,0.0,0.0,0.0,0.9653,-0.02,-0.17300000000000001,-5.28
2025-10-27 11:13:00.805,115.5225,-0.002,0.001,-0.001,-0.02,0.0,-0.987,9.52,12.07,-96.31,0.0032,0.0081,0.2609,0.0,0.0,0.0,0.9653,-0.02,-0.17400000000000002,-5.281
2025-10-27 11:13:00.807,115.5575,-0.001,0.002,0.0,-0.019,0.0,-0.988,9.32,12.33,-96.37,0.0032,0.0081,0.2609,0.0,0.0,0.0,0.9653,-0.02,-0.17500000000000002,-5.281
2025-10-27 11:13:00.808,115.56,-0.001,0.0,-0.001,-0.018000000000000002,0.0,-0.986,9.32,12.33,-95.29,0.0032,0.0081,0.2609,0.0,0.0,0.0,0.9653,-0.019,-0.17400000000000002,-5.28
2025-10-27 11:13:00.810,115.5625,0.0,-0.001,-0.002,-0.016,0.0,-0.988,9.200000000000001,12.040000000000001,-95.29,0.0032,0.0081,0.2609,0.0,0.0,0.0,0.9653,-0.019,-0.17400000000000002,-5.28
2025-10-27 11:13:00.821,115.565,0.0,0.0,-0.001,-0.017,0.002,-0.987,9.200000000000001,12.040000000000001,-95.29,0.0032,0.0081,0.2609,0.0,0.0,0.0,0.9653,-0.02,-0.17300000000000001,-5.281
2025-10-27 11:13:00.823,115.5675,0.001,0.0,0.0,-0.018000000000000002,0.0,-0.99,9.200000000000001,12.040000000000001,-95.29,0.0032,0.0081,0.2609,0.0,0.0,0.0,0.9653,-0.019,-0.17300000000000001,-5.281
2025-10-27 11:13:00.825,115.57,0.0,0.002,0.0,-0.02,0.0,-0.988,9.200000000000001,12.040000000000001,-95.29,0.0032,0.0081,0.2609,0.0,0.0,0.0,0.9653,-0.019,-0.17400000000000002,-5.281
2025-10-27 11:13:00.838,115.5725,-0.001,0.0,0.0,-0.018000000000000002,0.0,-0.989,10.4,11.51,-95.93,0.0032,0.0081,0.2609,0.0,0.0,0.0,0.9653,-0.019,-0.17400000000000002,-5.281
2025-10-27 11:13:00.840,115.575,0.0,0.002,0.0,-0.019,0.0,-0.99,10.4,11.51,-95.93,0.0032,0.0082,0.2609,0.0,0.0,0.0,0.9653,-0.019,-0.17500000000000002,-5.281
2025-10-27 11:13:00.857,115.5775,-0.001,0.0,0.0,-0.02,0.002,-0.99,10.4,11.51,-95.93,0.0032,0.0082,0.2609,0.0,0.0,0.0,0.9653,-0.019,-0.176,-5.281
2025-10-27 11:13:00.859,115.58,0.0,-0.001,0.0,-0.019,0.003,-0.99,10.4,11.51,-95.93,0.0033,0.0082,0.2609,0.0,0.0,0.0,0.9653,-0.02,-0.176,-5.281
2025-10-27 11:13:00.860,115.5825,-0.002,0.0,-0.002,-0.02,0.002,-0.988,10.4,11.51,-95.93,0.0033,0.0082,0.2609,0.0,0.0,0.0,0.9652000000000001,-0.021,-0.177,-5.281
2025-10-27 11:13:00.866,115.585,-0.001,0.001,-0.001,-0.018000000000000002,0.002,-0.989,11.07,11.63,-96.14,0.0034000000000000002,0.0082,0.2609,0.0,0.0,0.0,0.9653,-0.022,-0.177,-5.28
2025-10-27 11:13:00.868,115.5875,-0.001,0.001,0.0,-0.018000000000000002,0.001,-0.989,11.07,11.63,-96.14,0.0034000000000000002,0.0082,0.2609,0.0,0.0,0.0,0.9653,-0.022,-0.177,-5.28
2025-10-27 11:13:00.870,115.59,0.0,0.004,0.0,-0.018000000000000002,0.0,-0.986,11.07,11.63,-96.14,0.0034000000000000002,0.0082,0.2609,0.0,0.0004,0.0,0.9653,-0.022,-0.177,-5.28
2025-10-27 11:13:00.880,115.5925,0.0,0.002,0.001,-0.018000000000000002,0.0,-0.99,11.07,11.63,-96.14,0.0033,0.0082,0.2609,0.0,0.0,0.0,0.9653,-0.022,-0.176,-5.28
2025-10-27 11:13:00.883,115.595,-0.002,0.0,0.0,-0.018000000000000002,0.0,-0.988,11.07,11.63,-96.14,0.0033,0.0082,0.2609,0.0,0.0,0.0,0.9653,-0.021,-0.176,-5.28
2025-10-27 11:13:00.884,115.5975,-0.001,-0.001,0.001,-0.016,0.0,-0.987,10.52,12.89,-96.75,0.0033,0.0082,0.2609,0.0,0.0,0.0,0.9653,-0.021,-0.17500000000000002,-5.28
2025-10-27 11:13:00.895,115.66,0.001,0.001,0.0,-0.017,0.0,-0.989,9.82,12.97,-97.07000000000001,0.0032,0.0083,0.2609,0.0,0.0,0.0,0.9653,-0.019,-0.177,-5.28
2025-10-27 11:13:00.898,115.6625,0.001,-0.001,0.0,-0.02,0.0,-0.989,9.82,12.97,-97.07000000000001,0.0032,0.0083,0.2609,0.0,0.0,0.0,0.9653,-0.019,-0.178,-5.28
2025-10-27 11:13:00.911,115.665,0.001,0.0,-0.001,-0.02,0.0,-0.988,9.82,12.97,-97.07000000000001,0.0032,0.0083,0.2609,0.0,0.0,0.0,0.9653,-0.019,-0.178,-5.28
2025-10-27 11:13:00.913,115.6675,0.001,0.001,0.0,-0.017,0.0,-0.988,9.82,12.97,-97.07000000000001,0.0032,0.0083,0.2609,0.0,0.0,0.0,0.9653,-0.018000000000000002,-0.178,-5.28
2025-10-27 11:13:00.914,115.67,0.0,0.001,0.002,-0.019,0.0,-0.987,9.06,12.71,-96.46000000000001,0.0032,0.0083,0.2609,0.0,0.0,0.0,0.9653,-0.018000000000000002,-0.178,-5.28
2025-10-27 11:13:00.926,115.6725,-0.001,0.0,0.0,-0.017,0.0,-0.989,9.06,12.71,-96.46000000000001,0.0031000000000000003,0.0083,0.2609,0.0,0.0,0.0,0.9653,-0.017,-0.178,-5.28
2025-10-27 11:13:00.927,115.675,-0.001,-0.001,0.0,-0.018000000000000002,0.001,-0.988,9.06,12.71,-96.46000000000001,0.0031000000000000003,0.0083,0.2609,0.0,0.0,0.0,0.9653,-0.018000000000000002,-0.178,-5.28
2025-10-27 11:13:00.929,115.6775,0.0,-0.001,-0.001,-0.019,0.0,-0.988,9.06,12.71,-96.46000000000001,0.0031000000000000003,0.0083,0.2609,0.0,0.0,0.0,0.9653,-0.017,-0.178,-5.28
2025-10-27 11:13:00.941,115.68,0.001,0.002,0.0,-0.017,0.0,-0.987,8.76,12.65,-95.9,0.0031000000000000003,0.0083,0.2609,0.0,0.0,0.0,0.9653,-0.017,-0.177,-5.281
2025-10-27 11:13:00.942,115.6825,0.002,-0.001,0.0,-0.019,0.0,-0.989,8.76,12.65,-95.9,0.0031000000000000003,0.0083,0.2609,0.0,0.0,0.0,0.9653,-0.017,-0.178,-5.281
2025-10-27 11:13:00.944,115.685,0.002,0.0,0.0,-0.018000000000000002,0.0,-0.988,8.76,12.65,-95.9,0.0031000000000000003,0.0083,0.2609,0.0,0.0,0.0,0.9653,-0.017,-0.178,-5.28
2025-10-27 11:13:00.955,115.6875,0.001,0.0,0.001,-0.018000000000000002,0.001,-0.987,8.76,12.65,-95.9,0.0031000000000000003,0.0083,0.2609,0.0,0.0,0.0,0.9653,-0.017,-0.178,-5.28
2025-10-27 11:13:00.956,115.69,0.0,0.0,0.001,-0.015,0.001,-0.986,8.76,12.65,-95.9,0.0031000000000000003,0.0082,0.2609,0.0,0.0,0.0,0.9653,-0.018000000000000002,-0.176,-5.28
2025-10-27 11:13:00.969,115.6925,0.0,0.001,0.001,-0.017,0.002,-0.988,10.49,12.27,-96.19,0.0032,0.0082,0.2609,0.0,0.0,0.0,0.9653,-0.019,-0.176,-5.28
2025-10-27 11:13:00.971,115.695,-0.001,0.001,0.0,-0.019,0.0,-0.987,10.49,12.27,-96.19,0.0032,0.0082,0.2609,0.0,0.0,0.0,0.9653,-0.018000000000000002,-0.176,-5.28
2025-10-27 11:13:00.973,115.6975,0.001,-0.001,-0.001,-0.018000000000000002,0.002,-0.989,10.49,12.27,-96.19,0.0032,0.0082,0.2609,0.0,0.0,0.0,0.9653,-0.019,-0.176,-5.28
2025-10-27 11:13:00.975,115.7,-0.001,0.0,0.001,-0.018000000000000002,-0.001,-0.989,10.49,12.27,-96.19,0.0031000000000000003,0.0082,0.2609,0.0,0.0,0.0,0.9653,-0.018000000000000002,-0.176,-5.28
2025-10-27 11:13:00.986,115.7525,0.0,-0.001,-0.001,-0.017,0.0,-0.988,10.4,11.51,-95.73,0.0031000000000000003,0.008400000000000001,0.2609,0.0,0.0,0.0,0.9653,-0.016,-0.178,-5.28
2025-10-27 11:13:00.988,115.755,0.001,0.0,0.0,-0.018000000000000002,0.001,-0.987,10.4,11.51,-95.73,0.0031000000000000003,0.008400000000000001,0.2609,0.0,0.0,0.0,0.9653,-0.017,-0.178,-5.28
2025-10-27 11:13:00.990,115.7575,-0.001,0.001,0.0,-0.018000000000000002,0.0,-0.988,10.4,11.51,-95.73,0.0031000000000000003,0.0083,0.2609,0.0,0.0,0.0,0.9653,-0.016,-0.178,-5.28
2025-10-27 11:13:01.001,115.76,-0.002,-0.002,0.0,-0.018000000000000002,0.0,-0.987,10.4,11.51,-95.73,0.0031000000000000003,0.008400000000000001,0.2609,0.0,0.0,0.0,0.9653,-0.016,-0.178,-5.28
2025-10-27 11:13:01.003,115.7625,-0.001,-0.001,0.0,-0.019,0.0,-0.989,10.4,11.51,-95.73,0.0031000000000000003,0.008400000000000001,0.2609,0.0,0.0,0.0,0.9653,-0.016,-0.179,-5.28
2025-10-27 11:13:01.005,115.765,0.0,0.002,0.001,-0.018000000000000002,0.001,-0.989,10.96,11.16,-96.22,0.0031000000000000003,0.008400000000000001,0.2609,0.0,0.0,0.0,0.9653,-0.016,-0.179,-5.28
2025-10-27 11:13:01.016,115.7675,-0.001,0.0,0.001,-0.017,0.002,-0.988,10.96,11.16,-96.22,0.0031000000000000003,0.0083,0.2609,0.0,0.0,0.0,0.9653,-0.017,-0.178,-5.28
2025-10-27 11:13:01.018,115.77,-0.001,-0.002,0.002,-0.019,0.0,-0.987,10.96,11.16,-96.22,0.0031000000000000003,0.0083,0.2609,0.0,0.0,0.0,0.9653,-0.017,-0.178,-5.28
2025-10-27 11:13:01.044,115.7725,-0.001,0.002,0.0,-0.019,0.001,-0.99,10.96,11.16,-96.22,0.0031000000000000003,0.008400000000000001,0.2609,0.0,0.0,0.0,0.9653,-0.017,-0.178,-5.28
2025-10-27 11:13:01.046,115.775,0.0,0.001,0.0,-0.018000000000000002,0.0,-0.99,10.96,11.16,-96.22,0.0031000000000000003,0.0083,0.2609,0.0,0.0,0.0,0.9653,-0.017,-0.178,-5.28
2025-10-27 11:13:01.049,115.7775,0.0,-0.001,-0.002,-0.018000000000000002,0.001,-0.989,9.99,11.950000000000001,-97.31,0.0031000000000000003,0.0083,0.2609,0.0,0.0,0.0,0.9653,-0.017,-0.178,-5.28
2025-10-27 11:13:01.067,115.78,-0.001,-0.002,0.0,-0.017,0.0,-0.989,9.99,11.950000000000001,-97.31,0.0031000000000000003,0.0083,0.2609,0.0,0.0,0.0,0.9653,-0.017,-0.178,-5.28
2025-10-27 11:13:01.069,115.7825,-0.002,-0.003,-0.001,-0.018000000000000002,-0.001,-0.988,9.99,11.950000000000001,-97.31,0.0031000000000000003,0.0083,0.2609,-0.0002,-0.00030000000000000003,-0.0001,0.9653,-0.017,-0.178,-5.28
2025-10-27 11:13:01.070,115.785,0.001,0.0,-0.002,-0.019,0.0,-0.989,9.99,11.950000000000001,-97.31,0.0031000000000000003,0.0083,0.2609,0.0,0.0,0.0,0.9653,-0.017,-0.178,-5.28
2025-10-27 11:13:01.074,115.7875,0.0,0.001,0.001,-0.017,0.001,-0.989,9.99,11.950000000000001,-97.31,0.0031000000000000003,0.0083,0.2609,0.0,0.0,0.0,0.9653,-0.017,-0.178,-5.28
2025-10-27 11:13:01.076,115.79,0.0,0.001,0.001,-0.018000000000000002,0.0,-0.989,9.06,12.13,-96.17,0.0031000000000000003,0.0083,0.2609,0.0,0.0,0.0,0.9653,-0.017,-0.177,-5.28
2025-10-27 11:13:01.090,115.7925,-0.001,0.001,0.0,-0.019,0.0,-0.988,9.06,12.13,-96.17,0.0031000000000000003,0.0083,0.2609,0.0,0.0,0.0,0.9653,-0.017,-0.178,-5.28
2025-10-27 11:13:01.092,115.855,0.001,0.0,-0.001,-0.018000000000000002,0.0,-0.989,9.03,12.48,-97.45,0.0032,0.0082,0.2609,0.0,0.0,0.0,0.9653,-0.019,-0.17500000000000002,-5.28
2025-10-27 11:13:01.105,115.8575,0.002,-0.001,0.001,-0.019,0.001,-0.99,9.03,12.48,-97.45,0.0032,0.0082,0.2609,0.0,0.0,0.0,0.9653,-0.019,-0.17500000000000002,-5.28
2025-10-27 11:13:01.107,115.86,-0.001,-0.002,0.0,-0.018000000000000002,0.001,-0.989,9.17,12.540000000000001,-96.31,0.0032,0.0082,0.2609,0.0,0.0,0.0,0.9653,-0.019,-0.17500000000000002,-5.28
2025-10-27 11:13:01.109,115.8625,-0.003,0.001,-0.001,-0.019,0.0,-0.989,9.17,12.540000000000001,-96.31,0.0032,0.0082,0.2609,-0.00030000000000000003,0.0001,-0.0001,0.9653,-0.019,-0.17500000000000002,-5.28
2025-10-27 11:13:01.120,115.865,-0.001,0.0,0.0,-0.019,0.0,-0.99,9.17,12.540000000000001,-96.31,0.0032,0.0082,0.2609,0.0,0.0,0.0,0.9653,-0.019,-0.176,-5.28
2025-10-27 11:13:01.122,115.8675,0.001,-0.002,0.0,-0.02,0.0,-0.987,9.17,12.540000000000001,-96.31,0.0032,0.0082,0.2609,0.0,0.0,0.0,0.9653,-0.019,-0.176,-5.28
2025-10-27 11:13:01.124,115.87,-0.002,0.0,0.0,-0.017,0.0,-0.99,9.17,12.540000000000001,-96.31,0.0032,0.0082,0.2609,0.0,0.0,0.0,0.9653,-0.018000000000000002,-0.176,-5.28
2025-10-27 11:13:01.151,115.8725,-0.001,0.0,0.0,-0.017,0.0,-0.989,10.46,11.92,-95.93,0.0032,0.0082,0.2609,0.0,0.0,0.0,0.9653,-0.018000000000000002,-0.176,-5.28
2025-10-27 11:13:01.153,115.875,0.001,-0.001,-0.001,-0.019,0.001,-0.989,10.46,11.92,-95.93,0.0032,0.0082,0.2609,0.0,0.0,0.0,0.9653,-0.019,-0.176,-5.28
2025-10-27 11:13:01.155,115.8775,0.0,0.001,-0.001,-0.017,0.0,-0.99,10.46,11.92,-95.93,0.0032,0.0082,0.2609,0.0,0.0,0.0,0.9653,-0.018000000000000002,-0.176,-5.28
2025-10-27 11:13:01.166,115.88,0.0,0.003,-0.001,-0.018000000000000002,0.001,-0.989,10.46,11.92,-95.93,0.0032,0.0082,0.2609,0.0,0.0,0.0,0.9653,-0.018000000000000002,-0.176,-5.28
2025-10-27 11:13:01.168,115.8825,0.0,-0.001,0.0,-0.017,0.001,-0.989,10.46,11.92,-95.93,0.0032,0.0082,0.2609,0.0,0.0,0.0,0.9653,-0.019,-0.17500000000000002,-5.28
2025-10-27 11:13:01.169,115.885,0.0,0.002,-0.001,-0.017,0.0,-0.987,11.42,11.83,-96.49000000000001,0.0032,0.0082,0.2609,0.0,0.0,0.0,0.9653,-0.019,-0.17500000000000002,-5.28
2025-10-27 11:13:01.180,115.8875,0.001,0.001,0.0,-0.018000000000000002,0.0,-0.989,11.42,11.83,-96.49000000000001,0.0032,0.0082,0.2609,0.0,0.0,0.0,0.9653,-0.019,-0.17500000000000002,-5.28
2025-10-27 11:13:01.182,115.89,0.0,0.0,-0.001,-0.017,0.0,-0.99,11.42,11.83,-96.49000000000001,0.0032,0.0081,0.2609,0.0,0.0,0.0,0.9653,-0.019,-0.17400000000000002,-5.28
2025-10-27 11:13:01.184,115.8925,0.0,0.0,-0.001,-0.018000000000000002,0.0,-0.989,11.42,11.83,-96.49000000000001,0.0031000000000000003,0.0081,0.2609,0.0,0.0,0.0,0.9653,-0.018000000000000002,-0.17400000000000002,-5.28
2025-10-27 11:13:01.195,115.895,0.001,0.001,0.0,-0.018000000000000002,0.0,-0.99,11.42,11.83,-96.49000000000001,0.0031000000000000003,0.0082,0.2609,0.0,0.0,0.0,0.9653,-0.018000000000000002,-0.17500000000000002,-5.28
2025-10-27 11:13:01.197,115.9575,-0.001,0.0,-0.003,-0.018000000000000002,0.0,-0.988,9.5,12.65,-96.37,0.0031000000000000003,0.008400000000000001,0.2609,0.0,0.0,0.0,0.9652000000000001,-0.017,-0.178,-5.281
2025-10-27 11:13:01.210,115.96,0.003,0.0,-0.001,-0.017,0.0,-0.987,9.5,12.65,-96.37,0.0031000000000000003,0.0083,0.2609,0.0,0.0,0.0,0.9652000000000001,-0.016,-0.178,-5.281
2025-10-27 11:13:01.212,115.9625,-0.001,0.001,0.0,-0.02,0.0,-0.989,9.5,12.65,-96.37,0.0031000000000000003,0.008400000000000001,0.2609,0.0,0.0,0.0,0.9652000000000001,-0.016,-0.178,-5.281
2025-10-27 11:13:01.214,115.965,0.0,-0.001,0.001,-0.019,0.0,-0.986,9.5,12.65,-96.37,0.0031000000000000003,0.008400000000000001,0.2609,0.0,0.0,0.0,0.9652000000000001,-0.016,-0.179,-5.281
2025-10-27 11:13:01.225,115.9675,-0.001,0.0,-0.001,-0.02,0.0,-0.99,9.200000000000001,13.120000000000001,-96.31,0.0031000000000000003,0.008400000000000001,0.2609,0.0,0.0,0.0,0.9652000000000001,-0.016,-0.179,-5.281
2025-10-27 11:13:01.227,115.97,-0.001,0.001,0.0,-0.02,0.0,-0.991,9.200000000000001,13.120000000000001,-96.31,0.0031000000000000003,0.008400000000000001,0.2609,0.0,0.0,0.0,0.9652000000000001,-0.015,-0.18,-5.281
2025-10-27 11:13:01.229,115.9725,0.0,-0.001,0.0,-0.019,0.0,-0.989,9.200000000000001,13.120000000000001,-96.31,0.0031000000000000003,0.0085,0.2609,0.0,0.0,0.0,0.9652000000000001,-0.015,-0.18,-5.281
2025-10-27 11:13:01.240,115.975,0.001,0.0,0.0,-0.02,-0.001,-0.988,9.200000000000001,13.120000000000001,-96.31,0.003,0.0085,0.2609,0.0,0.0,0.0,0.9652000000000001,-0.014,-0.181,-5.281
2025-10-27 11:13:01.242,115.9775,0.0,0.001,-0.001,-0.017,0.0,-0.99,9.200000000000001,13.120000000000001,-96.31,0.003,0.0085,0.2609,0.0,0.0,0.0,0.9652000000000001,-0.014,-0.18,-5.281
2025-10-27 11:13:01.256,115.98,0.0,0.001,0.0,-0.02,0.001,-0.99,9.23,12.68,-96.11,0.003,0.0085,0.2609,0.0,0.0,0.0,0.9652000000000001,-0.015,-0.181,-5.281
2025-10-27 11:13:01.258,115.9825,0.0,0.0,-0.001,-0.018000000000000002,0.0,-0.988,9.23,12.68,-96.11,0.003,0.0085,0.2609,0.0,0.0,0.0,0.9652000000000001,-0.015,-0.18,-5.281
2025-10-27 11:13:01.271,115.985,0.0,-0.002,-0.002,-0.019,0.0,-0.991,9.23,12.68,-96.11,0.003,0.0085,0.2609,0.0,0.0,0.0,0.9652000000000001,-0.014,-0.18,-5.281
2025-10-27 11:13:01.286,115.9875,0.0,-0.001,0.0,-0.02,0.001,-0.987,9.23,12.68,-96.11,0.003,0.0085,0.2609,0.0,0.0,0.0,0.9652000000000001,-0.015,-0.181,-5.281
2025-10-27 11:13:01.288,115.99,0.002,0.0,0.0,-0.018000000000000002,0.001,-0.989,9.23,12.68,-96.11,0.0031000000000000003,0.0085,0.2609,0.0,0.0,0.0,0.9652000000000001,-0.015,-0.18,-5.281
2025-10-27 11:13:01.290,115.9925,0.001,0.001,-0.001,-0.017,0.001,-0.988,11.1,12.39,-96.69,0.0031000000000000003,0.0085,0.2609,0.0,0.0,0.0,0.9652000000000001,-0.016,-0.18,-5.281
2025-10-27 11:13:01.301,115.995,0.002,0.002,0.0,-0.017,0.001,-0.989,11.1,12.39,-96.69,0.0031000000000000003,0.008400000000000001,0.2609,0.0,0.0,0.0,0.9652000000000001,-0.016,-0.179,-5.281
2025-10-27 11:13:01.316,115.9975,0.0,-0.003,-0.001,-0.017,0.0,-0.987,11.1,12.39,-96.69,0.0031000000000000003,0.008400000000000001,0.2609,0.0,-0.00030000000000000003,-0.0001,0.9652000000000001,-0.016,-0.179,-5.281
2025-10-27 11:13:01.317,116.025,0.0,-0.001,-0.001,-0.017,0.0,-0.988,9.17,13.18,-97.04,0.0031000000000000003,0.0085,0.2609,0.0,0.0,0.0,0.9652000000000001,-0.015,-0.18,-5.281
2025-10-27 11:13:01.330,116.0275,0.001,0.0,-0.001,-0.017,0.0,-0.988,8.85,12.65,-97.10000000000001,0.0031000000000000003,0.008400000000000001,0.2609,0.0,0.0,0.0,0.9652000000000001,-0.015,-0.18,-5.281
2025-10-27 11:13:01.332,116.03,-0.001,0.0,0.001,-0.018000000000000002,0.0,-0.988,8.85,12.65,-97.10000000000001,0.0031000000000000003,0.008400000000000001,0.2609,0.0,0.0,0.0,0.9652000000000001,-0.015,-0.179,-5.281
2025-10-27 11:13:01.334,116.0325,0.0,0.002,0.0,-0.019,0.001,-0.989,8.85,12.65,-97.10000000000001,0.0031000000000000003,0.008400000000000001,0.2609,0.0,0.0,0.0,0.9652000000000001,-0.016,-0.179,-5.281
2025-10-27 11:13:01.345,116.035,0.001,0.0,-0.001,-0.017,0.002,-0.988,8.85,12.65,-97.10000000000001,0.0031000000000000003,0.008400000000000001,0.2609,0.0,0.0,0.0,0.9652000000000001,-0.016,-0.179,-5.281
2025-10-27 11:13:01.347,116.0375,0.0,-0.001,0.0,-0.018000000000000002,0.001,-0.989,8.85,12.65,-97.10000000000001,0.0031000000000000003,0.008400000000000001,0.2609,0.0,0.0,0.0,0.9652000000000001,-0.017,-0.179,-5.281
2025-10-27 11:13:01.361,116.04,0.001,0.0,-0.001,-0.018000000000000002,0.001,-0.989,8.68,12.8,-96.63,0.0032,0.0083,0.2609,0.0,0.0,0.0,0.9652000000000001,-0.018000000000000002,-0.178,-5.281
2025-10-27 11:13:01.363,116.0425,0.002,0.0,-0.002,-0.018000000000000002,0.001,-0.99,8.68,12.8,-96.63,0.0032,0.0083,0.2609,0.0,0.0,0.0,0.9652000000000001,-0.018000000000000002,-0.178,-5.281
2025-10-27 11:13:01.366,116.045,0.001,-0.001,0.0,-0.018000000000000002,0.001,-0.987,8.68,12.8,-96.63,0.0032,0.0083,0.2609,0.0,0.0,0.0,0.9652000000000001,-0.019,-0.178,-5.281
2025-10-27 11:13:01.376,116.0475,0.002,0.001,0.0,-0.018000000000000002,0.001,-0.986,8.68,12.8,-96.63,0.0032,0.0083,0.2609,0.0,0.0,0.0,0.9652000000000001,-0.019,-0.178,-5.281
2025-10-27 11:13:01.379,116.05,0.0,0.0,0.001,-0.017,0.0,-0.985,8.68,12.8,-96.63,0.0032,0.0083,0.2609,0.0,0.0,0.0,0.9652000000000001,-0.019,-0.178,-5.281
2025-10-27 11:13:01.392,116.0525,0.0,0.001,-0.001,-0.017,0.0,-0.988,10.46,12.07,-96.69,0.0032,0.0083,0.2609,0.0,0.0,0.0,0.9652000000000001,-0.019,-0.177,-5.281
2025-10-27 11:13:01.396,116.055,-0.002,0.0,0.0,-0.017,0.002,-0.99,10.46,12.07,-96.69,0.0032,0.0082,0.2609,0.0,0.0,0.0,0.9652000000000001,-0.02,-0.177,-5.281
2025-10-27 11:13:01.400,116.0575,0.0,0.0,0.001,-0.018000000000000002,0.0,-0.989,10.46,12.07,-96.69,0.0032,0.0082,0.2609,0.0,0.0,0.0,0.9652000000000001,-0.019,-0.177,-5.281
2025-10-27 11:13:01.406,116.06,0.001,0.0,0.0,-0.018000000000000002,0.002,-0.989,10.46,12.07,-96.69,0.0032,0.0082,0.2609,0.0,0.0,0.0,0.9652000000000001,-0.02,-0.176,-5.281
2025-10-27 11:13:01.420,116.0625,-0.002,-0.001,0.0,-0.018000000000000002,0.0,-0.991,10.46,12.07,-96.69,0.0032,0.0082,0.2609,0.0,0.0,0.0,0.9652000000000001,-0.02,-0.176,-5.281
2025-10-27 11:13:01.436,116.065,-0.002,0.0,-0.001,-0.018000000000000002,0.0,-0.99,9.73,13.06,-97.07000000000001,0.0032,0.0082,0.2609,0.0,0.0,0.0,0.9652000000000001,-0.02,-0.176,-5.281
2025-10-27 11:13:01.438,116.145,0.0,0.002,0.0,-0.019,0.0,-0.988,9.120000000000001,12.94,-97.48,0.0031000000000000003,0.0082,0.2609,0.0,0.0,0.0,0.9652000000000001,-0.018000000000000002,-0.176,-5.281
2025-10-27 11:13:01.474,116.1475,0.0,0.001,0.001,-0.018000000000000002,0.0,-0.988,8.76,12.97,-96.55,0.0031000000000000003,0.0082,0.2609,0.0,0.0,0.0,0.9652000000000001,-0.018000000000000002,-0.176,-5.281
2025-10-27 11:13:01.511,116.15,-0.001,0.0,-0.001,-0.017,0.0,-0.99,8.76,12.97,-96.55,0.0031000000000000003,0.0082,0.2609,0.0,0.0,0.0,0.9652000000000001,-0.018000000000000002,-0.17500000000000002,-5.281
2025-10-27 11:13:01.512,116.1525,0.0,-0.002,0.0,-0.02,0.002,-0.988,8.76,12.97,-96.55,0.0032,0.0082,0.2609,0.0,0.0,0.0,0.9652000000000001,-0.019,-0.176,-5.281
2025-10-27 11:13:01.525,116.155,0.001,0.0,0.001,-0.018000000000000002,0.001,-0.99,8.76,12.97,-96.55,0.0032,0.0082,0.2609,0.0,0.0,0.0,0.9652000000000001,-0.019,-0.176,-5.281
2025-10-27 11:13:01.527,116.1575,0.0,0.0,0.001,-0.019,0.0,-0.99,8.76,12.97,-96.55,0.0032,0.0082,0.2609,0.0,0.0,0.0,0.9652000000000001,-0.019,-0.177,-5.281
2025-10-27 11:13:01.529,116.16,0.0,-0.003,0.001,-0.018000000000000002,0.001,-0.988,8.71,13.06,-96.05,0.0032,0.0082,0.2609,0.0,-0.00030000000000000003,0.0001,0.9652000000000001,-0.019,-0.177,-5.281
2025-10-27 11:13:01.540,116.1625,0.002,0.0,0.0,-0.019,0.0,-0.99,8.71,13.06,-96.05,0.0032,0.0083,0.2609,0.0,0.0,0.0,0.9652000000000001,-0.019,-0.177,-5.281
2025-10-27 11:13:01.542,116.165,0.0,-0.002,-0.001,-0.019,0.0,-0.988,8.71,13.06,-96.05,0.0032,0.0083,0.2609,0.0,0.0,0.0,0.9652000000000001,-0.019,-0.177,-5.281
2025-10-27 11:13:01.544,116.1675,0.001,0.0,-0.001,-0.019,0.0,-0.988,8.71,13.06,-96.05,0.0032,0.0083,0.2609,0.0,0.0,0.0,0.9652000000000001,-0.019,-0.177,-5.281
2025-10-27 11:13:01.555,116.17,0.002,0.001,0.001,-0.018000000000000002,0.0,-0.987,8.71,13.06,-96.05,0.0032,0.0083,0.2609,0.0,0.0,0.0,0.9652000000000001,-0.018000000000000002,-0.177,-5.281
2025-10-27 11:13:01.558,116.1725,0.0,-0.001,0.001,-0.019,0.0,-0.989,8.65,12.39,-96.28,0.0032,0.0083,0.2609,0.0,0.0,0.0,0.9652000000000001,-0.018000000000000002,-0.178,-5.281
2025-10-27 11:13:01.571,116.175,0.001,-0.002,0.0,-0.017,0.0,-0.99,8.65,12.39,-96.28,0.0031000000000000003,0.0083,0.2609,0.0,0.0,0.0,0.9652000000000001,-0.018000000000000002,-0.177,-5.281
2025-10-27 11:13:01.573,116.1775,-0.002,0.0,-0.001,-0.018000000000000002,0.0,-0.992,8.65,12.39,-96.28,0.0031000000000000003,0.0083,0.2609,0.0,0.0,0.0,0.9652000000000001,-0.017,-0.177,-5.281
2025-10-27 11:13:01.575,116.18,-0.001,0.0,0.001,-0.018000000000000002,0.0,-0.987,8.65,12.39,-96.28,0.0031000000000000003,0.0083,0.2609,0.0,0.0,0.0,0.9652000000000001,-0.017,-0.177,-5.281
2025-10-27 11:13:01.586,116.1825,0.0,0.0,0.001,-0.018000000000000002,0.0,-0.988,8.65,12.39,-96.28,0.0031000000000000003,0.0083,0.2609,0.0,0.0,0.0,0.9652000000000001,-0.017,-0.177,-5.281
2025-10-27 11:13:01.588,116.185,-0.001,0.002,0.0,-0.019,0.0,-0.989,10.31,12.24,-96.93,0.0031000000000000003,0.0083,0.2609,0.0,0.0,0.0,0.9652000000000001,-0.017,-0.177,-5.281
2025-10-27 11:13:01.589,116.275,-0.001,-0.001,0.0,-0.017,0.001,-0.988,8.91,12.89,-96.69,0.0032,0.0082,0.2609,0.0,0.0,0.0,0.9652000000000001,-0.019,-0.176,-5.281
2025-10-27 11:13:01.624,116.2775,0.0,0.001,-0.001,-0.017,0.0,-0.987,8.91,12.89,-96.69,0.0032,0.0082,0.2609,0.0,0.0,0.0,0.9652000000000001,-0.019,-0.176,-5.281
2025-10-27 11:13:01.683,116.28,-0.001,0.001,0.0,-0.018000000000000002,0.0,-0.989,8.91,13.120000000000001,-96.55,0.0032,0.0082,0.2609,0.0,0.0,0.0,0.9652000000000001,-0.019,-0.176,-5.281
2025-10-27 11:13:01.802,116.2825,0.001,-0.001,-0.002,-0.019,0.0,-0.99,8.91,13.120000000000001,-96.55,0.0032,0.0082,0.2609,0.0,0.0,0.0,0.9652000000000001,-0.018000000000000002,-0.176,-5.281
2025-10-27 11:13:01.863,116.285,0.002,-0.001,-0.002,-0.018000000000000002,0.0,-0.99,8.91,13.120000000000001,-96.55,0.0032,0.0082,0.2609,0.0,0.0,0.0,0.9652000000000001,-0.018000000000000002,-0.176,-5.281
2025-10-27 11:13:01.982,116.2875,-0.001,-0.003,0.001,-0.017,-0.001,-0.989,8.91,13.120000000000001,-96.55,0.0032,0.0082,0.2609,-0.0001,-0.00030000000000000003,0.0001,0.9652000000000001,-0.018000000000000002,-0.176,-5.281
2025-10-27 11:13:02.043,116.29,-0.001,-0.001,0.0,-0.018000000000000002,0.003,-0.988,8.91,13.120000000000001,-96.55,0.0032,0.0082,0.2609,0.0,0.0,0.0,0.9652000000000001,-0.019,-0.176,-5.281
2025-10-27 11:13:02.162,116.2925,-0.001,0.001,0.0,-0.017,0.001,-0.988,10.23,11.86,-96.98,0.0032,0.0082,0.2609,0.0,0.0,0.0,0.9652000000000001,-0.02,-0.176,-5.281
2025-10-27 11:13:02.222,116.295,0.0,0.0,0.0,-0.018000000000000002,0.001,-0.986,10.23,11.86,-96.98,0.0032,0.0082,0.2609,0.0,0.0,0.0,0.9652000000000001,-0.02,-0.176,-5.281
2025-10-27 11:13:02.283,116.2975,0.0,0.001,0.002,-0.017,0.0,-0.989,10.23,11.86,-96.98,0.0032,0.0082,0.2609,0.0,0.0,0.0,0.9652000000000001,-0.019,-0.17500000000000002,-5.281
2025-10-27 11:13:02.462,116.3,-0.001,0.001,0.002,-0.018000000000000002,0.0,-0.987,10.23,11.86,-96.98,0.0032,0.0082,0.2609,0.0,0.0,0.0,0.9652000000000001,-0.019,-0.17500000000000002,-5.281
2025-10-27 11:13:02.523,116.3025,0.0,0.0,0.0,-0.019,0.0,-0.99,10.23,11.86,-96.98,0.0032,0.0082,0.2609,0.0,0.0,0.0,0.9652000000000001,-0.019,-0.176,-5.281
2025-10-27 11:13:02.643,116.305,-0.001,-0.002,-0.002,-0.019,0.0,-0.989,10.55,12.040000000000001,-97.10000000000001,0.0032,0.0082,0.2609,0.0,0.0,0.0,0.9652000000000001,-0.018000000000000002,-0.176,-5.281
2025-10-27 11:13:02.703,116.3075,-0.002,0.0,0.001,-0.019,0.001,-0.991,10.55,12.040000000000001,-97.10000000000001,0.0032,0.0082,0.2609,0.0,0.0,0.0,0.9652000000000001,-0.019,-0.177,-5.281
2025-10-27 11:13:02.822,116.31,0.001,0.001,0.0,-0.019,0.0,-0.99,10.55,12.040000000000001,-97.10000000000001,0.0032,0.0083,0.2609,0.0,0.0,0.0,0.9652000000000001,-0.018000000000000002,-0.177,-5.281
2025-10-27 11:13:02.883,116.3125,0.002,0.0,-0.001,-0.019,0.001,-0.988,10.55,12.040000000000001,-97.10000000000001,0.0032,0.0083,0.2609,0.0,0.0,0.0,0.9652000000000001,-0.019,-0.177,-5.281
2025-10-27 11:13:03.002,116.315,0.002,0.001,-0.001,-0.018000000000000002,0.001,-0.987,8.82,12.86,-97.71000000000001,0.0032,0.0083,0.2609,0.0,0.0,0.0,0.9652000000000001,-0.019,-0.177,-5.281
2025-10-27 11:13:03.062,116.4575,-0.003,0.0,-0.001,-0.019,0.0,-0.989,8.82,13.030000000000001,-96.11,0.0031000000000000003,0.008400000000000001,0.261,-0.00030000000000000003,0.0,-0.0001,0.9652000000000001,-0.016,-0.179,-5.281
2025-10-27 11:13:03.182,116.46,-0.002,-0.001,0.001,-0.019,0.001,-0.988,8.76,12.3,-95.55,0.0031000000000000003,0.008400000000000001,0.2609,0.0,0.0,0.0,0.9652000000000001,-0.017,-0.179,-5.281
2025-10-27 11:13:03.243,116.4625,0.0,-0.001,0.0,-0.019,0.001,-0.987,8.76,12.3,-95.55,0.0031000000000000003,0.008400000000000001,0.2609,0.0,0.0,0.0,0.9652000000000001,-0.017,-0.179,-5.281
2025-10-27 11:13:03.362,116.465,0.0,0.003,0.0,-0.018000000000000002,0.0,-0.986,8.76,12.3,-95.55,0.0031000000000000003,0.008400000000000001,0.2609,0.0,0.0,0.0,0.9652000000000001,-0.017,-0.179,-5.281
2025-10-27 11:13:03.422,116.4675,-0.001,0.001,0.001,-0.019,0.002,-0.989,8.76,12.3,-95.55,0.0032,0.008400000000000001,0.2609,0.0,0.0,0.0,0.9652000000000001,-0.018000000000000002,-0.179,-5.281
2025-10-27 11:13:03.544,116.47,-0.001,-0.002,0.001,-0.019,0.0,-0.988,8.76,12.3,-95.55,0.0032,0.008400000000000001,0.2609,0.0,0.0,0.0,0.9652000000000001,-0.018000000000000002,-0.179,-5.281
2025-10-27 11:13:03.663,116.4725,-0.001,0.002,0.002,-0.018000000000000002,0.0,-0.988,10.66,11.8,-96.69,0.0032,0.008400000000000001,0.2609,0.0,0.0,0.0,0.9652000000000001,-0.018000000000000002,-0.179,-5.281
2025-10-27 11:13:03.783,116.475,0.0,0.0,0.0,-0.018000000000000002,0.0,-0.989,10.66,11.8,-96.69,0.0032,0.008400000000000001,0.2609,0.0,0.0,0.0,0.9652000000000001,-0.018000000000000002,-0.179,-5.281
2025-10-27 11:13:03.842,116.4775,0.001,0.0,0.001,-0.018000000000000002,0.0,-0.989,10.66,11.8,-96.69,0.0032,0.008400000000000001,0.2609,0.0,0.0,0.0,0.9652000000000001,-0.018000000000000002,-0.179,-5.281
2025-10-27 11:13:04.023,116.48,0.002,-0.001,0.0,-0.017,0.001,-0.988,10.66,11.8,-96.69,0.0032,0.0083,0.2609,0.0,0.0,0.0,0.9652000000000001,-0.018000000000000002,-0.178,-5.281
2025-10-27 11:13:04.082,116.4825,0.001,0.0,0.001,-0.019,-0.001,-0.989,10.14,12.51,-96.9,0.0031000000000000003,0.0083,0.2609,0.0,0.0,0.0,0.9652000000000001,-0.017,-0.178,-5.281
2025-10-27 11:13:04.203,116.485,-0.001,-0.001,0.0,-0.016,0.0,-0.991,10.14,12.51,-96.9,0.0031000000000000003,0.0083,0.2609,0.0,0.0,0.0,0.9652000000000001,-0.016,-0.177,-5.281
2025-10-27 11:13:04.262,116.4875,0.0,0.001,0.001,-0.017,0.001,-0.989,10.14,12.51,-96.9,0.0031000000000000003,0.0083,0.2609,0.0,0.0,0.0,0.9652000000000001,-0.017,-0.177,-5.281
2025-10-27 11:13:04.323,116.49,0.001,0.0,-0.001,-0.015,-0.001,-0.988,10.14,12.51,-96.9,0.003,0.0082,0.261,0.0,0.0,0.0,0.9652000000000001,-0.016,-0.17500000000000002,-5.281
2025-10-27 11:13:04.442,116.4925,0.001,0.001,0.0,-0.018000000000000002,0.0,-0.988,10.14,12.51,-96.9,0.003,0.0082,0.2609,0.0,0.0,0.0,0.9652000000000001,-0.015,-0.17500000000000002,-5.281
2025-10-27 11:13:04.502,116.495,0.001,0.002,0.0,-0.019,0.002,-0.989,8.59,13.030000000000001,-97.31,0.0031000000000000003,0.0082,0.261,0.0,0.0,0.0,0.9652000000000001,-0.016,-0.17500000000000002,-5.281
2025-10-27 11:13:04.623,116.4975,0.002,0.0,0.001,-0.016,0.0,-0.989,8.59,13.030000000000001,-97.31,0.003,0.0082,0.261,0.0,0.0,0.0,0.9652000000000001,-0.016,-0.17500000000000002,-5.281
2025-10-27 11:13:04.683,116.5175,0.001,0.0,0.001,-0.018000000000000002,0.001,-0.992,8.47,12.74,-97.07000000000001,0.0031000000000000003,0.0081,0.261,0.0,0.0,0.0,0.9652000000000001,-0.018000000000000002,-0.17400000000000002,-5.281
2025-10-27 11:13:04.803,116.52,0.0,-0.003,-0.001,-0.018000000000000002,0.0,-0.99,8.620000000000001,12.71,-96.75,0.0031000000000000003,0.0081,0.261,0.0,-0.00030000000000000003,-0.0001,0.9652000000000001,-0.018000000000000002,-0.17400000000000002,-5.281
2025-10-27 11:13:04.863,116.5225,0.0,0.0,0.0,-0.017,0.0,-0.989,8.620000000000001,12.71,-96.75,0.0031000000000000003,0.0081,0.261,0.0,0.0,0.0,0.9652000000000001,-0.018000000000000002,-0.17400000000000002,-5.281
2025-10-27 11:13:05.043,116.525,0.001,-0.002,0.0,-0.017,0.0,-0.99,8.620000000000001,12.71,-96.75,0.0031000000000000003,0.0081,0.261,0.0,0.0,0.0,0.9652000000000001,-0.018000000000000002,-0.17300000000000001,-5.281
2025-10-27 11:13:05.102,116.5275,0.0,0.001,0.0,-0.019,0.0,-0.988,8.620000000000001,12.71,-96.75,0.0031000000000000003,0.0081,0.261,0.0,0.0,0.0,0.9652000000000001,-0.018000000000000002,-0.17400000000000002,-5.281
2025-10-27 11:13:05.222,116.53,0.0,0.002,-0.001,-0.017,0.001,-0.99,8.620000000000001,12.71,-96.75,0.0031000000000000003,0.0081,0.261,0.0,0.0,0.0,0.9652000000000001,-0.018000000000000002,-0.17300000000000001,-5.281
2025-10-27 11:13:05.283,116.5325,0.001,-0.002,-0.001,-0.019,0.0,-0.989,8.41,13.21,-97.10000000000001,0.0031000000000000003,0.0081,0.261,0.0,0.0,0.0,0.9652000000000001,-0.018000000000000002,-0.17400000000000002,-5.281
2025-10-27 11:13:05.402,116.535,0.001,0.001,-0.001,-0.017,0.002,-0.989,8.41,13.21,-97.10000000000001,0.0031000000000000003,0.0081,0.261,0.0,0.0,0.0,0.9652000000000001,-0.019,-0.17300000000000001,-5.281
2025-10-27 11:13:05.463,116.5375,0.001,0.001,0.001,-0.018000000000000002,0.0,-0.988,8.41,13.21,-97.10000000000001,0.0031000000000000003,0.0081,0.261,0.0,0.0,0.0,0.9652000000000001,-0.019,-0.17400000000000002,-5.281
2025-10-27 11:13:05.582,116.54,0.0,0.002,-0.001,-0.018000000000000002,0.001,-0.987,8.41,13.21,-97.10000000000001,0.0032,0.0081,0.261,0.0,0.0,0.0,0.9652000000000001,-0.019,-0.17400000000000002,-5.281
2025-10-27 11:13:05.643,116.5425,-0.001,0.001,0.001,-0.018000000000000002,0.002,-0.989,8.620000000000001,13.38,-96.14,0.0032,0.0081,0.261,0.0,0.0,0.0,0.9652000000000001,-0.02,-0.17400000000000002,-5.281
2025-10-27 11:13:05.763,116.545,0.0,-0.001,0.001,-0.018000000000000002,0.0,-0.988,8.620000000000001,13.38,-96.14,0.0032,0.0081,0.261,0.0,0.0,0.0,0.9652000000000001,-0.02,-0.17400000000000002,-5.281
2025-10-27 11:13:05.883,116.5475,-0.001,-0.001,0.001,-0.018000000000000002,0.0,-0.989,8.620000000000001,13.38,-96.14,0.0032,0.0081,0.261,0.0,0.0,0.0,0.9652000000000001,-0.019,-0.17400000000000002,-5.281
2025-10-27 11:13:05.943,116.55,0.0,0.0,-0.002,-0.018000000000000002,0.0,-0.988,8.620000000000001,13.38,-96.14,0.0032,0.0081,0.261,0.0,0.0,0.0,0.9652000000000001,-0.019,-0.17400000000000002,-5.281
2025-10-27 11:13:06.063,116.5525,0.0,-0.001,-0.001,-0.018000000000000002,0.0,-0.989,8.620000000000001,13.38,-96.14,0.0031000000000000003,0.0081,0.261,0.0,0.0,0.0,0.9652000000000001,-0.018000000000000002,-0.17400000000000002,-5.281
2025-10-27 11:13:06.242,116.555,0.001,-0.001,-0.001,-0.02,0.0,-0.989,8.38,12.74,-96.43,0.0031000000000000003,0.0082,0.261,0.0,0.0,0.0,0.9652000000000001,-0.018000000000000002,-0.17500000000000002,-5.281
2025-10-27 11:13:06.302,116.5575,0.0,-0.001,0.0,-0.018000000000000002,0.001,-0.99,8.38,12.74,-96.43,0.0031000000000000003,0.0082,0.261,0.0,0.0,0.0,0.9652000000000001,-0.018000000000000002,-0.17500000000000002,-5.281
2025-10-27 11:13:06.363,118.1125,-0.001,0.001,0.0,-0.019,-0.001,-0.987,8.68,12.36,-96.4,0.003,0.008400000000000001,0.2609,0.0,0.0,0.0,0.9653,-0.014,-0.179,-5.28
2025-10-27 11:13:06.482,118.115,0.0,0.001,-0.002,-0.018000000000000002,0.0,-0.987,8.68,12.36,-96.4,0.003,0.008400000000000001,0.2609,0.0,0.0,0.0,0.9653,-0.014,-0.178,-5.28
2025-10-27 11:13:06.543,118.1175,0.001,0.0,-0.002,-0.016,0.001,-0.986,8.68,12.36,-96.4,0.003,0.0083,0.2609,0.0,0.0,0.0,0.9653,-0.015,-0.178,-5.28
2025-10-27 11:13:06.663,118.12,0.002,0.001,0.0,-0.018000000000000002,0.0,-0.985,8.68,12.36,-96.4,0.003,0.0083,0.2609,0.0,0.0,0.0,0.9653,-0.015,-0.178,-5.28
2025-10-27 11:13:06.782,118.1225,0.001,-0.002,0.0,-0.018000000000000002,0.001,-0.99,8.68,12.36,-96.4,0.0031000000000000003,0.0083,0.2609,0.0,0.0,0.0,0.9653,-0.016,-0.177,-5.28
2025-10-27 11:13:06.843,118.125,0.0,0.001,-0.002,-0.019,-0.001,-0.991,8.790000000000001,13.0,-96.98,0.003,0.0083,0.2609,0.0,0.0,0.0,0.9653,-0.015,-0.178,-5.28
2025-10-27 11:13:06.963,118.1275,0.002,-0.001,0.003,-0.016,0.0,-0.988,8.790000000000001,13.0,-96.98,0.003,0.0083,0.2609,0.0002,-0.0001,0.00030000000000000003,0.9653,-0.015,-0.178,-5.28
2025-10-27 11:13:07.023,118.13,0.0,0.0,0.0,-0.017,0.0,-0.989,8.790000000000001,13.0,-96.98,0.003,0.0083,0.2609,0.0,0.0,0.0,0.9653,-0.015,-0.177,-5.28
2025-10-27 11:13:07.143,118.1325,0.001,0.001,0.0,-0.018000000000000002,0.0,-0.987,8.790000000000001,13.0,-96.98,0.003,0.0083,0.2609,0.0,0.0,0.0,0.9653,-0.014,-0.177,-5.28
2025-10-27 11:13:07.202,118.135,-0.001,0.0,0.0,-0.019,0.0,-0.989,8.790000000000001,13.0,-96.98,0.003,0.0083,0.2609,0.0,0.0,0.0,0.9653,-0.014,-0.177,-5.28
2025-10-27 11:13:07.323,118.1375,0.001,-0.001,0.0,-0.017,0.001,-0.986,8.88,12.97,-96.14,0.003,0.0083,0.2609,0.0,0.0,0.0,0.9653,-0.014,-0.177,-5.28
2025-10-27 11:13:07.383,118.14,0.001,-0.002,0.0,-0.017,0.001,-0.987,8.88,12.97,-96.14,0.003,0.0083,0.2609,0.0,0.0,0.0,0.9653,-0.015,-0.177,-5.28
2025-10-27 11:13:07.503,118.1425,0.001,-0.001,-0.003,-0.018000000000000002,0.0,-0.988,8.88,12.97,-96.14,0.003,0.0083,0.2609,0.0,0.0,0.0,0.9653,-0.015,-0.176,-5.28
2025-10-27 11:13:07.563,118.145,-0.002,0.0,0.0,-0.018000000000000002,0.0,-0.989,8.88,12.97,-96.14,0.003,0.0083,0.2609,0.0,0.0,0.0,0.9653,-0.015,-0.176,-5.28
2025-10-27 11:13:07.682,118.1475,0.0,0.0,0.001,-0.018000000000000002,0.0,-0.99,8.620000000000001,12.89,-96.87,0.003,0.0083,0.2609,0.0,0.0,0.0,0.9653,-0.014,-0.176,-5.28
2025-10-27 11:13:07.803,118.15,0.001,0.0,0.0,-0.017,0.0,-0.989,8.620000000000001,12.89,-96.87,0.003,0.0083,0.2609,0.0,0.0,0.0,0.9653,-0.014,-0.176,-5.28
2025-10-27 11:13:07.863,118.1525,-0.001,0.001,0.001,-0.019,0.0,-0.988,8.620000000000001,12.89,-96.87,0.003,0.0083,0.2609,0.0,0.0,0.0,0.9653,-0.015,-0.176,-5.28
2025-10-27 11:13:07.983,119.8525,0.0,0.0,0.0,-0.02,0.002,-0.989,9.52,13.030000000000001,-96.37,0.0031000000000000003,0.0083,0.2609,0.0,0.0,0.0,0.9653,-0.017,-0.177,-5.28
2025-10-27 11:13:08.043,119.855,0.0,0.003,-0.002,-0.018000000000000002,0.0,-0.988,9.52,13.030000000000001,-96.37,0.0031000000000000003,0.0083,0.2609,0.0,0.0,0.0,0.9653,-0.017,-0.176,-5.28
2025-10-27 11:13:08.163,119.8575,0.001,0.0,-0.002,-0.017,0.0,-0.986,9.52,13.030000000000001,-96.37,0.0031000000000000003,0.0082,0.2609,0.0,0.0,0.0,0.9653,-0.017,-0.176,-5.28
2025-10-27 11:13:08.222,119.86,-0.001,0.003,0.001,-0.018000000000000002,-0.001,-0.989,9.52,13.030000000000001,-96.37,0.003,0.0082,0.2609,0.0,0.0,0.0,0.9653,-0.016,-0.176,-5.28
2025-10-27 11:13:08.283,119.8625,-0.001,0.002,0.0,-0.018000000000000002,0.0,-0.988,8.53,12.94,-96.69,0.003,0.0083,0.2609,0.0,0.0,0.0,0.9653,-0.016,-0.176,-5.28
2025-10-27 11:13:08.403,119.865,0.0,-0.002,0.0,-0.019,0.0,-0.989,8.53,12.94,-96.69,0.003,0.0083,0.2609,0.0,0.0,0.0,0.9653,-0.016,-0.176,-5.28
2025-10-27 11:13:08.463,119.8675,-0.001,0.0,-0.002,-0.02,0.0,-0.99,8.53,12.94,-96.69,0.003,0.0083,0.2609,0.0,0.0,0.0,0.9653,-0.016,-0.177,-5.28
2025-10-27 11:13:08.582,119.87,0.001,0.0,-0.002,-0.018000000000000002,0.0,-0.988,8.53,12.94,-96.69,0.003,0.0083,0.2609,0.0,0.0,0.0,0.9653,-0.016,-0.177,-5.28
2025-10-27 11:13:08.643,119.8725,0.0,0.0,0.0,-0.02,0.001,-0.989,8.27,13.120000000000001,-95.87,0.0031000000000000003,0.0083,0.2609,0.0,0.0,0.0,0.9653,-0.016,-0.178,-5.28
2025-10-27 11:13:08.762,119.875,0.0,0.001,0.0,-0.019,0.0,-0.986,8.27,13.120000000000001,-95.87,0.0031000000000000003,0.0083,0.2609,0.0,0.0,0.0,0.9653,-0.016,-0.178,-5.279
2025-10-27 11:13:08.822,119.8775,0.0,-0.001,0.0,-0.018000000000000002,0.0,-0.987,8.27,13.120000000000001,-95.87,0.0031000000000000003,0.0083,0.2609,0.0,0.0,0.0,0.9653,-0.016,-0.178,-5.279
