System_Time,Timestamp,device_id,Gyro_X,Gyro_Y,Gyro_Z,Acc_X,Acc_Y,Acc_Z,Mag_X,Mag_Y,Mag_Z,Quat_W,Quat_X,Quat_Y,Quat_Z,Linear_Acc_X,Linear_Acc_Y,Linear_Acc_Z
2026-01-05 21:26:47.317,254.89,0.0,0.0,0.0,-0.016,-0.014,-0.985,46.94,76.14,33.730000000000004,0.9949,0.0055000000000000005,-0.0027,-0.1003,0.0,0.0,-0.006
2026-01-05 21:26:47.321,254.895,-0.001,0.0,0.0,-0.015,-0.014,-0.988,46.5,76.08,33.79,0.9949,0.0055000000000000005,-0.0027,-0.1003,-0.001,0.0,-0.003
2026-01-05 21:26:47.321,254.9,0.0,0.004,0.0,-0.017,-0.014,-0.987,46.5,76.08,33.79,0.9949,0.0055000000000000005,-0.0027,-0.1003,0.001,0.0,-0.004
2026-01-05 21:26:47.322,254.905,0.0,0.004,0.0,-0.016,-0.014,-0.985,47.03,76.17,34.25,0.9949,0.0055000000000000005,-0.0027,-0.1003,0.0,0.0,-0.005
2026-01-05 21:26:47.322,254.91,0.001,0.0,0.0,-0.015,-0.014,-0.986,47.03,76.17,34.25,0.9949,0.0055000000000000005,-0.0027,-0.1003,-0.001,0.0,-0.005
2026-01-05 21:26:47.323,254.915,0.003,0.0,0.0,-0.016,-0.015,-0.988,47.03,76.17,34.25,0.9949,0.0055000000000000005,-0.0027,-0.1003,0.0,0.001,-0.003
2026-01-05 21:26:47.323,254.92,0.001,-0.003,0.0,-0.015,-0.013000000000000001,-0.988,46.38,76.32000000000001,33.38,0.9949,0.0055000000000000005,-0.0027,-0.1004,0.0,0.0,-0.003
2026-01-05 21:26:47.324,254.925,0.0,0.001,0.0,-0.015,-0.014,-0.986,46.38,76.32000000000001,33.38,0.9949,0.0055000000000000005,-0.0027,-0.1004,-0.001,0.0,-0.005
2026-01-05 21:26:47.333,254.93,-0.001,0.001,0.0,-0.017,-0.014,-0.985,46.38,76.32000000000001,33.38,0.9949,0.0055000000000000005,-0.0027,-0.1004,0.0,0.0,-0.006
2026-01-05 21:26:47.334,254.935,0.0,0.002,0.0,-0.016,-0.014,-0.987,46.79,75.94,33.55,0.9949,0.0055000000000000005,-0.0027,-0.1004,0.0,0.0,-0.004
2026-01-05 21:26:47.337,254.94,0.002,0.006,0.0,-0.015,-0.016,-0.988,46.79,75.94,33.55,0.9949,0.0055000000000000005,-0.0028,-0.1004,0.0,0.001,-0.003
2026-01-05 21:26:47.338,254.945,0.0,0.001,-0.001,-0.018000000000000002,-0.014,-0.988,46.44,75.65,34.25,0.9949,0.0055000000000000005,-0.0028,-0.1004,0.001,0.0,-0.003
2026-01-05 21:26:47.338,254.95,0.0,0.0,0.002,-0.015,-0.014,-0.985,46.44,75.65,34.25,0.9949,0.0055000000000000005,-0.0028,-0.1004,-0.001,0.0,-0.005
2026-01-05 21:26:47.338,254.955,-0.001,-0.004,0.0,-0.016,-0.014,-0.985,46.44,75.65,34.25,0.9949,0.0055000000000000005,-0.0028,-0.1004,0.0,0.0,-0.006
2026-01-05 21:26:47.339,254.96,0.0,-0.001,0.001,-0.017,-0.015,-0.986,46.21,76.14,33.03,0.9949,0.0055000000000000005,-0.0027,-0.1004,0.0,0.0,-0.005
2026-01-05 21:26:47.343,254.965,-0.002,0.0,0.0,-0.017,-0.014,-0.987,46.21,76.14,33.03,0.9949,0.0055000000000000005,-0.0027,-0.1004,0.0,0.0,-0.004
2026-01-05 21:26:47.344,254.97,0.001,0.0,0.0,-0.016,-0.016,-0.985,46.33,75.41,33.99,0.9949,0.0055000000000000005,-0.0027,-0.1004,0.0,0.002,-0.005
2026-01-05 21:26:47.344,254.975,0.0,0.002,0.0,-0.015,-0.013000000000000001,-0.985,46.33,75.41,33.99,0.9949,0.0055000000000000005,-0.0028,-0.1004,-0.001,-0.001,-0.006
2026-01-05 21:26:47.344,254.98,-0.002,-0.002,0.0,-0.016,-0.014,-0.986,46.33,75.41,33.99,0.9949,0.0055000000000000005,-0.0027,-0.1004,0.0,0.0,-0.005
2026-01-05 21:26:47.344,254.985,0.0,0.0,0.0,-0.017,-0.016,-0.987,45.95,76.05,34.31,0.9949,0.0055000000000000005,-0.0027,-0.1004,0.0,0.001,-0.004
2026-01-05 21:26:47.349,254.99,0.0,0.002,0.0,-0.017,-0.014,-0.986,45.95,76.05,34.31,0.9949,0.0055000000000000005,-0.0028,-0.1004,0.0,0.0,-0.005
2026-01-05 21:26:47.350,287.795,-0.269,1.5250000000000001,-1.092,-0.014,-0.016,-0.986,46.15,74.83,33.7,0.9951000000000001,0.0066,-0.0066,-0.09770000000000001,0.002,0.002,-0.005
2026-01-05 21:26:47.350,287.8,-1.096,5.069,-3.8360000000000003,-0.015,-0.018000000000000002,-0.987,-44.28,-46.82,36.36,0.9958,0.010700000000000001,-0.0189,-0.0883,0.024,0.009000000000000001,-0.003
2026-01-05 21:26:47.351,287.805,-0.5730000000000001,3.056,-2.359,-0.015,-0.016,-0.985,-44.28,-46.82,36.36,0.9961000000000001,0.0129,-0.0264,-0.0825,0.046,0.013000000000000001,-0.004
2026-01-05 21:26:47.351,287.81,0.265,-0.3,0.18,-0.015,-0.017,-0.982,-43.67,-47.64,36.39,0.9961000000000001,0.012100000000000001,-0.0257,-0.0829,0.045,0.013000000000000001,-0.007
2026-01-05 21:26:47.354,287.815,0.066,-0.07100000000000001,0.042,-0.013000000000000001,-0.017,-0.982,-43.67,-47.64,36.39,0.9961000000000001,0.0119,-0.025500000000000002,-0.083,0.043000000000000003,0.011,-0.007
2026-01-05 21:26:47.354,287.82,0.002,0.002,0.002,-0.014,-0.016,-0.988,-43.67,-47.64,36.39,0.9961000000000001,0.0119,-0.025400000000000002,-0.083,0.043000000000000003,0.011,-0.002
2026-01-05 21:26:47.356,287.825,0.001,0.004,0.0,-0.015,-0.017,-0.987,-44.37,-46.82,35.86,0.9961000000000001,0.0118,-0.0253,-0.083,0.044,0.011,-0.002
2026-01-05 21:26:47.356,287.83,0.0,0.003,0.0,-0.015,-0.018000000000000002,-0.986,-44.37,-46.82,35.86,0.9961000000000001,0.0118,-0.0252,-0.083,0.044,0.012,-0.004
2026-01-05 21:26:47.357,287.835,0.002,0.0,0.0,-0.014,-0.016,-0.983,-44.19,-45.86,35.95,0.9961000000000001,0.0118,-0.0252,-0.083,0.042,0.01,-0.006
2026-01-05 21:26:47.357,287.84,-0.001,0.0,0.0,-0.015,-0.016,-0.985,-44.19,-45.86,35.95,0.9961000000000001,0.0118,-0.0251,-0.083,0.043000000000000003,0.01,-0.004
2026-01-05 21:26:47.357,287.845,0.001,0.0,0.0,-0.015,-0.018000000000000002,-0.989,-44.19,-45.86,35.95,0.9961000000000001,0.0117,-0.024900000000000002,-0.083,0.044,0.012,-0.001
2026-01-05 21:26:47.358,287.85,0.0,0.006,0.0,-0.014,-0.017,-0.986,-44.6,-46.06,36.74,0.9961000000000001,0.0117,-0.024900000000000002,-0.083,0.042,0.011,-0.003
2026-01-05 21:26:47.358,287.855,0.0,0.005,0.001,-0.014,-0.017,-0.984,-44.6,-46.06,36.74,0.9961000000000001,0.0117,-0.024800000000000003,-0.083,0.042,0.011,-0.005
2026-01-05 21:26:47.358,287.86,0.0,-0.001,0.002,-0.014,-0.016,-0.986,-44.89,-46.06,36.15,0.9961000000000001,0.011600000000000001,-0.0247,-0.083,0.042,0.01,-0.003
2026-01-05 21:26:47.359,287.865,0.0,-0.002,0.0,-0.015,-0.017,-0.989,-44.89,-46.06,36.15,0.9961000000000001,0.0115,-0.024300000000000002,-0.0829,0.042,0.011,0.0
2026-01-05 21:26:47.359,287.87,-0.001,-0.001,0.001,-0.015,-0.016,-0.988,-44.89,-46.06,36.15,0.9961000000000001,0.0114,-0.024,-0.0829,0.042,0.01,-0.001
2026-01-05 21:26:47.359,287.875,0.0,0.004,0.001,-0.015,-0.017,-0.986,-45.07,-46.24,36.18,0.9961000000000001,0.0114,-0.024,-0.0829,0.042,0.01,-0.004
2026-01-05 21:26:47.360,287.88,0.0,0.001,0.0,-0.014,-0.015,-0.985,-45.07,-46.24,36.18,0.9961000000000001,0.0114,-0.0239,-0.0829,0.04,0.009000000000000001,-0.004
2026-01-05 21:26:47.360,287.885,0.0,0.002,0.0,-0.014,-0.017,-0.988,-44.92,-45.89,35.980000000000004,0.9962000000000001,0.011300000000000001,-0.0238,-0.0829,0.04,0.01,-0.002
2026-01-05 21:26:47.360,287.89,0.0,0.005,0.0,-0.015,-0.016,-0.987,-44.92,-45.89,35.980000000000004,0.9962000000000001,0.011300000000000001,-0.023700000000000002,-0.0829,0.041,0.01,-0.002
2026-01-05 21:26:47.360,287.895,0.002,0.001,0.0,-0.015,-0.016,-0.986,-44.92,-45.89,35.980000000000004,0.9962000000000001,0.0112,-0.0236,-0.0829,0.04,0.009000000000000001,-0.003
2026-01-05 21:26:47.361,287.9,0.0,-0.001,0.0,-0.014,-0.017,-0.985,-43.75,-45.6,35.92,0.9962000000000001,0.0112,-0.0236,-0.0829,0.039,0.011,-0.005
2026-01-05 21:26:47.361,287.905,-0.001,0.0,0.0,-0.015,-0.017,-0.988,-43.75,-45.6,35.92,0.9962000000000001,0.0111,-0.0234,-0.0829,0.04,0.01,-0.002
2026-01-05 21:26:47.361,287.91,0.0,0.0,0.0,-0.015,-0.017,-0.99,-44.13,-45.980000000000004,36.21,0.9962000000000001,0.011000000000000001,-0.023,-0.0829,0.039,0.01,0.0
2026-01-05 21:26:47.373,287.915,0.0,0.002,0.0,-0.015,-0.017,-0.987,-44.13,-45.980000000000004,36.21,0.9962000000000001,0.011000000000000001,-0.0229,-0.0829,0.039,0.009000000000000001,-0.003
2026-01-05 21:26:47.374,287.92,0.003,0.004,0.0,-0.015,-0.015,-0.984,-44.13,-45.980000000000004,36.21,0.9962000000000001,0.011000000000000001,-0.0229,-0.0829,0.039,0.008,-0.006
2026-01-05 21:26:47.374,287.925,0.0,-0.004,-0.001,-0.014,-0.017,-0.989,-44.63,-46.0,36.53,0.9962000000000001,0.0109,-0.0227,-0.0828,0.038,0.01,-0.001
2026-01-05 21:26:47.376,287.93,-0.001,-0.004,0.0,-0.015,-0.018000000000000002,-0.988,-44.63,-46.0,36.53,0.9962000000000001,0.0108,-0.022500000000000003,-0.0828,0.039,0.01,-0.002
2026-01-05 21:26:47.377,287.935,0.0,0.0,0.0,-0.015,-0.016,-0.986,-43.84,-45.54,35.74,0.9962000000000001,0.0108,-0.0224,-0.0828,0.038,0.009000000000000001,-0.003
2026-01-05 21:26:47.378,287.94,0.0,-0.001,0.001,-0.014,-0.017,-0.985,-43.84,-45.54,35.74,0.9962000000000001,0.0108,-0.0224,-0.0828,0.037,0.01,-0.004
2026-01-05 21:26:47.379,287.945,0.0,0.001,0.0,-0.014,-0.018000000000000002,-0.986,-43.84,-45.54,35.74,0.9962000000000001,0.0108,-0.0223,-0.0828,0.037,0.011,-0.004
2026-01-05 21:26:47.379,287.95,0.001,0.002,-0.001,-0.015,-0.017,-0.989,-44.25,-45.86,36.300000000000004,0.9962000000000001,0.010700000000000001,-0.0221,-0.0828,0.038,0.01,0.0
2026-01-05 21:26:47.379,287.955,0.001,0.003,0.001,-0.015,-0.018000000000000002,-0.987,-44.25,-45.86,36.300000000000004,0.9962000000000001,0.0106,-0.022000000000000002,-0.0828,0.037,0.01,-0.002
2026-01-05 21:26:47.379,287.96,-0.001,0.0,0.001,-0.015,-0.016,-0.988,-44.25,-45.86,36.300000000000004,0.9962000000000001,0.0106,-0.0218,-0.0828,0.037,0.008,-0.002
2026-01-05 21:26:47.383,287.965,0.0,-0.004,0.0,-0.015,-0.017,-0.986,-44.84,-45.74,36.36,0.9962000000000001,0.0106,-0.0218,-0.0828,0.037,0.009000000000000001,-0.004
2026-01-05 21:26:47.383,287.97,0.001,0.001,0.0,-0.014,-0.017,-0.985,-44.84,-45.74,36.36,0.9962000000000001,0.0106,-0.0217,-0.0828,0.036000000000000004,0.009000000000000001,-0.004
2026-01-05 21:26:47.383,287.975,0.0,0.001,0.0,-0.016,-0.016,-0.985,-44.13,-47.06,36.56,0.9962000000000001,0.0105,-0.0217,-0.0828,0.037,0.008,-0.005
2026-01-05 21:26:47.383,287.98,0.001,0.006,0.0,-0.016,-0.018000000000000002,-0.986,-44.13,-47.06,36.56,0.9962000000000001,0.0105,-0.0217,-0.0828,0.037,0.01,-0.004
2026-01-05 21:26:47.384,287.985,0.0,0.0,-0.001,-0.014,-0.017,-0.986,-44.13,-47.06,36.56,0.9962000000000001,0.0105,-0.0216,-0.0828,0.036000000000000004,0.009000000000000001,-0.004
2026-01-05 21:26:47.384,287.99,0.0,-0.001,0.0,-0.014,-0.017,-0.988,-44.57,-46.0,36.68,0.9962000000000001,0.010400000000000001,-0.021400000000000002,-0.0828,0.035,0.009000000000000001,-0.002
2026-01-05 21:26:47.384,287.995,0.0,-0.004,0.001,-0.014,-0.017,-0.989,-44.57,-46.0,36.68,0.9962000000000001,0.010400000000000001,-0.0212,-0.0828,0.035,0.009000000000000001,-0.001
2026-01-05 21:26:47.384,288.0,-0.001,0.003,0.001,-0.014,-0.016,-0.985,-44.6,-46.0,36.88,0.9962000000000001,0.010400000000000001,-0.0212,-0.0828,0.035,0.008,-0.005
2026-01-05 21:26:47.385,288.005,0.0,0.001,0.0,-0.016,-0.015,-0.986,-44.6,-46.0,36.88,0.9962000000000001,0.010400000000000001,-0.0211,-0.0828,0.036000000000000004,0.007,-0.004
2026-01-05 21:26:47.391,288.01,0.002,0.002,0.0,-0.015,-0.017,-0.985,-44.6,-46.0,36.88,0.9962000000000001,0.0103,-0.0211,-0.0828,0.036000000000000004,0.009000000000000001,-0.005
2026-01-05 21:26:47.392,288.015,0.003,0.002,0.0,-0.014,-0.017,-0.989,-43.37,-45.62,36.33,0.9962000000000001,0.0102,-0.020900000000000002,-0.0828,0.034,0.009000000000000001,-0.001
2026-01-05 21:26:47.393,288.02,0.0,0.001,0.0,-0.015,-0.016,-0.987,-43.37,-45.62,36.33,0.9962000000000001,0.0102,-0.020800000000000003,-0.0828,0.035,0.007,-0.003
2026-01-05 21:26:47.394,288.025,0.0,-0.003,0.0,-0.015,-0.018000000000000002,-0.984,-43.7,-45.92,36.12,0.9962000000000001,0.0102,-0.020800000000000003,-0.0828,0.035,0.01,-0.005
2026-01-05 21:26:47.396,288.03,-0.001,-0.005,0.0,-0.014,-0.014,-0.986,-43.7,-45.92,36.12,0.9962000000000001,0.0102,-0.0207,-0.0828,0.034,0.006,-0.004
2026-01-05 21:26:47.396,288.035,0.0,0.0,0.0,-0.014,-0.017,-0.991,-43.7,-45.92,36.12,0.9963000000000001,0.0099,-0.0199,-0.08270000000000001,0.032,0.008,0.0
2026-01-05 21:26:47.396,288.04,0.001,0.001,0.0,-0.015,-0.017,-0.988,-43.49,-46.06,36.21,0.9963000000000001,0.0099,-0.0198,-0.08270000000000001,0.033,0.008,-0.002
2026-01-05 21:26:47.397,288.045,0.001,0.004,0.0,-0.014,-0.015,-0.984,-43.49,-46.06,36.21,0.9963000000000001,0.0099,-0.0198,-0.08270000000000001,0.032,0.006,-0.006
2026-01-05 21:26:47.397,288.05,0.001,0.001,-0.001,-0.014,-0.016,-0.984,-44.160000000000004,-45.86,35.800000000000004,0.9963000000000001,0.0098,-0.0198,-0.08270000000000001,0.032,0.008,-0.006
2026-01-05 21:26:47.397,288.055,0.001,-0.002,0.0,-0.015,-0.016,-0.986,-44.160000000000004,-45.86,35.800000000000004,0.9963000000000001,0.0098,-0.019700000000000002,-0.08270000000000001,0.032,0.008,-0.004
2026-01-05 21:26:47.398,288.06,-0.001,-0.001,0.0,-0.015,-0.015,-0.989,-44.160000000000004,-45.86,35.800000000000004,0.9963000000000001,0.0098,-0.0195,-0.08270000000000001,0.033,0.006,-0.001
2026-01-05 21:26:47.398,288.065,0.0,0.0,0.001,-0.014,-0.017,-0.986,-44.54,-46.5,36.18,0.9963000000000001,0.0097,-0.0194,-0.08270000000000001,0.031,0.008,-0.004
2026-01-05 21:26:47.398,288.07,0.001,0.005,0.001,-0.014,-0.018000000000000002,-0.985,-44.54,-46.5,36.18,0.9963000000000001,0.0097,-0.0194,-0.08270000000000001,0.031,0.009000000000000001,-0.005
2026-01-05 21:26:47.399,288.075,0.0,0.003,0.001,-0.015,-0.017,-0.986,-44.480000000000004,-45.980000000000004,36.1,0.9963000000000001,0.0097,-0.0194,-0.08270000000000001,0.032,0.008,-0.004
2026-01-05 21:26:47.399,288.08,0.001,0.001,0.0,-0.014,-0.016,-0.986,-44.480000000000004,-45.980000000000004,36.1,0.9963000000000001,0.0097,-0.0193,-0.08270000000000001,0.031,0.007,-0.004
2026-01-05 21:26:47.399,288.085,0.001,0.0,0.0,-0.014,-0.017,-0.989,-44.480000000000004,-45.980000000000004,36.1,0.9963000000000001,0.009600000000000001,-0.019100000000000002,-0.08270000000000001,0.031,0.008,-0.001
2026-01-05 21:26:47.400,288.09,-0.001,-0.004,0.0,-0.014,-0.017,-0.985,-44.69,-45.95,35.980000000000004,0.9963000000000001,0.009600000000000001,-0.019100000000000002,-0.08270000000000001,0.03,0.008,-0.005
2026-01-05 21:26:47.400,288.095,0.0,0.0,-0.001,-0.015,-0.018000000000000002,-0.986,-44.69,-45.95,35.980000000000004,0.9963000000000001,0.009600000000000001,-0.019,-0.08270000000000001,0.031,0.008,-0.004
2026-01-05 21:26:47.400,288.1,0.0,0.002,0.0,-0.015,-0.017,-0.988,-44.160000000000004,-45.800000000000004,35.63,0.9963000000000001,0.009600000000000001,-0.0189,-0.08270000000000001,0.031,0.008,-0.002
2026-01-05 21:26:47.400,288.105,0.0,0.002,0.0,-0.015,-0.017,-0.988,-44.160000000000004,-45.800000000000004,35.63,0.9963000000000001,0.0095,-0.0188,-0.08270000000000001,0.031,0.008,-0.002
2026-01-05 21:26:47.400,288.11,0.0,0.006,0.0,-0.015,-0.018000000000000002,-0.983,-44.160000000000004,-45.800000000000004,35.63,0.9963000000000001,0.0095,-0.0188,-0.08270000000000001,0.031,0.008,-0.007
2026-01-05 21:26:47.401,288.115,0.0,0.002,0.002,-0.015,-0.016,-0.984,-44.92,-46.44,35.51,0.9963000000000001,0.0095,-0.0188,-0.08270000000000001,0.031,0.007,-0.006
2026-01-05 21:26:47.401,288.12,0.0,-0.002,0.0,-0.015,-0.017,-0.988,-44.92,-46.44,35.51,0.9963000000000001,0.0095,-0.0187,-0.08270000000000001,0.03,0.008,-0.002
2026-01-05 21:26:47.401,288.125,-0.001,0.0,0.001,-0.015,-0.018000000000000002,-0.989,-42.99,-46.94,35.980000000000004,0.9963000000000001,0.009300000000000001,-0.0184,-0.0826,0.03,0.008,-0.001
2026-01-05 21:26:47.402,288.13,-0.001,0.0,0.0,-0.015,-0.017,-0.988,-42.99,-46.94,35.980000000000004,0.9963000000000001,0.009300000000000001,-0.0183,-0.0826,0.029,0.007,-0.002
2026-01-05 21:26:47.402,288.135,0.0,0.002,-0.001,-0.013000000000000001,-0.017,-0.984,-42.99,-46.94,35.980000000000004,0.9963000000000001,0.009300000000000001,-0.0182,-0.0826,0.028,0.007,-0.006
2026-01-05 21:26:47.416,288.14,0.003,0.0,-0.002,-0.013000000000000001,-0.016,-0.985,-43.4,-47.0,36.07,0.9963000000000001,0.009300000000000001,-0.0182,-0.0826,0.028,0.006,-0.005
2026-01-05 21:26:47.416,288.145,0.001,0.0,0.0,-0.014,-0.017,-0.987,-43.4,-47.0,36.07,0.9963000000000001,0.0092,-0.0181,-0.0826,0.028,0.007,-0.003
2026-01-05 21:26:47.417,288.15,0.0,0.001,0.0,-0.014,-0.018000000000000002,-0.986,-44.89,-46.74,35.660000000000004,0.9963000000000001,0.0092,-0.0181,-0.0826,0.028,0.008,-0.004
2026-01-05 21:26:47.417,288.155,0.0,-0.001,0.0,-0.014,-0.016,-0.986,-44.89,-46.74,35.660000000000004,0.9963000000000001,0.0092,-0.018000000000000002,-0.0826,0.029,0.007,-0.004
2026-01-05 21:26:47.417,288.16,0.0,0.0,0.0,-0.014,-0.017,-0.984,-44.89,-46.74,35.660000000000004,0.9963000000000001,0.0092,-0.018000000000000002,-0.0826,0.028,0.007,-0.006
2026-01-05 21:26:47.419,288.165,0.001,0.002,0.0,-0.014,-0.017,-0.987,-44.25,-46.410000000000004,36.42,0.9963000000000001,0.0092,-0.0179,-0.0826,0.028,0.007,-0.003
2026-01-05 21:26:47.420,288.17,0.0,0.002,0.0,-0.014,-0.017,-0.986,-44.25,-46.410000000000004,36.42,0.9963000000000001,0.0092,-0.0179,-0.0826,0.028,0.007,-0.005
2026-01-05 21:26:47.421,288.175,0.0,0.002,0.0,-0.014,-0.017,-0.985,-44.25,-46.410000000000004,36.42,0.9963000000000001,0.0092,-0.0179,-0.0826,0.028,0.007,-0.005
2026-01-05 21:26:47.422,288.18,0.001,-0.001,0.0,-0.016,-0.017,-0.985,-45.07,-46.47,36.480000000000004,0.9963000000000001,0.0091,-0.0178,-0.0826,0.03,0.007,-0.005
2026-01-05 21:26:47.422,288.185,0.001,-0.002,0.0,-0.015,-0.017,-0.987,-45.07,-46.47,36.480000000000004,0.9963000000000001,0.0091,-0.0178,-0.0826,0.029,0.007,-0.003
2026-01-05 21:26:47.422,288.19,0.0,0.0,0.0,-0.015,-0.017,-0.987,-44.95,-46.06,36.59,0.9963000000000001,0.0091,-0.0177,-0.0826,0.028,0.007,-0.003
2026-01-05 21:26:47.422,288.195,-0.001,0.004,0.0,-0.014,-0.016,-0.985,-44.95,-46.06,36.59,0.9963000000000001,0.0091,-0.0177,-0.0826,0.027,0.006,-0.005
2026-01-05 21:26:47.423,288.2,0.001,0.002,0.001,-0.015,-0.016,-0.985,-44.95,-46.06,36.59,0.9963000000000001,0.0091,-0.0177,-0.0826,0.029,0.006,-0.005
2026-01-05 21:26:47.423,288.205,0.002,0.003,0.0,-0.014,-0.016,-0.987,-45.07,-46.03,36.24,0.9963000000000001,0.009000000000000001,-0.0176,-0.0826,0.027,0.006,-0.003
2026-01-05 21:26:47.423,288.21,0.001,0.001,0.0,-0.016,-0.016,-0.987,-45.07,-46.03,36.24,0.9963000000000001,0.009000000000000001,-0.0175,-0.0826,0.029,0.006,-0.003
2026-01-05 21:26:47.424,288.215,0.001,0.0,0.0,-0.014,-0.016,-0.985,-44.81,-46.24,35.92,0.9963000000000001,0.009000000000000001,-0.0175,-0.0826,0.027,0.006,-0.005
2026-01-05 21:26:47.424,288.22,-0.001,-0.001,0.001,-0.014,-0.016,-0.985,-44.81,-46.24,35.92,0.9963000000000001,0.009000000000000001,-0.0175,-0.0826,0.027,0.006,-0.005
2026-01-05 21:26:47.429,288.225,-0.001,-0.001,0.0,-0.015,-0.017,-0.984,-44.81,-46.24,35.92,0.9963000000000001,0.009000000000000001,-0.017400000000000002,-0.0826,0.028,0.007,-0.006
2026-01-05 21:26:47.430,288.23,0.001,0.002,0.0,-0.015,-0.017,-0.988,-44.92,-45.86,36.42,0.9963000000000001,0.009000000000000001,-0.017400000000000002,-0.0826,0.028,0.007,-0.002
2026-01-05 21:26:47.430,288.235,0.001,0.001,0.0,-0.014,-0.017,-0.986,-44.92,-45.86,36.42,0.9963000000000001,0.0089,-0.0173,-0.0826,0.027,0.007,-0.005
2026-01-05 21:26:47.430,288.24,0.004,0.0,-0.001,-0.015,-0.017,-0.985,-44.51,-45.980000000000004,36.07,0.9963000000000001,0.0089,-0.0173,-0.0826,0.028,0.006,-0.005
2026-01-05 21:26:47.431,288.245,0.001,0.0,0.001,-0.014,-0.017,-0.986,-44.51,-45.980000000000004,36.07,0.9963000000000001,0.0089,-0.0173,-0.0826,0.027,0.007,-0.004
2026-01-05 21:26:47.435,288.25,0.0,-0.002,0.0,-0.015,-0.017,-0.988,-44.51,-45.980000000000004,36.07,0.9963000000000001,0.0089,-0.0172,-0.0826,0.028,0.006,-0.002
2026-01-05 21:26:47.435,288.255,0.0,-0.002,0.0,-0.015,-0.016,-0.988,-44.480000000000004,-46.12,35.83,0.9963000000000001,0.0089,-0.0171,-0.0826,0.028,0.006,-0.003
2026-01-05 21:26:47.435,288.26,0.0,0.002,0.0,-0.015,-0.017,-0.984,-44.480000000000004,-46.12,35.83,0.9963000000000001,0.0088,-0.0171,-0.0826,0.027,0.006,-0.006
2026-01-05 21:26:47.436,288.265,0.0,0.0,0.0,-0.014,-0.017,-0.986,-44.980000000000004,-45.86,35.800000000000004,0.9963000000000001,0.0088,-0.017,-0.0826,0.026000000000000002,0.006,-0.004
2026-01-05 21:26:47.438,288.27,0.001,0.001,0.0,-0.014,-0.019,-0.987,-44.980000000000004,-45.86,35.800000000000004,0.9963000000000001,0.0088,-0.017,-0.0826,0.026000000000000002,0.008,-0.003
2026-01-05 21:26:47.439,288.275,0.0,0.001,0.0,-0.015,-0.017,-0.987,-44.980000000000004,-45.86,35.800000000000004,0.9963000000000001,0.0088,-0.016900000000000002,-0.0826,0.027,0.007,-0.003
2026-01-05 21:26:47.439,288.28,-0.002,0.0,0.0,-0.015,-0.015,-0.983,-45.22,-45.51,35.980000000000004,0.9963000000000001,0.0088,-0.016900000000000002,-0.0826,0.027,0.005,-0.007
2026-01-05 21:26:47.439,288.285,-0.003,0.0,0.0,-0.014,-0.016,-0.983,-45.22,-45.51,35.980000000000004,0.9963000000000001,0.0088,-0.016900000000000002,-0.0826,0.026000000000000002,0.006,-0.007
2026-01-05 21:26:47.442,288.29,-0.002,-0.003,-0.002,-0.014,-0.017,-0.984,-44.81,-46.12,35.51,0.9963000000000001,0.0088,-0.016900000000000002,-0.0826,0.026000000000000002,0.007,-0.006
2026-01-05 21:26:47.443,288.295,-0.001,0.0,-0.001,-0.015,-0.016,-0.987,-44.81,-46.12,35.51,0.9964000000000001,0.0088,-0.016800000000000002,-0.0826,0.027,0.005,-0.003
2026-01-05 21:26:47.443,288.3,0.002,0.006,0.0,-0.015,-0.017,-0.985,-44.81,-46.12,35.51,0.9964000000000001,0.0088,-0.016800000000000002,-0.0826,0.026000000000000002,0.007,-0.005
2026-01-05 21:26:47.443,288.305,0.0,0.0,0.0,-0.014,-0.017,-0.981,-45.27,-45.800000000000004,35.800000000000004,0.9964000000000001,0.008700000000000001,-0.016800000000000002,-0.0826,0.026000000000000002,0.006,-0.009000000000000001
2026-01-05 21:26:47.445,288.31,0.001,-0.001,-0.001,-0.014,-0.016,-0.984,-45.27,-45.800000000000004,35.800000000000004,0.9964000000000001,0.008700000000000001,-0.0167,-0.0826,0.025,0.005,-0.006
2026-01-05 21:26:47.445,288.315,0.0,-0.004,0.0,-0.014,-0.017,-0.988,-45.01,-46.06,35.54,0.9964000000000001,0.008700000000000001,-0.0166,-0.0825,0.026000000000000002,0.006,-0.003
2026-01-05 21:26:47.447,288.32,-0.002,-0.001,0.0,-0.016,-0.016,-0.986,-45.01,-46.06,35.54,0.9964000000000001,0.008700000000000001,-0.0166,-0.0826,0.027,0.005,-0.004
2026-01-05 21:26:47.448,288.325,0.0,0.001,0.0,-0.015,-0.016,-0.984,-45.01,-46.06,35.54,0.9964000000000001,0.008700000000000001,-0.0166,-0.0826,0.027,0.005,-0.006
2026-01-05 21:26:47.448,288.33,0.002,0.004,0.001,-0.015,-0.017,-0.984,-44.84,-45.86,35.95,0.9964000000000001,0.008700000000000001,-0.0166,-0.0826,0.027,0.006,-0.006
2026-01-05 21:26:47.449,288.335,0.003,0.004,0.0,-0.014,-0.016,-0.988,-44.84,-45.86,35.95,0.9964000000000001,0.0086,-0.0165,-0.0826,0.025,0.005,-0.002
2026-01-05 21:26:47.449,288.34,0.0,-0.004,0.0,-0.015,-0.017,-0.987,-44.72,-46.410000000000004,35.86,0.9964000000000001,0.0086,-0.0164,-0.0826,0.026000000000000002,0.006,-0.003
2026-01-05 21:26:47.449,288.345,-0.001,-0.004,0.0,-0.015,-0.016,-0.985,-44.72,-46.410000000000004,35.86,0.9964000000000001,0.0086,-0.0164,-0.0826,0.026000000000000002,0.005,-0.005
2026-01-05 21:26:47.453,288.35,0.0,-0.001,0.0,-0.015,-0.016,-0.983,-44.72,-46.410000000000004,35.86,0.9964000000000001,0.0086,-0.0164,-0.0826,0.026000000000000002,0.005,-0.007
2026-01-05 21:26:47.453,288.355,0.0,0.001,0.0,-0.014,-0.017,-0.987,-43.93,-45.65,35.980000000000004,0.9964000000000001,0.0086,-0.016300000000000002,-0.0826,0.025,0.006,-0.003
2026-01-05 21:26:47.455,288.36,0.001,0.004,0.0,-0.014,-0.016,-0.987,-43.93,-45.65,35.980000000000004,0.9964000000000001,0.0086,-0.016300000000000002,-0.0826,0.025,0.006,-0.003
2026-01-05 21:26:47.456,288.365,0.0,0.006,0.0,-0.015,-0.017,-0.987,-44.92,-46.36,35.980000000000004,0.9964000000000001,0.0085,-0.0162,-0.0825,0.025,0.006,-0.003
2026-01-05 21:26:47.456,288.37,0.001,-0.001,0.0,-0.014,-0.018000000000000002,-0.984,-44.92,-46.36,35.980000000000004,0.9964000000000001,0.0085,-0.0162,-0.0825,0.025,0.007,-0.006
2026-01-05 21:26:47.457,288.375,-0.001,-0.006,0.001,-0.014,-0.017,-0.983,-44.92,-46.36,35.980000000000004,0.9964000000000001,0.0085,-0.0161,-0.0825,0.025,0.006,-0.007
2026-01-05 21:26:47.457,288.38,-0.002,-0.005,0.0,-0.015,-0.016,-0.988,-45.300000000000004,-45.980000000000004,35.45,0.9964000000000001,0.0085,-0.016,-0.0826,0.025,0.005,-0.002
2026-01-05 21:26:47.457,288.385,-0.003,0.001,0.0,-0.014,-0.017,-0.986,-45.300000000000004,-45.980000000000004,35.45,0.9964000000000001,0.0085,-0.016,-0.0826,0.024,0.006,-0.004
2026-01-05 21:26:47.460,288.39,-0.001,0.005,0.0,-0.016,-0.016,-0.984,-45.300000000000004,-45.980000000000004,35.45,0.9964000000000001,0.0085,-0.016,-0.0826,0.026000000000000002,0.005,-0.006
2026-01-05 21:26:47.460,288.395,0.002,0.007,0.0,-0.015,-0.017,-0.984,-44.78,-46.62,35.39,0.9964000000000001,0.0085,-0.016,-0.0826,0.025,0.006,-0.007
2026-01-05 21:26:47.461,288.4,0.003,0.0,0.0,-0.014,-0.017,-0.987,-44.78,-46.62,35.39,0.9964000000000001,0.0085,-0.0159,-0.0825,0.024,0.006,-0.003
2026-01-05 21:26:47.461,288.405,0.0,0.0,0.0,-0.015,-0.017,-0.988,-44.480000000000004,-45.45,35.22,0.9964000000000001,0.008400000000000001,-0.0158,-0.0825,0.024,0.006,-0.002
2026-01-05 21:26:47.461,288.41,-0.001,0.0,-0.001,-0.014,-0.016,-0.984,-44.480000000000004,-45.45,35.22,0.9964000000000001,0.008400000000000001,-0.0158,-0.0825,0.024,0.005,-0.006
2026-01-05 21:26:47.465,288.415,-0.001,-0.001,-0.001,-0.013000000000000001,-0.016,-0.986,-44.480000000000004,-45.45,35.22,0.9964000000000001,0.008400000000000001,-0.0158,-0.0825,0.023,0.005,-0.005
2026-01-05 21:26:47.466,288.42,0.0,-0.001,0.0,-0.014,-0.016,-0.986,-44.43,-46.88,36.42,0.9964000000000001,0.008400000000000001,-0.0158,-0.0825,0.023,0.005,-0.004
2026-01-05 21:26:47.466,288.425,0.002,0.006,-0.001,-0.015,-0.015,-0.989,-44.43,-46.88,36.42,0.9964000000000001,0.008400000000000001,-0.015600000000000001,-0.0826,0.025,0.004,-0.002
2026-01-05 21:26:47.468,288.43,0.0,0.008,0.0,-0.014,-0.017,-0.985,-44.19,-45.300000000000004,35.39,0.9964000000000001,0.008400000000000001,-0.015600000000000001,-0.0826,0.024,0.006,-0.005
2026-01-05 21:26:47.468,288.435,0.0,0.001,0.0,-0.015,-0.016,-0.983,-44.19,-45.300000000000004,35.39,0.9964000000000001,0.008400000000000001,-0.015600000000000001,-0.0826,0.024,0.005,-0.007
2026-01-05 21:26:47.470,288.44,0.0,-0.004,0.001,-0.013000000000000001,-0.015,-0.984,-44.19,-45.300000000000004,35.39,0.9964000000000001,0.008400000000000001,-0.015600000000000001,-0.0826,0.022,0.004,-0.006
2026-01-05 21:26:47.471,288.445,-0.001,-0.001,0.0,-0.015,-0.017,-0.988,-43.75,-46.06,36.56,0.9964000000000001,0.0083,-0.0155,-0.0826,0.024,0.005,-0.003
2026-01-05 21:26:47.471,288.45,-0.001,0.002,0.001,-0.015,-0.017,-0.985,-43.75,-46.06,36.56,0.9964000000000001,0.0083,-0.0155,-0.0826,0.024,0.005,-0.005
2026-01-05 21:26:47.471,288.455,0.0,0.003,0.0,-0.014,-0.018000000000000002,-0.983,-44.92,-46.47,36.21,0.9964000000000001,0.0083,-0.0155,-0.0826,0.023,0.007,-0.007
2026-01-05 21:26:47.472,288.46,0.0,0.001,0.0,-0.015,-0.016,-0.984,-44.92,-46.47,36.21,0.9964000000000001,0.0083,-0.0155,-0.0826,0.024,0.005,-0.006
2026-01-05 21:26:47.472,288.465,0.001,0.002,0.0,-0.014,-0.016,-0.987,-44.92,-46.47,36.21,0.9964000000000001,0.0083,-0.0154,-0.0826,0.023,0.004,-0.003
2026-01-05 21:26:47.475,288.47,0.0,0.002,0.0,-0.015,-0.017,-0.984,-45.39,-46.910000000000004,36.480000000000004,0.9964000000000001,0.0083,-0.0154,-0.0826,0.023,0.006,-0.006
2026-01-05 21:26:47.476,288.475,-0.001,-0.003,0.0,-0.015,-0.017,-0.984,-45.39,-46.910000000000004,36.480000000000004,0.9964000000000001,0.0083,-0.0154,-0.0826,0.023,0.005,-0.006
2026-01-05 21:26:47.476,288.48,-0.001,0.0,-0.001,-0.013000000000000001,-0.017,-0.987,-45.04,-46.03,36.04,0.9964000000000001,0.0083,-0.015300000000000001,-0.0826,0.022,0.006,-0.004
2026-01-05 21:26:47.479,288.485,0.0,0.001,-0.001,-0.015,-0.017,-0.987,-45.04,-46.03,36.04,0.9964000000000001,0.0083,-0.015300000000000001,-0.0826,0.023,0.006,-0.004
2026-01-05 21:26:47.480,288.49,0.001,0.005,0.001,-0.016,-0.017,-0.987,-45.04,-46.03,36.04,0.9964000000000001,0.0082,-0.015300000000000001,-0.0826,0.024,0.006,-0.003
2026-01-05 21:26:47.480,288.495,0.0,0.001,0.0,-0.014,-0.017,-0.986,-45.27,-46.76,36.45,0.9964000000000001,0.0082,-0.0152,-0.0826,0.022,0.005,-0.004
2026-01-05 21:26:47.480,288.5,0.001,0.0,0.0,-0.014,-0.017,-0.983,-45.27,-46.76,36.45,0.9964000000000001,0.0082,-0.0152,-0.0826,0.022,0.005,-0.007
2026-01-05 21:26:47.481,288.505,0.0,-0.002,-0.001,-0.014,-0.018000000000000002,-0.987,-45.1,-46.24,37.06,0.9964000000000001,0.0082,-0.0151,-0.0825,0.022,0.007,-0.003
2026-01-05 21:26:47.481,288.51,-0.001,-0.003,0.0,-0.014,-0.016,-0.986,-45.1,-46.24,37.06,0.9964000000000001,0.0081,-0.015000000000000001,-0.0825,0.022,0.005,-0.005
2026-01-05 21:26:47.485,288.515,-0.003,0.001,0.0,-0.015,-0.016,-0.986,-45.1,-46.24,37.06,0.9964000000000001,0.0081,-0.015000000000000001,-0.0825,0.023,0.005,-0.005
2026-01-05 21:26:47.485,288.52,0.002,0.005,0.0,-0.014,-0.017,-0.982,-44.84,-46.53,36.5,0.9964000000000001,0.0081,-0.015000000000000001,-0.0825,0.022,0.005,-0.008
2026-01-05 21:26:47.487,288.525,0.001,0.005,-0.001,-0.015,-0.018000000000000002,-0.983,-44.84,-46.53,36.5,0.9964000000000001,0.0081,-0.015000000000000001,-0.0825,0.023,0.007,-0.007
2026-01-05 21:26:47.487,288.53,0.001,0.007,0.001,-0.015,-0.016,-0.988,-45.45,-46.18,36.480000000000004,0.9964000000000001,0.0081,-0.015000000000000001,-0.0825,0.023,0.005,-0.002
2026-01-05 21:26:47.487,288.535,-0.001,0.0,0.0,-0.015,-0.017,-0.985,-45.45,-46.18,36.480000000000004,0.9964000000000001,0.0081,-0.0149,-0.0825,0.023,0.006,-0.005
2026-01-05 21:26:47.487,288.54,-0.002,-0.003,0.0,-0.014,-0.017,-0.983,-45.45,-46.18,36.480000000000004,0.9964000000000001,0.0081,-0.0149,-0.0825,0.022,0.005,-0.007
2026-01-05 21:26:47.488,288.545,-0.001,0.0,0.001,-0.015,-0.017,-0.984,-44.86,-45.480000000000004,36.18,0.9964000000000001,0.0081,-0.0149,-0.0825,0.023,0.005,-0.006
2026-01-05 21:26:47.488,288.55,0.0,0.0,0.0,-0.015,-0.016,-0.986,-44.86,-45.480000000000004,36.18,0.9964000000000001,0.0081,-0.0149,-0.0825,0.022,0.004,-0.004
2026-01-05 21:26:47.488,288.555,0.001,0.004,0.001,-0.015,-0.017,-0.986,-45.33,-46.44,36.33,0.9964000000000001,0.0081,-0.0148,-0.0825,0.023,0.005,-0.004
2026-01-05 21:26:47.489,288.56,0.0,0.004,0.001,-0.014,-0.017,-0.984,-45.33,-46.44,36.33,0.9964000000000001,0.0081,-0.0148,-0.0825,0.022,0.006,-0.007
2026-01-05 21:26:47.489,288.565,0.001,-0.001,0.0,-0.013000000000000001,-0.017,-0.983,-45.33,-46.44,36.33,0.9964000000000001,0.0081,-0.0148,-0.0825,0.021,0.005,-0.007
2026-01-05 21:26:47.489,288.57,-0.001,-0.006,0.0,-0.015,-0.017,-0.986,-45.1,-46.38,36.42,0.9964000000000001,0.008,-0.0148,-0.0825,0.022,0.006,-0.004
2026-01-05 21:26:47.489,288.575,-0.003,-0.004,0.0,-0.015,-0.017,-0.987,-45.1,-46.38,36.42,0.9964000000000001,0.008,-0.014700000000000001,-0.0825,0.022,0.005,-0.004
2026-01-05 21:26:47.490,288.58,-0.001,0.0,-0.001,-0.015,-0.017,-0.983,-45.39,-45.800000000000004,35.86,0.9964000000000001,0.008,-0.014700000000000001,-0.0825,0.022,0.005,-0.007
2026-01-05 21:26:47.490,288.585,0.001,0.006,0.0,-0.015,-0.017,-0.984,-45.39,-45.800000000000004,35.86,0.9964000000000001,0.008,-0.014700000000000001,-0.0825,0.022,0.005,-0.007
2026-01-05 21:26:47.490,288.59,0.003,0.004,0.0,-0.015,-0.015,-0.987,-45.39,-45.800000000000004,35.86,0.9964000000000001,0.008,-0.014700000000000001,-0.0825,0.022,0.004,-0.004
2026-01-05 21:26:47.490,288.595,0.001,0.001,0.0,-0.014,-0.017,-0.985,-45.07,-46.65,35.660000000000004,0.9964000000000001,0.008,-0.0146,-0.0825,0.022,0.005,-0.006
2026-01-05 21:26:47.491,288.6,-0.001,0.0,0.0,-0.015,-0.017,-0.985,-45.07,-46.65,35.660000000000004,0.9964000000000001,0.008,-0.0146,-0.0825,0.022,0.005,-0.006
2026-01-05 21:26:47.491,288.605,-0.001,-0.003,0.0,-0.014,-0.017,-0.982,-45.13,-46.65,35.95,0.9964000000000001,0.008,-0.0146,-0.0825,0.021,0.005,-0.008
2026-01-05 21:26:47.491,288.61,0.0,-0.001,0.0,-0.015,-0.017,-0.986,-45.13,-45.980000000000004,35.95,0.9964000000000001,0.008,-0.0146,-0.0825,0.022,0.005,-0.004
2026-01-05 21:26:47.492,288.615,0.001,0.005,-0.001,-0.014,-0.016,-0.985,-45.13,-45.980000000000004,35.95,0.9964000000000001,0.008,-0.0145,-0.0825,0.021,0.005,-0.005
2026-01-05 21:26:47.492,288.62,0.001,0.005,0.0,-0.014,-0.018000000000000002,-0.985,-45.45,-46.18,36.27,0.9964000000000001,0.0079,-0.0145,-0.0825,0.021,0.006,-0.005
2026-01-05 21:26:47.492,288.625,0.001,0.002,0.0,-0.015,-0.017,-0.984,-45.45,-46.18,36.27,0.9964000000000001,0.0079,-0.0145,-0.0825,0.022,0.006,-0.006
2026-01-05 21:26:47.492,288.63,0.0,-0.004,0.0,-0.016,-0.017,-0.983,-45.45,-46.18,36.27,0.9964000000000001,0.0079,-0.0145,-0.0825,0.023,0.006,-0.008
2026-01-05 21:26:47.493,288.635,-0.002,-0.005,0.0,-0.014,-0.017,-0.984,-45.39,-46.33,35.800000000000004,0.9964000000000001,0.0079,-0.0145,-0.0825,0.021,0.005,-0.006
2026-01-05 21:26:47.507,288.64,-0.001,-0.004,0.0,-0.015,-0.017,-0.986,-45.39,-46.33,35.800000000000004,0.9964000000000001,0.0079,-0.014400000000000001,-0.0825,0.022,0.005,-0.005
2026-01-05 21:26:47.507,288.645,-0.001,0.0,-0.001,-0.015,-0.018000000000000002,-0.985,-45.36,-45.74,36.39,0.9964000000000001,0.0079,-0.014400000000000001,-0.0825,0.022,0.006,-0.005
2026-01-05 21:26:47.508,288.65,0.001,0.006,0.0,-0.014,-0.017,-0.983,-45.36,-45.74,36.39,0.9964000000000001,0.0079,-0.014400000000000001,-0.0825,0.021,0.005,-0.008
2026-01-05 21:26:47.508,288.655,0.003,0.006,0.0,-0.014,-0.016,-0.983,-45.36,-45.74,36.39,0.9964000000000001,0.0079,-0.014400000000000001,-0.0825,0.021,0.005,-0.007
2026-01-05 21:26:47.508,288.66,0.001,0.0,0.0,-0.016,-0.018000000000000002,-0.985,-44.34,-45.86,35.31,0.9964000000000001,0.0079,-0.014400000000000001,-0.0825,0.022,0.006,-0.005
2026-01-05 21:26:47.513,288.665,0.001,-0.004,0.0,-0.016,-0.017,-0.985,-44.34,-45.86,35.31,0.9964000000000001,0.0079,-0.0143,-0.0825,0.023,0.005,-0.005
2026-01-05 21:26:47.513,288.67,0.0,-0.003,0.0,-0.015,-0.017,-0.986,-44.660000000000004,-46.79,35.660000000000004,0.9964000000000001,0.0079,-0.0143,-0.0825,0.021,0.005,-0.004
2026-01-05 21:26:47.513,288.675,-0.002,-0.001,-0.001,-0.015,-0.017,-0.984,-44.660000000000004,-46.79,35.660000000000004,0.9964000000000001,0.0079,-0.0143,-0.0825,0.021,0.006,-0.006
2026-01-05 21:26:47.513,288.68,0.0,0.002,0.0,-0.015,-0.018000000000000002,-0.984,-44.660000000000004,-46.79,35.660000000000004,0.9964000000000001,0.0079,-0.0142,-0.0825,0.021,0.006,-0.007
2026-01-05 21:26:47.514,288.685,0.002,0.004,0.0,-0.015,-0.015,-0.985,-44.37,-46.300000000000004,36.24,0.9964000000000001,0.0078000000000000005,-0.0142,-0.0825,0.021,0.004,-0.005
2026-01-05 21:26:47.514,288.69,0.001,0.0,0.0,-0.014,-0.017,-0.985,-44.37,-46.300000000000004,36.24,0.9964000000000001,0.0078000000000000005,-0.0142,-0.0825,0.02,0.005,-0.006
2026-01-05 21:26:47.514,288.695,0.002,-0.001,0.0,-0.014,-0.017,-0.984,-44.480000000000004,-46.79,35.25,0.9964000000000001,0.0078000000000000005,-0.0142,-0.0825,0.021,0.005,-0.007
2026-01-05 21:26:47.514,288.7,0.0,-0.003,0.0,-0.014,-0.017,-0.987,-44.480000000000004,-46.79,35.25,0.9964000000000001,0.0078000000000000005,-0.014100000000000001,-0.0825,0.021,0.005,-0.004
2026-01-05 21:26:47.515,288.705,-0.001,-0.004,-0.001,-0.014,-0.018000000000000002,-0.983,-44.480000000000004,-46.79,35.25,0.9964000000000001,0.0078000000000000005,-0.014100000000000001,-0.0825,0.02,0.006,-0.007
2026-01-05 21:26:47.515,288.71,-0.001,0.001,0.0,-0.014,-0.016,-0.985,-44.31,-46.21,36.27,0.9964000000000001,0.0078000000000000005,-0.014100000000000001,-0.0825,0.02,0.004,-0.005
2026-01-05 21:26:47.515,288.715,0.001,0.006,0.0,-0.014,-0.017,-0.983,-44.31,-46.21,36.27,0.9964000000000001,0.0078000000000000005,-0.014100000000000001,-0.0825,0.02,0.005,-0.007
2026-01-05 21:26:47.515,288.72,0.001,0.007,-0.001,-0.014,-0.017,-0.985,-45.13,-46.21,36.53,0.9964000000000001,0.0078000000000000005,-0.014100000000000001,-0.0825,0.02,0.005,-0.006
2026-01-05 21:26:47.516,288.725,0.001,-0.001,0.0,-0.015,-0.016,-0.987,-45.13,-46.21,36.53,0.9964000000000001,0.0078000000000000005,-0.014,-0.0825,0.021,0.004,-0.003
2026-01-05 21:26:47.516,288.73,0.001,-0.001,0.0,-0.015,-0.017,-0.985,-45.13,-46.21,36.53,0.9964000000000001,0.0077,-0.014,-0.0825,0.021,0.005,-0.005
2026-01-05 21:26:47.516,288.735,0.0,-0.002,0.0,-0.015,-0.017,-0.981,-44.86,-45.68,36.74,0.9964000000000001,0.0077,-0.014,-0.0825,0.021,0.005,-0.009000000000000001
2026-01-05 21:26:47.516,288.74,-0.001,-0.001,0.0,-0.015,-0.016,-0.986,-44.86,-45.68,36.74,0.9964000000000001,0.0077,-0.013900000000000001,-0.0825,0.02,0.004,-0.004
2026-01-05 21:26:47.517,288.745,0.0,0.0,0.001,-0.015,-0.017,-0.986,-45.07,-45.24,36.39,0.9964000000000001,0.0077,-0.013900000000000001,-0.0825,0.021,0.005,-0.004
2026-01-05 21:26:47.517,288.75,0.001,0.004,0.0,-0.015,-0.018000000000000002,-0.985,-45.07,-45.24,36.39,0.9964000000000001,0.0077,-0.013900000000000001,-0.0825,0.021,0.006,-0.005
2026-01-05 21:26:47.517,288.755,0.0,0.003,0.0,-0.015,-0.017,-0.985,-45.07,-45.24,36.39,0.9964000000000001,0.0077,-0.013900000000000001,-0.0825,0.021,0.005,-0.005
2026-01-05 21:26:47.530,288.76,0.001,0.0,0.0,-0.014,-0.018000000000000002,-0.983,-44.63,-46.09,36.33,0.9964000000000001,0.0077,-0.013800000000000002,-0.0825,0.019,0.006,-0.007
2026-01-05 21:26:47.530,288.765,-0.001,-0.007,0.0,-0.015,-0.017,-0.986,-44.63,-46.09,36.33,0.9964000000000001,0.0077,-0.013800000000000002,-0.0825,0.021,0.005,-0.004
2026-01-05 21:26:47.530,288.77,0.0,0.0,0.0,-0.013000000000000001,-0.017,-0.984,-44.95,-45.92,35.72,0.9964000000000001,0.0077,-0.013800000000000002,-0.0825,0.019,0.005,-0.006
2026-01-05 21:26:47.533,288.775,0.0,0.002,0.0,-0.014,-0.017,-0.984,-44.95,-45.92,35.72,0.9964000000000001,0.0077,-0.013800000000000002,-0.0825,0.02,0.005,-0.007
2026-01-05 21:26:47.533,288.78,0.001,0.002,0.002,-0.015,-0.016,-0.986,-44.95,-45.92,35.72,0.9964000000000001,0.0077,-0.0137,-0.0825,0.02,0.004,-0.005
2026-01-05 21:26:47.535,288.785,0.003,0.004,0.0,-0.015,-0.016,-0.987,-44.37,-46.15,36.36,0.9964000000000001,0.0076,-0.0137,-0.0825,0.02,0.004,-0.003
2026-01-05 21:26:47.536,288.79,0.003,0.0,0.0,-0.016,-0.018000000000000002,-0.986,-44.37,-46.15,36.36,0.9964000000000001,0.0076,-0.013600000000000001,-0.0825,0.021,0.005,-0.004
2026-01-05 21:26:47.536,288.795,0.0,-0.001,-0.001,-0.014,-0.017,-0.986,-44.08,-46.15,35.95,0.9964000000000001,0.0076,-0.013600000000000001,-0.0825,0.019,0.004,-0.005
2026-01-05 21:26:47.536,288.8,0.0,0.0,0.0,-0.015,-0.017,-0.984,-44.08,-46.06,35.95,0.9964000000000001,0.0076,-0.013600000000000001,-0.0825,0.02,0.005,-0.006
2026-01-05 21:26:47.537,288.805,-0.001,-0.001,0.0,-0.015,-0.017,-0.986,-44.08,-46.06,35.95,0.9964000000000001,0.0076,-0.0135,-0.0825,0.02,0.004,-0.005
2026-01-05 21:26:47.537,288.81,0.0,0.005,0.0,-0.015,-0.016,-0.986,-44.95,-46.15,35.95,0.9964000000000001,0.0076,-0.0135,-0.0825,0.02,0.003,-0.004
2026-01-05 21:26:47.537,288.815,0.003,0.005,0.0,-0.015,-0.018000000000000002,-0.986,-44.95,-46.15,35.95,0.9964000000000001,0.007500000000000001,-0.0135,-0.0825,0.02,0.005,-0.005
2026-01-05 21:26:47.542,288.82,0.002,0.001,0.0,-0.015,-0.018000000000000002,-0.982,-44.89,-46.18,35.63,0.9964000000000001,0.007500000000000001,-0.0135,-0.0825,0.02,0.005,-0.009000000000000001
2026-01-05 21:26:47.542,288.825,0.003,-0.001,-0.002,-0.014,-0.016,-0.986,-44.89,-46.18,35.63,0.9964000000000001,0.007500000000000001,-0.0135,-0.0825,0.018000000000000002,0.004,-0.004
2026-01-05 21:26:47.543,288.83,-0.002,-0.003,0.0,-0.015,-0.018000000000000002,-0.986,-44.89,-46.18,35.63,0.9964000000000001,0.007500000000000001,-0.0134,-0.0825,0.019,0.006,-0.004
2026-01-05 21:26:47.543,288.835,-0.003,0.0,0.0,-0.015,-0.016,-0.987,-45.13,-46.0,35.92,0.9964000000000001,0.007500000000000001,-0.0134,-0.0825,0.019,0.003,-0.003
2026-01-05 21:26:47.543,288.84,-0.001,0.0,0.0,-0.014,-0.015,-0.982,-45.13,-46.0,35.92,0.9964000000000001,0.007500000000000001,-0.0134,-0.0825,0.019,0.002,-0.008
2026-01-05 21:26:47.543,288.845,0.002,0.002,-0.001,-0.015,-0.017,-0.982,-45.13,-46.0,35.92,0.9964000000000001,0.007500000000000001,-0.0134,-0.0825,0.019,0.005,-0.008
2026-01-05 21:26:47.544,288.85,0.001,0.002,0.001,-0.015,-0.016,-0.986,-44.980000000000004,-46.21,36.480000000000004,0.9964000000000001,0.007500000000000001,-0.013300000000000001,-0.0825,0.02,0.004,-0.004
2026-01-05 21:26:47.548,288.855,-0.001,-0.004,0.0,-0.015,-0.016,-0.987,-44.980000000000004,-46.21,36.480000000000004,0.9964000000000001,0.007500000000000001,-0.013300000000000001,-0.0825,0.02,0.003,-0.004
2026-01-05 21:26:47.549,288.86,-0.002,-0.006,0.0,-0.014,-0.016,-0.984,-44.57,-46.24,36.1,0.9964000000000001,0.007500000000000001,-0.0132,-0.0825,0.018000000000000002,0.003,-0.006
2026-01-05 21:26:47.551,288.865,-0.001,-0.006,0.0,-0.014,-0.016,-0.984,-44.57,-46.24,36.1,0.9964000000000001,0.007500000000000001,-0.0132,-0.0825,0.018000000000000002,0.004,-0.007
2026-01-05 21:26:47.551,288.87,-0.001,0.0,0.0,-0.015,-0.016,-0.985,-44.57,-46.24,36.1,0.9964000000000001,0.007500000000000001,-0.0132,-0.0825,0.019,0.003,-0.006
2026-01-05 21:26:47.552,288.875,0.001,0.002,-0.002,-0.014,-0.017,-0.986,-45.04,-46.21,35.480000000000004,0.9964000000000001,0.007500000000000001,-0.0131,-0.0825,0.018000000000000002,0.005,-0.004
2026-01-05 21:26:47.552,288.88,0.0,0.006,0.0,-0.015,-0.016,-0.984,-45.04,-46.21,35.480000000000004,0.9964000000000001,0.0074,-0.0131,-0.0825,0.019,0.004,-0.006
2026-01-05 21:26:47.554,288.885,0.0,0.001,0.0,-0.014,-0.017,-0.982,-44.34,-46.0,36.21,0.9964000000000001,0.0074,-0.0131,-0.0825,0.018000000000000002,0.005,-0.008
2026-01-05 21:26:47.555,288.89,-0.001,-0.004,0.0,-0.013000000000000001,-0.016,-0.987,-44.34,-46.0,36.21,0.9964000000000001,0.0074,-0.0131,-0.0825,0.017,0.004,-0.003
2026-01-05 21:26:47.555,288.895,-0.001,-0.006,0.0,-0.015,-0.016,-0.989,-44.34,-46.0,36.21,0.9964000000000001,0.0074,-0.0129,-0.0825,0.019,0.004,-0.001
2026-01-05 21:26:47.556,288.9,-0.003,0.0,-0.001,-0.015,-0.016,-0.984,-44.72,-46.06,36.12,0.9964000000000001,0.0074,-0.0129,-0.0825,0.019,0.004,-0.006
2026-01-05 21:26:47.558,288.905,-0.001,0.002,0.0,-0.013000000000000001,-0.016,-0.981,-44.72,-46.06,36.12,0.9964000000000001,0.0074,-0.0129,-0.0825,0.017,0.003,-0.009000000000000001
2026-01-05 21:26:47.560,288.91,0.003,0.004,0.0,-0.014,-0.017,-0.983,-44.63,-46.03,35.89,0.9964000000000001,0.0074,-0.0129,-0.0825,0.017,0.004,-0.007
2026-01-05 21:26:47.560,288.915,0.001,-0.001,0.0,-0.015,-0.018000000000000002,-0.99,-44.63,-46.03,35.89,0.9964000000000001,0.0073,-0.012700000000000001,-0.0824,0.018000000000000002,0.006,-0.001
2026-01-05 21:26:47.562,288.92,0.001,-0.002,0.0,-0.015,-0.016,-0.984,-44.63,-46.03,35.89,0.9964000000000001,0.0073,-0.012700000000000001,-0.0824,0.018000000000000002,0.004,-0.006
2026-01-05 21:26:47.562,288.925,0.0,-0.004,0.0,-0.016,-0.017,-0.982,-45.1,-45.92,35.92,0.9964000000000001,0.0073,-0.012700000000000001,-0.0824,0.019,0.004,-0.008
2026-01-05 21:26:47.562,288.93,-0.001,-0.003,-0.001,-0.015,-0.018000000000000002,-0.981,-45.1,-45.92,35.92,0.9964000000000001,0.0073,-0.0126,-0.0824,0.018000000000000002,0.005,-0.009000000000000001
2026-01-05 21:26:47.563,288.935,0.0,-0.001,-0.001,-0.014,-0.016,-0.985,-43.75,-45.480000000000004,36.45,0.9964000000000001,0.0073,-0.0126,-0.0824,0.017,0.004,-0.005
2026-01-05 21:26:47.563,288.94,0.0,0.0,0.0,-0.014,-0.018000000000000002,-0.986,-43.75,-45.480000000000004,36.45,0.9964000000000001,0.0073,-0.0126,-0.0824,0.017,0.005,-0.004
2026-01-05 21:26:47.563,288.945,0.001,0.002,0.0,-0.014,-0.017,-0.983,-43.75,-45.480000000000004,36.45,0.9964000000000001,0.0073,-0.0126,-0.0824,0.017,0.004,-0.007
2026-01-05 21:26:47.563,288.95,0.001,0.001,0.001,-0.013000000000000001,-0.015,-0.98,-43.93,-46.21,36.42,0.9964000000000001,0.007200000000000001,-0.0126,-0.0824,0.015,0.002,-0.01
2026-01-05 21:26:47.564,288.955,0.001,0.0,-0.001,-0.014,-0.017,-0.983,-43.93,-46.21,36.42,0.9964000000000001,0.007200000000000001,-0.0125,-0.0824,0.017,0.004,-0.007
2026-01-05 21:26:47.564,288.96,0.0,-0.001,0.0,-0.015,-0.016,-0.99,-42.410000000000004,-46.47,35.800000000000004,0.9964000000000001,0.007200000000000001,-0.0123,-0.0825,0.017,0.003,0.0
2026-01-05 21:26:47.564,288.965,-0.001,0.001,0.0,-0.015,-0.017,-0.989,-42.410000000000004,-46.47,35.800000000000004,0.9964000000000001,0.0071,-0.0122,-0.0825,0.017,0.004,-0.001
2026-01-05 21:26:47.565,288.97,0.0,0.004,0.0,-0.015,-0.017,-0.983,-42.410000000000004,-46.47,35.800000000000004,0.9964000000000001,0.0071,-0.0122,-0.0825,0.018000000000000002,0.004,-0.007
2026-01-05 21:26:47.565,288.975,0.001,0.004,-0.001,-0.015,-0.016,-0.977,-43.64,-45.300000000000004,35.95,0.9964000000000001,0.0071,-0.0122,-0.0825,0.017,0.003,-0.014
2026-01-05 21:26:47.565,288.98,0.001,0.001,0.0,-0.014,-0.018000000000000002,-0.983,-43.64,-45.300000000000004,35.95,0.9964000000000001,0.0071,-0.0122,-0.0825,0.017,0.005,-0.007
2026-01-05 21:26:47.565,288.985,0.001,0.001,0.001,-0.015,-0.017,-0.989,-43.99,-45.800000000000004,36.04,0.9964000000000001,0.0071,-0.012,-0.0825,0.017,0.004,-0.002
2026-01-05 21:26:47.566,288.99,-0.001,-0.001,0.0,-0.017,-0.017,-0.989,-43.99,-45.800000000000004,36.04,0.9964000000000001,0.006900000000000001,-0.0117,-0.0824,0.018000000000000002,0.003,-0.001
2026-01-05 21:26:47.566,288.995,-0.001,-0.001,0.001,-0.015,-0.015,-0.985,-43.99,-45.800000000000004,36.04,0.9964000000000001,0.006900000000000001,-0.011600000000000001,-0.0825,0.016,0.002,-0.005
2026-01-05 21:26:47.577,289.0,0.0,0.002,0.001,-0.016,-0.016,-0.977,-43.64,-46.0,36.18,0.9964000000000001,0.006900000000000001,-0.011600000000000001,-0.0825,0.017,0.003,-0.014
2026-01-05 21:26:47.577,289.005,0.003,0.005,0.0,-0.014,-0.015,-0.981,-43.64,-46.0,36.18,0.9964000000000001,0.006900000000000001,-0.011600000000000001,-0.0825,0.015,0.002,-0.009000000000000001
2026-01-05 21:26:47.577,289.01,0.004,0.0,0.0,-0.014,-0.017,-0.986,-43.99,-45.74,36.18,0.9964000000000001,0.006900000000000001,-0.011600000000000001,-0.0825,0.015,0.004,-0.004
2026-01-05 21:26:47.578,289.015,0.001,-0.003,-0.001,-0.015,-0.017,-0.992,-43.99,-45.74,36.18,0.9965,0.0068000000000000005,-0.0114,-0.0824,0.016,0.004,0.0
2026-01-05 21:26:47.580,289.02,-0.001,-0.003,-0.001,-0.013000000000000001,-0.018000000000000002,-0.99,-43.99,-45.74,36.18,0.9965,0.0068000000000000005,-0.0112,-0.0824,0.014,0.004,0.0
2026-01-05 21:26:47.581,289.025,-0.003,-0.001,0.001,-0.013000000000000001,-0.018000000000000002,-0.982,-44.31,-46.410000000000004,35.86,0.9965,0.0068000000000000005,-0.0112,-0.0824,0.013000000000000001,0.004,-0.008
2026-01-05 21:26:47.581,289.03,-0.002,0.002,0.0,-0.015,-0.016,-0.976,-44.31,-46.410000000000004,35.86,0.9965,0.0068000000000000005,-0.0112,-0.0824,0.015,0.002,-0.015
2026-01-05 21:26:47.581,289.035,0.0,0.002,-0.001,-0.014,-0.016,-0.983,-43.72,-45.6,35.28,0.9965,0.0068000000000000005,-0.0112,-0.0824,0.014,0.002,-0.008
2026-01-05 21:26:47.581,289.04,0.003,0.002,0.001,-0.015,-0.017,-0.989,-43.72,-45.6,35.28,0.9965,0.0067,-0.0111,-0.0824,0.015,0.003,-0.001
2026-01-05 21:26:47.584,289.045,0.001,0.001,-0.001,-0.015,-0.017,-0.993,-43.72,-45.6,35.28,0.9965,0.0067,-0.011000000000000001,-0.0824,0.015,0.003,0.001
2026-01-05 21:26:47.584,289.05,-0.001,0.0,0.0,-0.015,-0.017,-0.987,-44.69,-46.03,35.92,0.9965,0.0066,-0.0108,-0.0824,0.014,0.003,-0.003
2026-01-05 21:26:47.586,289.055,-0.003,-0.001,0.0,-0.014,-0.018000000000000002,-0.978,-44.69,-46.03,35.92,0.9965,0.0066,-0.0108,-0.0824,0.014,0.004,-0.012
2026-01-05 21:26:47.586,289.06,0.0,-0.001,0.0,-0.014,-0.015,-0.981,-44.69,-46.03,35.92,0.9965,0.0066,-0.0108,-0.0824,0.013000000000000001,0.001,-0.01
2026-01-05 21:26:47.587,289.065,0.002,0.004,0.0,-0.015,-0.018000000000000002,-0.987,-44.46,-45.65,36.15,0.9965,0.0066,-0.010700000000000001,-0.0824,0.014,0.004,-0.003
2026-01-05 21:26:47.587,289.07,0.001,0.002,-0.001,-0.015,-0.017,-0.99,-44.46,-45.65,36.15,0.9965,0.0066,-0.0106,-0.0824,0.014,0.003,-0.001
2026-01-05 21:26:47.590,289.075,0.003,0.006,0.001,-0.016,-0.017,-0.985,-44.51,-46.06,35.980000000000004,0.9965,0.006500000000000001,-0.0106,-0.0824,0.015,0.003,-0.005
2026-01-05 21:26:47.590,289.08,0.0,0.0,-0.001,-0.014,-0.017,-0.979,-44.51,-46.06,35.980000000000004,0.9965,0.006500000000000001,-0.0106,-0.0824,0.013000000000000001,0.004,-0.011
2026-01-05 21:26:47.590,289.085,-0.001,-0.001,0.0,-0.014,-0.017,-0.98,-44.51,-46.06,35.980000000000004,0.9965,0.0066,-0.0106,-0.0823,0.013000000000000001,0.003,-0.01
2026-01-05 21:26:47.593,289.09,0.0,0.0,0.0,-0.016,-0.017,-0.986,-44.34,-46.33,35.72,0.9965,0.006500000000000001,-0.0106,-0.0824,0.015,0.003,-0.004
2026-01-05 21:26:47.594,289.095,0.0,0.002,0.0,-0.015,-0.017,-0.986,-44.34,-46.33,35.72,0.9965,0.006500000000000001,-0.0106,-0.0824,0.013000000000000001,0.003,-0.005
2026-01-05 21:26:47.595,289.1,-0.001,0.002,-0.001,-0.013000000000000001,-0.016,-0.985,-44.02,-46.59,35.54,0.9965,0.006500000000000001,-0.0106,-0.0824,0.012,0.002,-0.006
2026-01-05 21:26:47.595,289.105,0.003,0.0,0.002,-0.013000000000000001,-0.016,-0.985,-44.02,-46.59,35.54,0.9965,0.006500000000000001,-0.0106,-0.0824,0.012,0.002,-0.006
2026-01-05 21:26:47.595,289.11,0.002,-0.002,0.0,-0.013000000000000001,-0.017,-0.983,-44.02,-46.59,35.54,0.9965,0.006500000000000001,-0.0106,-0.0824,0.011,0.003,-0.007
2026-01-05 21:26:47.596,289.115,-0.001,0.0,0.0,-0.013000000000000001,-0.016,-0.986,-43.81,-46.24,36.01,0.9965,0.006500000000000001,-0.0105,-0.0824,0.012,0.002,-0.005
2026-01-05 21:26:47.599,289.12,-0.001,-0.002,0.001,-0.014,-0.017,-0.983,-43.81,-46.24,36.01,0.9965,0.006500000000000001,-0.0105,-0.0824,0.013000000000000001,0.003,-0.008
2026-01-05 21:26:47.599,289.125,0.001,0.0,0.0,-0.014,-0.018000000000000002,-0.984,-45.160000000000004,-46.300000000000004,35.57,0.9965,0.006500000000000001,-0.0105,-0.0824,0.013000000000000001,0.004,-0.007
2026-01-05 21:26:47.599,289.13,-0.001,-0.004,0.0,-0.016,-0.017,-0.988,-45.160000000000004,-46.300000000000004,35.57,0.9965,0.006500000000000001,-0.0105,-0.0824,0.014,0.003,-0.003
2026-01-05 21:26:47.600,289.135,0.001,0.001,0.0,-0.015,-0.018000000000000002,-0.985,-45.160000000000004,-46.300000000000004,35.57,0.9965,0.006500000000000001,-0.010400000000000001,-0.0823,0.014,0.004,-0.005
2026-01-05 21:26:47.600,289.14,0.001,0.002,0.0,-0.015,-0.018000000000000002,-0.981,-45.07,-47.03,35.89,0.9965,0.006500000000000001,-0.010400000000000001,-0.0823,0.014,0.004,-0.009000000000000001
2026-01-05 21:26:47.603,289.145,0.0,0.0,0.0,-0.015,-0.016,-0.983,-45.07,-47.03,35.89,0.9965,0.006500000000000001,-0.010400000000000001,-0.0823,0.014,0.002,-0.007
2026-01-05 21:26:47.603,289.15,-0.001,-0.004,0.0,-0.015,-0.018000000000000002,-0.988,-44.75,-46.88,35.54,0.9965,0.006500000000000001,-0.010400000000000001,-0.0823,0.014,0.003,-0.002
2026-01-05 21:26:47.604,289.155,-0.001,-0.001,-0.001,-0.014,-0.017,-0.986,-44.75,-46.88,35.54,0.9965,0.006500000000000001,-0.0103,-0.0823,0.012,0.003,-0.004
2026-01-05 21:26:47.606,289.16,0.0,0.002,0.0,-0.015,-0.017,-0.983,-44.75,-46.88,35.54,0.9965,0.0064,-0.0103,-0.0823,0.013000000000000001,0.003,-0.008
2026-01-05 21:26:47.606,289.165,0.001,0.004,0.001,-0.014,-0.018000000000000002,-0.984,-44.72,-46.79,35.45,0.9965,0.0064,-0.0103,-0.0823,0.013000000000000001,0.004,-0.007
2026-01-05 21:26:47.607,289.17,0.002,0.002,0.001,-0.014,-0.016,-0.985,-44.72,-46.79,35.45,0.9965,0.0064,-0.0103,-0.0823,0.012,0.002,-0.005
2026-01-05 21:26:47.608,289.175,0.001,0.0,0.0,-0.014,-0.018000000000000002,-0.986,-44.54,-46.12,35.54,0.9965,0.0064,-0.0103,-0.0823,0.013000000000000001,0.004,-0.005
2026-01-05 21:26:47.608,289.18,0.0,-0.002,-0.002,-0.015,-0.018000000000000002,-0.982,-44.54,-46.12,35.54,0.9965,0.0064,-0.0103,-0.0823,0.013000000000000001,0.004,-0.008
2026-01-05 21:26:47.610,289.185,0.0,-0.003,0.0,-0.014,-0.016,-0.984,-44.54,-46.12,35.54,0.9965,0.0064,-0.0103,-0.0823,0.013000000000000001,0.002,-0.007
2026-01-05 21:26:47.611,289.19,0.0,-0.003,0.0,-0.015,-0.017,-0.984,-45.01,-46.33,36.33,0.9965,0.0064,-0.0103,-0.0823,0.013000000000000001,0.003,-0.006
2026-01-05 21:26:47.613,289.195,0.0,0.002,-0.001,-0.016,-0.016,-0.985,-45.01,-46.33,36.33,0.9965,0.0064,-0.0103,-0.0823,0.014,0.002,-0.006
2026-01-05 21:26:47.613,289.2,0.0,0.006,-0.001,-0.016,-0.015,-0.985,-45.01,-46.44,36.01,0.9965,0.0064,-0.0103,-0.0823,0.014,0.001,-0.005
2026-01-05 21:26:47.613,289.205,0.0,0.003,0.0,-0.015,-0.017,-0.979,-45.01,-46.44,36.01,0.9965,0.0064,-0.0103,-0.0823,0.013000000000000001,0.003,-0.011
2026-01-05 21:26:47.614,289.21,0.0,-0.002,-0.001,-0.015,-0.017,-0.982,-45.01,-46.44,36.01,0.9965,0.0064,-0.0102,-0.0823,0.013000000000000001,0.003,-0.009000000000000001
2026-01-05 21:26:47.614,289.215,-0.003,-0.004,0.0,-0.015,-0.017,-0.986,-45.27,-46.85,35.74,0.9965,0.0064,-0.0102,-0.0823,0.013000000000000001,0.003,-0.005
2026-01-05 21:26:47.617,289.22,-0.001,-0.001,0.0,-0.015,-0.018000000000000002,-0.985,-45.27,-46.85,35.74,0.9965,0.0064,-0.0102,-0.0823,0.013000000000000001,0.004,-0.005
2026-01-05 21:26:47.617,289.225,0.0,0.002,0.001,-0.014,-0.017,-0.984,-44.46,-46.47,35.6,0.9965,0.0064,-0.0102,-0.0823,0.012,0.003,-0.007
2026-01-05 21:26:47.618,289.23,0.001,0.004,0.0,-0.014,-0.016,-0.981,-44.46,-46.47,35.6,0.9965,0.0064,-0.0102,-0.0823,0.012,0.002,-0.009000000000000001
2026-01-05 21:26:47.620,289.235,0.003,0.001,0.0,-0.015,-0.018000000000000002,-0.986,-44.46,-46.47,35.6,0.9965,0.0064,-0.0102,-0.0823,0.013000000000000001,0.003,-0.004
2026-01-05 21:26:47.620,289.24,0.0,0.0,0.0,-0.015,-0.017,-0.985,-44.92,-46.65,35.45,0.9965,0.0064,-0.010100000000000001,-0.0823,0.013000000000000001,0.002,-0.006
2026-01-05 21:26:47.621,289.245,-0.001,-0.003,0.0,-0.015,-0.017,-0.984,-44.92,-46.65,35.45,0.9965,0.0064,-0.010100000000000001,-0.0823,0.013000000000000001,0.003,-0.007
2026-01-05 21:26:47.623,289.25,-0.001,0.0,0.001,-0.014,-0.016,-0.983,-43.72,-46.12,35.45,0.9965,0.0064,-0.010100000000000001,-0.0823,0.012,0.002,-0.008
2026-01-05 21:26:47.624,289.255,0.0,-0.001,0.0,-0.014,-0.016,-0.985,-43.72,-46.12,35.45,0.9965,0.0064,-0.010100000000000001,-0.0823,0.012,0.002,-0.006
2026-01-05 21:26:47.624,289.26,0.0,0.001,-0.001,-0.014,-0.017,-0.988,-43.72,-46.12,35.45,0.9965,0.0063,-0.01,-0.0823,0.012,0.003,-0.003
2026-01-05 21:26:47.624,289.265,0.0,0.003,0.0,-0.015,-0.017,-0.986,-45.42,-46.15,36.27,0.9965,0.0063,-0.01,-0.0823,0.013000000000000001,0.003,-0.005
2026-01-05 21:26:47.625,289.27,-0.001,0.0,0.0,-0.015,-0.016,-0.984,-45.42,-46.15,36.27,0.9965,0.0063,-0.01,-0.0823,0.013000000000000001,0.002,-0.007
2026-01-05 21:26:47.625,289.275,-0.001,-0.003,0.0,-0.015,-0.017,-0.983,-44.34,-46.15,36.18,0.9965,0.0063,-0.01,-0.0823,0.012,0.003,-0.007
2026-01-05 21:26:47.625,289.28,0.0,-0.004,0.0,-0.016,-0.017,-0.985,-44.34,-46.62,36.18,0.9965,0.0063,-0.01,-0.0823,0.013000000000000001,0.003,-0.006
2026-01-05 21:26:47.625,289.285,0.0,-0.002,0.0,-0.015,-0.017,-0.983,-44.34,-46.62,36.18,0.9965,0.0063,-0.0099,-0.0823,0.012,0.003,-0.007
2026-01-05 21:26:47.626,289.29,0.001,0.004,0.001,-0.015,-0.017,-0.985,-44.37,-47.03,35.800000000000004,0.9965,0.0063,-0.0099,-0.0823,0.013000000000000001,0.003,-0.006
2026-01-05 21:26:47.631,289.295,0.001,0.004,0.0,-0.015,-0.016,-0.984,-44.37,-47.03,35.800000000000004,0.9965,0.0063,-0.0099,-0.0823,0.013000000000000001,0.002,-0.006
2026-01-05 21:26:47.632,289.3,0.001,0.0,0.0,-0.015,-0.018000000000000002,-0.985,-44.37,-47.03,35.800000000000004,0.9965,0.0063,-0.0099,-0.0823,0.013000000000000001,0.004,-0.005
2026-01-05 21:26:47.632,289.305,0.0,0.0,0.0,-0.015,-0.017,-0.985,-43.550000000000004,-46.410000000000004,36.15,0.9965,0.0063,-0.0099,-0.0823,0.013000000000000001,0.003,-0.005
2026-01-05 21:26:47.634,289.31,-0.001,-0.001,0.0,-0.015,-0.016,-0.983,-43.550000000000004,-46.410000000000004,36.15,0.9965,0.0063,-0.0099,-0.0823,0.012,0.002,-0.008
2026-01-05 21:26:47.634,289.315,0.0,0.0,0.0,-0.014,-0.016,-0.984,-44.31,-46.53,36.12,0.9965,0.0063,-0.0099,-0.0823,0.011,0.002,-0.007
2026-01-05 21:26:47.635,289.32,-0.001,-0.005,0.0,-0.014,-0.017,-0.984,-44.31,-46.53,36.12,0.9965,0.0063,-0.0099,-0.0823,0.012,0.003,-0.006
2026-01-05 21:26:47.637,289.325,0.0,-0.001,0.0,-0.013000000000000001,-0.016,-0.986,-44.31,-46.53,36.12,0.9965,0.0063,-0.0098,-0.0823,0.01,0.002,-0.004
2026-01-05 21:26:47.637,289.33,0.0,0.001,0.0,-0.014,-0.015,-0.982,-44.89,-46.27,36.1,0.9965,0.0063,-0.0098,-0.0823,0.011,0.001,-0.009000000000000001
2026-01-05 21:26:47.637,289.335,0.0,0.0,0.0,-0.014,-0.016,-0.982,-44.89,-46.27,36.1,0.9965,0.0063,-0.0098,-0.0823,0.012,0.002,-0.009000000000000001
2026-01-05 21:26:47.639,289.34,-0.001,-0.003,0.0,-0.015,-0.017,-0.983,-45.04,-45.86,35.57,0.9965,0.0063,-0.0098,-0.0823,0.013000000000000001,0.002,-0.008
2026-01-05 21:26:47.639,289.345,0.0,-0.003,0.0,-0.014,-0.018000000000000002,-0.985,-45.04,-45.86,35.57,0.9965,0.0063,-0.0098,-0.0823,0.011,0.004,-0.005
2026-01-05 21:26:47.640,289.35,-0.001,0.003,0.001,-0.015,-0.017,-0.987,-45.04,-45.86,35.57,0.9965,0.0063,-0.0098,-0.0823,0.012,0.003,-0.004
2026-01-05 21:26:47.640,289.355,0.0,0.006,0.0,-0.014,-0.016,-0.981,-45.39,-46.33,35.660000000000004,0.9965,0.0063,-0.0098,-0.0823,0.011,0.002,-0.01
2026-01-05 21:26:47.640,289.36,0.003,0.004,0.001,-0.015,-0.017,-0.982,-45.39,-46.33,35.660000000000004,0.9965,0.006200000000000001,-0.0098,-0.0823,0.012,0.002,-0.008
2026-01-05 21:26:47.641,289.365,0.001,0.002,0.0,-0.014,-0.017,-0.987,-45.36,-46.18,35.39,0.9965,0.006200000000000001,-0.0098,-0.0823,0.011,0.002,-0.004
2026-01-05 21:26:47.641,289.37,0.0,0.0,0.0,-0.015,-0.017,-0.987,-45.36,-46.18,35.39,0.9965,0.006200000000000001,-0.0097,-0.0823,0.012,0.003,-0.004
2026-01-05 21:26:47.641,289.375,0.0,-0.003,0.0,-0.013000000000000001,-0.017,-0.983,-45.36,-46.18,35.39,0.9965,0.006200000000000001,-0.0097,-0.0823,0.01,0.003,-0.008
2026-01-05 21:26:47.647,289.38,-0.001,-0.001,0.0,-0.014,-0.017,-0.983,-44.28,-46.76,35.6,0.9965,0.006200000000000001,-0.0097,-0.0823,0.011,0.003,-0.007
2026-01-05 21:26:47.647,289.385,0.001,0.002,0.0,-0.014,-0.018000000000000002,-0.984,-44.28,-46.76,35.6,0.9965,0.006200000000000001,-0.0097,-0.0823,0.011,0.003,-0.006
2026-01-05 21:26:47.647,289.39,0.0,0.004,-0.001,-0.015,-0.018000000000000002,-0.985,-44.78,-45.980000000000004,35.28,0.9965,0.006200000000000001,-0.0097,-0.0823,0.012,0.003,-0.006
2026-01-05 21:26:47.647,289.395,0.001,0.004,0.0,-0.015,-0.016,-0.984,-44.78,-45.980000000000004,35.28,0.9965,0.006200000000000001,-0.0097,-0.0823,0.012,0.001,-0.006
2026-01-05 21:26:47.648,289.4,0.002,0.001,0.0,-0.014,-0.017,-0.982,-44.78,-45.980000000000004,35.28,0.9965,0.006200000000000001,-0.0097,-0.0823,0.011,0.002,-0.009000000000000001
2026-01-05 21:26:47.648,289.405,0.0,-0.004,0.0,-0.014,-0.016,-0.984,-44.95,-45.77,35.54,0.9965,0.006200000000000001,-0.0097,-0.0823,0.011,0.002,-0.006
2026-01-05 21:26:47.648,289.41,0.001,-0.001,0.0,-0.015,-0.017,-0.986,-44.95,-45.77,35.54,0.9965,0.006200000000000001,-0.009600000000000001,-0.0823,0.012,0.002,-0.005
2026-01-05 21:26:47.649,289.415,-0.001,0.001,0.001,-0.015,-0.016,-0.986,-44.43,-45.800000000000004,35.92,0.9965,0.006200000000000001,-0.009600000000000001,-0.0823,0.012,0.002,-0.005
2026-01-05 21:26:47.649,289.42,0.0,0.005,0.0,-0.014,-0.016,-0.98,-44.43,-45.800000000000004,35.92,0.9965,0.006200000000000001,-0.009600000000000001,-0.0823,0.011,0.002,-0.011
2026-01-05 21:26:47.649,289.425,0.003,0.003,0.0,-0.014,-0.017,-0.985,-44.43,-45.800000000000004,35.92,0.9965,0.006200000000000001,-0.009600000000000001,-0.0823,0.011,0.002,-0.006
2026-01-05 21:26:47.649,289.43,0.001,0.001,0.001,-0.014,-0.018000000000000002,-0.985,-44.78,-45.92,35.86,0.9965,0.0061,-0.009600000000000001,-0.0823,0.011,0.004,-0.005
2026-01-05 21:26:47.650,289.435,0.0,0.001,0.001,-0.015,-0.018000000000000002,-0.987,-44.78,-45.92,35.86,0.9965,0.0061,-0.009600000000000001,-0.0823,0.011,0.003,-0.004
2026-01-05 21:26:47.650,289.44,0.0,0.0,0.0,-0.015,-0.016,-0.982,-44.69,-46.0,35.63,0.9965,0.0061,-0.009600000000000001,-0.0823,0.012,0.001,-0.008
2026-01-05 21:26:47.650,289.445,0.0,0.0,0.0,-0.016,-0.016,-0.982,-44.69,-46.0,35.63,0.9965,0.0061,-0.009600000000000001,-0.0823,0.012,0.002,-0.008
2026-01-05 21:26:47.651,289.45,0.0,0.0,0.0,-0.015,-0.017,-0.986,-44.69,-46.0,35.63,0.9965,0.0061,-0.009600000000000001,-0.0823,0.012,0.002,-0.005
2026-01-05 21:26:47.651,289.455,0.001,0.0,0.0,-0.016,-0.018000000000000002,-0.984,-43.93,-47.7,35.95,0.9965,0.0061,-0.0095,-0.0823,0.013000000000000001,0.003,-0.007
2026-01-05 21:26:47.651,289.46,0.002,0.006,0.0,-0.014,-0.017,-0.982,-43.93,-47.7,35.95,0.9965,0.0061,-0.009600000000000001,-0.0823,0.011,0.002,-0.008
2026-01-05 21:26:47.651,289.465,0.001,-0.001,0.0,-0.014,-0.017,-0.983,-45.07,-46.21,35.77,0.9965,0.0061,-0.0095,-0.0823,0.011,0.002,-0.007
2026-01-05 21:26:47.652,289.47,0.0,-0.007,0.0,-0.015,-0.018000000000000002,-0.985,-45.07,-46.21,35.77,0.9965,0.0061,-0.0095,-0.0823,0.011,0.003,-0.006
2026-01-05 21:26:47.652,289.475,-0.003,-0.004,0.0,-0.015,-0.017,-0.987,-45.07,-46.21,35.77,0.9965,0.0061,-0.0095,-0.0823,0.012,0.002,-0.003
2026-01-05 21:26:47.652,289.48,-0.001,0.003,0.0,-0.015,-0.018000000000000002,-0.984,-45.19,-45.980000000000004,35.63,0.9965,0.0061,-0.0095,-0.0823,0.012,0.003,-0.007
2026-01-05 21:26:47.652,289.485,0.001,0.001,0.0,-0.014,-0.017,-0.983,-45.19,-45.980000000000004,35.63,0.9965,0.0061,-0.0095,-0.0823,0.011,0.002,-0.007
2026-01-05 21:26:47.653,289.49,0.003,0.001,0.0,-0.014,-0.016,-0.983,-44.34,-46.0,35.72,0.9965,0.0061,-0.0095,-0.0823,0.011,0.002,-0.008
2026-01-05 21:26:47.653,289.495,0.001,0.004,0.0,-0.015,-0.018000000000000002,-0.986,-44.34,-46.0,35.72,0.9965,0.0061,-0.0094,-0.0823,0.012,0.003,-0.004
2026-01-05 21:26:47.653,289.5,-0.001,0.0,0.0,-0.014,-0.017,-0.985,-44.34,-46.0,35.72,0.9965,0.0061,-0.0094,-0.0823,0.011,0.002,-0.006
2026-01-05 21:26:47.654,289.505,-0.002,-0.001,0.0,-0.015,-0.016,-0.982,-44.28,-45.74,36.12,0.9965,0.0061,-0.0094,-0.0823,0.011,0.002,-0.008
2026-01-05 21:26:47.654,289.51,0.0,-0.003,0.001,-0.014,-0.016,-0.983,-44.28,-45.74,36.12,0.9965,0.0061,-0.0094,-0.0823,0.011,0.001,-0.008
2026-01-05 21:26:47.654,289.515,0.001,0.002,0.001,-0.014,-0.017,-0.985,-44.28,-45.74,36.12,0.9965,0.0061,-0.0094,-0.0823,0.011,0.002,-0.005
2026-01-05 21:26:47.655,289.52,0.0,0.003,0.0,-0.015,-0.018000000000000002,-0.986,-45.04,-45.980000000000004,35.69,0.9965,0.0061,-0.0094,-0.0823,0.012,0.004,-0.005
2026-01-05 21:26:47.655,289.525,0.0,0.002,0.001,-0.014,-0.019,-0.984,-45.04,-45.980000000000004,35.69,0.9965,0.006,-0.0094,-0.0823,0.011,0.004,-0.007
2026-01-05 21:26:47.655,289.53,0.0,0.001,0.0,-0.014,-0.017,-0.984,-44.72,-46.82,35.36,0.9965,0.006,-0.0094,-0.0823,0.01,0.002,-0.007
2026-01-05 21:26:47.655,289.535,-0.004,-0.006,0.0,-0.015,-0.018000000000000002,-0.986,-44.72,-46.82,35.36,0.9965,0.006,-0.009300000000000001,-0.0823,0.011,0.003,-0.004
2026-01-05 21:26:47.656,289.54,-0.003,-0.001,0.0,-0.015,-0.018000000000000002,-0.987,-44.72,-46.82,35.36,0.9965,0.006,-0.009300000000000001,-0.0823,0.012,0.003,-0.004
2026-01-05 21:26:47.656,289.545,0.0,0.001,0.0,-0.015,-0.016,-0.984,-44.75,-46.38,35.980000000000004,0.9965,0.006,-0.009300000000000001,-0.0823,0.011,0.001,-0.007
2026-01-05 21:26:47.656,289.55,0.0,0.005,0.0,-0.014,-0.017,-0.982,-44.75,-46.38,35.980000000000004,0.9965,0.006,-0.009300000000000001,-0.0823,0.01,0.002,-0.009000000000000001
2026-01-05 21:26:47.656,289.555,0.003,0.006,0.0,-0.014,-0.017,-0.985,-45.07,-46.88,35.72,0.9965,0.006,-0.009300000000000001,-0.0823,0.01,0.002,-0.005
2026-01-05 21:26:47.657,289.56,0.001,0.003,0.0,-0.016,-0.016,-0.988,-45.07,-46.88,35.72,0.9965,0.006,-0.009300000000000001,-0.0823,0.013000000000000001,0.002,-0.003
2026-01-05 21:26:47.657,289.565,0.0,-0.004,0.0,-0.016,-0.016,-0.984,-45.07,-46.88,35.72,0.9965,0.006,-0.009300000000000001,-0.0823,0.012,0.002,-0.006
2026-01-05 21:26:47.657,289.57,0.0,0.0,0.0,-0.014,-0.016,-0.98,-44.63,-46.68,36.12,0.9965,0.006,-0.009300000000000001,-0.0823,0.01,0.001,-0.011
2026-01-05 21:26:47.658,289.575,0.001,0.0,-0.001,-0.015,-0.016,-0.985,-44.63,-46.68,36.12,0.9965,0.006,-0.0092,-0.0823,0.011,0.002,-0.006
2026-01-05 21:26:47.658,289.58,0.0,0.0,0.0,-0.016,-0.017,-0.986,-45.24,-46.82,35.89,0.9965,0.006,-0.0092,-0.0823,0.012,0.002,-0.005
2026-01-05 21:26:47.658,289.585,0.001,0.002,0.0,-0.016,-0.017,-0.985,-45.24,-46.82,35.89,0.9965,0.006,-0.0092,-0.0823,0.012,0.002,-0.006
2026-01-05 21:26:47.658,289.59,0.0,0.007,-0.001,-0.015,-0.014,-0.981,-45.24,-46.82,35.89,0.9965,0.006,-0.0092,-0.0823,0.011,0.0,-0.01
2026-01-05 21:26:47.659,289.595,0.0,-0.004,0.001,-0.015,-0.017,-0.983,-45.1,-46.56,35.800000000000004,0.9965,0.006,-0.0092,-0.0823,0.011,0.002,-0.008
2026-01-05 21:26:47.659,289.6,-0.001,-0.008,0.0,-0.013000000000000001,-0.017,-0.988,-45.1,-46.56,35.800000000000004,0.9965,0.006,-0.0092,-0.0823,0.009000000000000001,0.002,-0.002
2026-01-05 21:26:47.659,289.605,-0.001,-0.003,0.0,-0.014,-0.018000000000000002,-0.991,-43.550000000000004,-46.18,35.34,0.9965,0.006,-0.0091,-0.0823,0.01,0.003,0.0
2026-01-05 21:26:47.659,289.61,-0.001,0.001,0.0,-0.014,-0.017,-0.986,-43.550000000000004,-46.18,35.34,0.9965,0.0059,-0.009000000000000001,-0.0823,0.009000000000000001,0.002,-0.004
2026-01-05 21:26:47.690,289.615,-0.001,0.0,0.0,-0.013000000000000001,-0.015,-0.98,-43.550000000000004,-46.18,35.34,0.9965,0.0059,-0.009000000000000001,-0.0823,0.009000000000000001,0.001,-0.011
2026-01-05 21:26:47.690,289.62,0.001,0.004,0.0,-0.014,-0.017,-0.979,-44.69,-46.410000000000004,35.86,0.9965,0.0059,-0.009000000000000001,-0.0823,0.01,0.002,-0.012
2026-01-05 21:26:47.692,289.625,0.003,0.0,0.001,-0.014,-0.018000000000000002,-0.983,-44.69,-46.410000000000004,35.86,0.9965,0.0059,-0.009000000000000001,-0.0823,0.009000000000000001,0.003,-0.007
2026-01-05 21:26:47.692,289.63,0.002,-0.003,-0.001,-0.015,-0.018000000000000002,-0.99,-44.480000000000004,-46.12,35.07,0.9965,0.0059,-0.0089,-0.0823,0.011,0.003,0.0
2026-01-05 21:26:47.692,289.635,0.0,-0.001,0.0,-0.015,-0.018000000000000002,-0.991,-44.480000000000004,-46.12,35.07,0.9965,0.0057,-0.0086,-0.08220000000000001,0.01,0.003,0.0
2026-01-05 21:26:47.693,289.64,-0.001,-0.002,-0.001,-0.015,-0.017,-0.985,-44.480000000000004,-46.12,35.07,0.9965,0.0057,-0.0086,-0.08220000000000001,0.009000000000000001,0.002,-0.006
2026-01-05 21:26:47.696,289.645,-0.001,0.002,0.0,-0.015,-0.015,-0.977,-44.92,-46.5,35.45,0.9965,0.0057,-0.0086,-0.08220000000000001,0.009000000000000001,0.0,-0.014
2026-01-05 21:26:47.696,289.65,0.003,0.0,0.001,-0.014,-0.017,-0.979,-44.92,-46.5,35.45,0.9965,0.0057,-0.0086,-0.08220000000000001,0.009000000000000001,0.002,-0.012
2026-01-05 21:26:47.696,289.655,0.003,-0.003,0.0,-0.014,-0.017,-0.99,-44.63,-46.06,35.63,0.9965,0.0057,-0.0085,-0.08220000000000001,0.009000000000000001,0.001,-0.001
2026-01-05 21:26:47.697,289.66,-0.001,-0.003,-0.001,-0.015,-0.016,-0.991,-44.63,-46.06,35.63,0.9965,0.0057,-0.008400000000000001,-0.08220000000000001,0.009000000000000001,0.001,0.0
2026-01-05 21:26:47.699,289.665,-0.001,-0.001,0.0,-0.015,-0.016,-0.987,-44.63,-46.06,35.63,0.9965,0.0056,-0.0082,-0.0823,0.009000000000000001,0.001,-0.004
2026-01-05 21:26:47.699,289.67,-0.003,0.001,0.0,-0.015,-0.017,-0.98,-44.34,-46.12,34.9,0.9965,0.0056,-0.0082,-0.0823,0.009000000000000001,0.002,-0.01
2026-01-05 21:26:47.700,289.675,-0.001,0.001,0.0,-0.015,-0.015,-0.977,-44.34,-46.12,34.9,0.9965,0.0056,-0.0082,-0.0823,0.009000000000000001,0.0,-0.014
2026-01-05 21:26:47.700,289.68,0.001,0.001,0.0,-0.014,-0.017,-0.983,-44.84,-45.980000000000004,34.75,0.9965,0.0056,-0.0082,-0.0823,0.008,0.001,-0.008
2026-01-05 21:26:47.700,289.685,0.001,0.001,0.0,-0.014,-0.016,-0.992,-44.84,-45.980000000000004,34.75,0.9965,0.0056,-0.0081,-0.0823,0.008,0.001,0.001
2026-01-05 21:26:47.700,289.69,0.001,0.001,-0.001,-0.015,-0.017,-0.992,-44.84,-45.980000000000004,34.75,0.9965,0.0056,-0.008,-0.0823,0.008,0.002,0.001
2026-01-05 21:26:47.705,289.695,-0.001,0.0,0.001,-0.014,-0.016,-0.985,-44.75,-45.800000000000004,35.63,0.9965,0.0056,-0.008,-0.0823,0.008,0.001,-0.006
2026-01-05 21:26:47.705,289.7,-0.003,0.0,0.0,-0.015,-0.016,-0.979,-44.75,-45.800000000000004,35.63,0.9965,0.0056,-0.008,-0.0823,0.008,0.001,-0.012
2026-01-05 21:26:47.706,289.705,-0.001,-0.002,0.001,-0.014,-0.017,-0.978,-44.46,-45.95,35.95,0.9965,0.0056,-0.008,-0.0823,0.007,0.002,-0.013000000000000001
2026-01-05 21:26:47.706,289.71,0.002,-0.001,0.001,-0.015,-0.017,-0.984,-44.46,-45.95,35.95,0.9965,0.0056,-0.0079,-0.0823,0.008,0.002,-0.007
2026-01-05 21:26:47.706,289.715,0.002,0.0,0.0,-0.015,-0.017,-0.99,-44.46,-45.95,35.95,0.9965,0.0055000000000000005,-0.0078000000000000005,-0.0823,0.008,0.002,-0.001
2026-01-05 21:26:47.707,289.72,0.0,0.0,0.0,-0.015,-0.017,-0.988,-44.54,-45.33,35.28,0.9965,0.0055000000000000005,-0.0078000000000000005,-0.0823,0.008,0.002,-0.003
2026-01-05 21:26:47.707,289.725,0.0,-0.003,0.0,-0.015,-0.017,-0.982,-44.54,-45.33,35.28,0.9965,0.0055000000000000005,-0.0078000000000000005,-0.0823,0.008,0.001,-0.009000000000000001
2026-01-05 21:26:47.707,289.73,-0.001,-0.001,0.0,-0.015,-0.017,-0.981,-44.54,-45.33,35.28,0.9965,0.0055000000000000005,-0.0078000000000000005,-0.0823,0.008,0.001,-0.009000000000000001
2026-01-05 21:26:47.707,289.735,-0.002,-0.003,0.0,-0.014,-0.016,-0.986,-45.1,-45.980000000000004,35.25,0.9965,0.0055000000000000005,-0.0078000000000000005,-0.0823,0.007,0.0,-0.005
2026-01-05 21:26:47.708,289.74,-0.003,0.0,0.0,-0.015,-0.016,-0.983,-45.1,-45.980000000000004,35.25,0.9965,0.0055000000000000005,-0.0078000000000000005,-0.0823,0.008,0.0,-0.008
2026-01-05 21:26:47.708,289.745,0.001,0.006,0.0,-0.013000000000000001,-0.017,-0.984,-44.480000000000004,-45.77,35.39,0.9965,0.0055000000000000005,-0.0078000000000000005,-0.0823,0.006,0.002,-0.007
2026-01-05 21:26:47.708,289.75,0.001,0.004,0.0,-0.014,-0.017,-0.984,-44.480000000000004,-45.77,35.39,0.9965,0.0055000000000000005,-0.0078000000000000005,-0.0823,0.007,0.001,-0.006
2026-01-05 21:26:47.709,289.755,0.001,0.0,0.0,-0.015,-0.016,-0.984,-44.480000000000004,-45.77,35.39,0.9965,0.0055000000000000005,-0.0078000000000000005,-0.0823,0.008,0.001,-0.007
2026-01-05 21:26:47.718,289.76,-0.002,-0.002,-0.001,-0.015,-0.017,-0.982,-45.22,-46.21,35.51,0.9965,0.0055000000000000005,-0.0078000000000000005,-0.0823,0.009000000000000001,0.002,-0.009000000000000001
2026-01-05 21:26:47.719,289.765,-0.001,-0.003,0.0,-0.015,-0.017,-0.984,-45.22,-46.21,35.51,0.9965,0.0055000000000000005,-0.0077,-0.0823,0.008,0.002,-0.006
2026-01-05 21:26:47.719,289.77,-0.001,0.0,0.0,-0.015,-0.017,-0.986,-44.51,-45.800000000000004,35.480000000000004,0.9965,0.0055000000000000005,-0.0077,-0.0823,0.008,0.002,-0.005
2026-01-05 21:26:47.719,289.775,0.0,0.002,-0.001,-0.015,-0.017,-0.985,-44.51,-45.800000000000004,35.480000000000004,0.9965,0.0055000000000000005,-0.0077,-0.0823,0.008,0.002,-0.006
2026-01-05 21:26:47.720,289.78,-0.002,0.0,0.001,-0.014,-0.017,-0.986,-44.51,-45.800000000000004,35.480000000000004,0.9965,0.0055000000000000005,-0.0077,-0.0823,0.007,0.002,-0.004
2026-01-05 21:26:47.722,289.785,0.0,-0.002,0.0,-0.016,-0.018000000000000002,-0.983,-44.75,-45.800000000000004,35.83,0.9965,0.0055000000000000005,-0.0077,-0.0823,0.008,0.002,-0.008
2026-01-05 21:26:47.723,289.79,-0.001,-0.002,0.0,-0.014,-0.016,-0.983,-44.75,-45.800000000000004,35.83,0.9965,0.0055000000000000005,-0.0077,-0.0823,0.007,0.001,-0.008
2026-01-05 21:26:47.723,289.795,0.0,0.0,0.001,-0.015,-0.017,-0.985,-44.86,-46.24,35.77,0.9965,0.0055000000000000005,-0.0077,-0.0823,0.008,0.002,-0.005
2026-01-05 21:26:47.723,289.8,0.0,0.0,0.0,-0.014,-0.017,-0.986,-44.86,-46.24,35.77,0.9965,0.0055000000000000005,-0.0077,-0.0823,0.007,0.001,-0.005
2026-01-05 21:26:47.723,289.805,0.0,0.003,0.0,-0.014,-0.017,-0.982,-44.86,-46.24,35.77,0.9965,0.0055000000000000005,-0.0077,-0.0823,0.007,0.001,-0.009000000000000001
2026-01-05 21:26:47.724,289.81,0.002,0.004,0.0,-0.014,-0.016,-0.983,-45.07,-45.62,36.36,0.9965,0.0055000000000000005,-0.0077,-0.0823,0.007,0.001,-0.008
2026-01-05 21:26:47.724,289.815,0.002,0.0,0.001,-0.014,-0.017,-0.987,-45.07,-45.62,36.36,0.9965,0.0055000000000000005,-0.0077,-0.0823,0.007,0.001,-0.004
2026-01-05 21:26:47.724,289.82,0.0,0.001,0.001,-0.015,-0.017,-0.985,-45.36,-45.68,35.77,0.9965,0.0055000000000000005,-0.0076,-0.0823,0.008,0.001,-0.006
2026-01-05 21:26:47.725,289.825,0.0,0.0,0.0,-0.015,-0.016,-0.983,-45.36,-45.68,35.77,0.9965,0.0055000000000000005,-0.0076,-0.0823,0.007,0.0,-0.008
2026-01-05 21:26:47.725,289.83,-0.001,-0.001,0.001,-0.014,-0.017,-0.981,-45.36,-45.68,35.77,0.9965,0.0055000000000000005,-0.0076,-0.0823,0.007,0.002,-0.009000000000000001
2026-01-05 21:26:47.725,289.835,0.0,-0.001,0.0,-0.014,-0.016,-0.985,-45.54,-46.33,36.24,0.9965,0.0055000000000000005,-0.0076,-0.0823,0.007,0.001,-0.006
2026-01-05 21:26:47.725,289.84,0.001,0.002,0.0,-0.014,-0.017,-0.987,-45.54,-46.33,36.24,0.9965,0.0055000000000000005,-0.0076,-0.0823,0.006,0.002,-0.004
2026-01-05 21:26:47.726,289.845,0.001,0.005,0.0,-0.014,-0.018000000000000002,-0.984,-45.33,-45.86,35.63,0.9965,0.0055000000000000005,-0.0076,-0.0823,0.007,0.002,-0.006
2026-01-05 21:26:47.726,289.85,0.0,0.002,0.001,-0.013000000000000001,-0.017,-0.983,-45.33,-45.86,35.63,0.9965,0.0055000000000000005,-0.0076,-0.0823,0.006,0.001,-0.007
2026-01-05 21:26:47.735,289.855,0.0,0.002,0.0,-0.015,-0.016,-0.986,-45.33,-45.86,35.63,0.9965,0.0055000000000000005,-0.0076,-0.0823,0.008,0.0,-0.005
2026-01-05 21:26:47.735,289.86,0.0,0.001,-0.001,-0.015,-0.016,-0.986,-44.89,-45.83,35.69,0.9965,0.0055000000000000005,-0.0076,-0.0823,0.008,0.001,-0.004
2026-01-05 21:26:47.735,289.865,0.0,0.002,0.001,-0.014,-0.016,-0.984,-44.89,-45.83,35.69,0.9965,0.0055000000000000005,-0.0076,-0.0823,0.007,0.001,-0.006
2026-01-05 21:26:47.738,289.87,0.001,0.004,0.001,-0.014,-0.017,-0.983,-45.45,-46.5,35.160000000000004,0.9965,0.0055000000000000005,-0.0076,-0.0823,0.007,0.001,-0.008
2026-01-05 21:26:47.738,289.875,0.0,0.001,0.0,-0.014,-0.018000000000000002,-0.983,-45.45,-46.5,35.160000000000004,0.9965,0.0055000000000000005,-0.0076,-0.0823,0.007,0.002,-0.008
2026-01-05 21:26:47.738,289.88,0.0,0.0,0.001,-0.015,-0.017,-0.985,-45.45,-46.5,35.160000000000004,0.9965,0.0055000000000000005,-0.0076,-0.0823,0.008,0.001,-0.005
2026-01-05 21:26:47.741,289.885,0.0,0.0,0.001,-0.015,-0.016,-0.984,-44.89,-45.54,35.22,0.9965,0.0055000000000000005,-0.0076,-0.0824,0.008,0.0,-0.007
2026-01-05 21:26:47.741,289.89,-0.001,-0.001,0.0,-0.014,-0.017,-0.982,-44.89,-45.54,35.22,0.9965,0.0055000000000000005,-0.0076,-0.0824,0.007,0.001,-0.009000000000000001
2026-01-05 21:26:47.741,289.895,-0.001,-0.005,0.0,-0.014,-0.015,-0.985,-44.78,-46.27,35.480000000000004,0.9965,0.0055000000000000005,-0.0076,-0.0824,0.006,0.0,-0.006
2026-01-05 21:26:47.744,289.9,0.0,0.001,0.0,-0.015,-0.016,-0.985,-44.78,-46.27,35.480000000000004,0.9965,0.0055000000000000005,-0.0076,-0.0824,0.008,0.001,-0.006
2026-01-05 21:26:47.744,289.905,0.0,0.004,0.0,-0.015,-0.018000000000000002,-0.985,-44.78,-46.27,35.480000000000004,0.9965,0.0055000000000000005,-0.0076,-0.0824,0.008,0.002,-0.005
2026-01-05 21:26:47.744,289.91,0.0,0.003,0.001,-0.015,-0.015,-0.982,-45.33,-46.68,35.660000000000004,0.9965,0.0055000000000000005,-0.0076,-0.0824,0.008,0.0,-0.009000000000000001
2026-01-05 21:26:47.745,289.915,0.001,0.0,0.0,-0.015,-0.017,-0.985,-45.33,-46.68,35.660000000000004,0.9965,0.0054,-0.0076,-0.0824,0.007,0.002,-0.006
2026-01-05 21:26:47.745,289.92,-0.001,-0.002,-0.001,-0.015,-0.017,-0.984,-45.01,-46.410000000000004,35.83,0.9965,0.0054,-0.007500000000000001,-0.0824,0.007,0.002,-0.006
2026-01-05 21:26:47.745,289.925,0.0,-0.003,0.0,-0.015,-0.017,-0.985,-45.01,-46.410000000000004,35.83,0.9965,0.0054,-0.007500000000000001,-0.0824,0.008,0.002,-0.006
2026-01-05 21:26:47.746,289.93,-0.001,0.0,0.001,-0.015,-0.018000000000000002,-0.984,-45.01,-46.410000000000004,35.83,0.9965,0.0054,-0.007500000000000001,-0.0824,0.007,0.003,-0.007
2026-01-05 21:26:47.746,289.935,0.0,0.001,0.0,-0.015,-0.016,-0.981,-45.13,-46.62,36.04,0.9965,0.0054,-0.007500000000000001,-0.0824,0.007,0.0,-0.009000000000000001
2026-01-05 21:26:47.746,289.94,0.0,0.0,0.0,-0.015,-0.018000000000000002,-0.985,-45.13,-46.62,36.04,0.9965,0.0054,-0.007500000000000001,-0.0824,0.008,0.002,-0.006
2026-01-05 21:26:47.746,289.945,0.003,-0.001,-0.001,-0.014,-0.016,-0.988,-45.13,-46.62,36.01,0.9965,0.0054,-0.007500000000000001,-0.0824,0.007,0.0,-0.003
2026-01-05 21:26:47.747,289.95,-0.001,-0.002,0.0,-0.015,-0.017,-0.986,-45.57,-45.92,36.01,0.9965,0.0054,-0.0074,-0.0824,0.008,0.001,-0.004
2026-01-05 21:26:47.747,289.955,-0.002,-0.002,0.0,-0.014,-0.018000000000000002,-0.981,-45.57,-45.92,36.01,0.9965,0.0054,-0.0074,-0.0824,0.007,0.002,-0.01
2026-01-05 21:26:47.747,289.96,0.0,0.0,0.001,-0.015,-0.017,-0.983,-45.33,-46.0,36.01,0.9965,0.0054,-0.0074,-0.0824,0.007,0.001,-0.008
2026-01-05 21:26:47.747,289.965,-0.001,0.001,0.0,-0.014,-0.017,-0.985,-45.33,-46.0,36.01,0.9965,0.0054,-0.0074,-0.0824,0.007,0.001,-0.006
2026-01-05 21:26:47.748,289.97,0.002,0.006,0.001,-0.014,-0.016,-0.986,-45.33,-46.0,36.01,0.9965,0.0054,-0.0074,-0.0824,0.007,0.0,-0.005
2026-01-05 21:26:47.758,289.975,0.001,0.004,0.0,-0.015,-0.016,-0.985,-45.39,-46.03,35.45,0.9965,0.0054,-0.0074,-0.0824,0.007,0.001,-0.006
2026-01-05 21:26:47.758,289.98,0.001,0.0,0.0,-0.014,-0.017,-0.981,-45.39,-46.03,35.45,0.9965,0.0054,-0.0074,-0.0824,0.006,0.002,-0.01
2026-01-05 21:26:47.758,289.985,-0.001,-0.003,-0.001,-0.014,-0.016,-0.984,-45.1,-45.92,35.51,0.9965,0.0054,-0.0074,-0.0824,0.006,0.001,-0.007
2026-01-05 21:26:47.761,289.99,-0.001,-0.001,0.0,-0.015,-0.017,-0.988,-45.1,-45.92,35.51,0.9965,0.0054,-0.0074,-0.0824,0.007,0.002,-0.003
2026-01-05 21:26:47.761,289.995,0.0,0.0,0.001,-0.015,-0.018000000000000002,-0.984,-45.1,-45.92,35.51,0.9965,0.0054,-0.0074,-0.0824,0.007,0.002,-0.007
2026-01-05 21:26:47.762,290.0,-0.001,0.001,0.001,-0.014,-0.017,-0.981,-44.54,-45.89,35.04,0.9965,0.0054,-0.0074,-0.0824,0.006,0.002,-0.01
2026-01-05 21:26:47.762,290.005,0.001,0.0,0.0,-0.014,-0.017,-0.985,-44.54,-45.89,35.04,0.9965,0.0054,-0.0074,-0.0824,0.007,0.001,-0.005
2026-01-05 21:26:47.762,290.01,0.0,-0.003,0.0,-0.014,-0.018000000000000002,-0.987,-44.69,-45.89,34.93,0.9965,0.0054,-0.0073,-0.0824,0.006,0.003,-0.003
2026-01-05 21:26:47.762,290.015,-0.001,-0.003,0.0,-0.014,-0.015,-0.982,-44.69,-45.89,34.93,0.9965,0.0054,-0.0073,-0.0824,0.007,0.0,-0.009000000000000001
2026-01-05 21:26:47.763,290.02,-0.003,-0.001,0.0,-0.016,-0.018000000000000002,-0.984,-44.69,-45.89,34.93,0.9965,0.0054,-0.0073,-0.0824,0.008,0.002,-0.007
2026-01-05 21:26:47.763,290.025,0.0,0.0,0.0,-0.016,-0.017,-0.985,-44.43,-45.42,35.660000000000004,0.9965,0.0054,-0.0073,-0.0824,0.008,0.001,-0.006
2026-01-05 21:26:47.763,290.03,0.0,0.001,0.0,-0.013000000000000001,-0.017,-0.986,-44.43,-45.42,35.660000000000004,0.9965,0.0054,-0.0073,-0.0824,0.005,0.001,-0.005
2026-01-05 21:26:47.763,290.035,0.003,0.002,0.001,-0.015,-0.017,-0.982,-44.22,-45.86,35.04,0.9965,0.0054,-0.0073,-0.0824,0.008,0.001,-0.009000000000000001
2026-01-05 21:26:47.764,290.04,0.004,0.001,0.0,-0.015,-0.018000000000000002,-0.983,-44.22,-45.86,35.04,0.9965,0.0054,-0.0073,-0.0824,0.007,0.002,-0.008
2026-01-05 21:26:47.764,290.045,0.001,-0.001,-0.001,-0.014,-0.017,-0.983,-44.22,-45.86,35.04,0.9965,0.0054,-0.0073,-0.0824,0.006,0.001,-0.007
2026-01-05 21:26:47.764,290.05,0.0,-0.003,0.0,-0.015,-0.018000000000000002,-0.984,-44.31,-46.06,35.22,0.9965,0.0054,-0.0073,-0.0824,0.007,0.002,-0.007
2026-01-05 21:26:47.773,290.055,0.0,0.001,-0.001,-0.015,-0.017,-0.986,-44.31,-46.06,35.22,0.9965,0.0054,-0.0073,-0.0824,0.007,0.001,-0.005
2026-01-05 21:26:47.773,290.06,-0.002,-0.001,0.0,-0.015,-0.016,-0.983,-43.87,-45.54,35.36,0.9965,0.0054,-0.0073,-0.0824,0.007,0.0,-0.008
2026-01-05 21:26:47.774,290.065,0.0,-0.001,0.0,-0.014,-0.018000000000000002,-0.983,-43.87,-45.54,35.36,0.9965,0.0054,-0.0073,-0.0824,0.006,0.002,-0.008
2026-01-05 21:26:47.774,290.07,0.001,0.005,0.0,-0.014,-0.016,-0.985,-43.87,-45.54,35.36,0.9965,0.0054,-0.0073,-0.0824,0.006,0.001,-0.006
2026-01-05 21:26:47.774,290.075,0.001,0.0,-0.001,-0.015,-0.017,-0.987,-44.28,-45.77,34.78,0.9965,0.0053,-0.007200000000000001,-0.0824,0.007,0.001,-0.004
2026-01-05 21:26:47.777,290.08,0.0,-0.005,0.0,-0.015,-0.016,-0.984,-44.28,-45.77,34.78,0.9965,0.0053,-0.007200000000000001,-0.0824,0.007,0.001,-0.007
2026-01-05 21:26:47.778,290.085,-0.001,-0.002,0.0,-0.014,-0.017,-0.982,-42.82,-45.27,35.31,0.9965,0.0053,-0.007200000000000001,-0.0824,0.006,0.001,-0.008
2026-01-05 21:26:47.779,290.09,0.0,0.0,0.001,-0.015,-0.016,-0.983,-42.82,-45.27,35.31,0.9965,0.0053,-0.007200000000000001,-0.0824,0.006,0.0,-0.007
2026-01-05 21:26:47.779,290.095,0.001,0.004,0.0,-0.016,-0.018000000000000002,-0.985,-42.82,-45.27,35.31,0.9965,0.0053,-0.007200000000000001,-0.0824,0.008,0.002,-0.006
2026-01-05 21:26:47.781,290.1,0.0,0.004,0.0,-0.015,-0.017,-0.986,-43.7,-45.160000000000004,34.980000000000004,0.9965,0.0053,-0.007200000000000001,-0.0824,0.007,0.002,-0.004
2026-01-05 21:26:47.781,290.105,0.001,0.0,0.0,-0.015,-0.014,-0.982,-43.7,-45.160000000000004,34.980000000000004,0.9965,0.0053,-0.007200000000000001,-0.0824,0.007,-0.001,-0.009000000000000001
2026-01-05 21:26:47.782,290.11,-0.001,-0.004,0.0,-0.015,-0.017,-0.982,-43.37,-45.36,35.22,0.9965,0.0053,-0.007200000000000001,-0.0824,0.007,0.001,-0.009000000000000001
2026-01-05 21:26:47.782,290.115,0.0,-0.003,0.0,-0.014,-0.017,-0.985,-43.37,-45.36,35.22,0.9965,0.0053,-0.007200000000000001,-0.0824,0.006,0.001,-0.006
2026-01-05 21:26:47.782,290.12,0.0,0.0,0.0,-0.015,-0.018000000000000002,-0.986,-43.37,-45.36,35.22,0.9965,0.0053,-0.007200000000000001,-0.0824,0.007,0.002,-0.005
2026-01-05 21:26:47.782,290.125,0.0,-0.001,-0.001,-0.014,-0.018000000000000002,-0.982,-43.43,-45.22,35.1,0.9965,0.0053,-0.007200000000000001,-0.0824,0.006,0.003,-0.009000000000000001
2026-01-05 21:26:47.785,290.13,0.002,0.001,0.0,-0.015,-0.016,-0.983,-43.43,-45.22,35.1,0.9965,0.0053,-0.007200000000000001,-0.0824,0.006,0.001,-0.008
2026-01-05 21:26:47.786,290.135,0.003,0.001,-0.001,-0.014,-0.016,-0.984,-43.72,-45.65,35.22,0.9965,0.0053,-0.0071,-0.0824,0.006,0.0,-0.006
2026-01-05 21:26:47.786,290.14,0.0,-0.002,0.0,-0.015,-0.017,-0.986,-43.72,-45.65,35.22,0.9965,0.0053,-0.0071,-0.0824,0.006,0.002,-0.005
2026-01-05 21:26:47.789,290.145,-0.001,-0.002,0.0,-0.016,-0.017,-0.984,-43.72,-45.65,35.22,0.9965,0.0053,-0.0071,-0.0824,0.007,0.001,-0.006
2026-01-05 21:26:47.789,290.15,0.0,-0.001,0.0,-0.014,-0.017,-0.98,-43.84,-45.51,35.31,0.9965,0.0053,-0.0071,-0.0824,0.006,0.001,-0.011
2026-01-05 21:26:47.789,290.155,0.001,0.0,0.001,-0.014,-0.016,-0.985,-43.84,-45.51,35.31,0.9965,0.0053,-0.0071,-0.0824,0.005,0.001,-0.006
2026-01-05 21:26:47.790,290.16,0.001,0.0,0.001,-0.016,-0.017,-0.986,-45.1,-45.800000000000004,35.72,0.9965,0.0053,-0.0071,-0.0824,0.007,0.001,-0.004
2026-01-05 21:26:47.790,290.165,0.001,0.002,0.0,-0.015,-0.018000000000000002,-0.985,-45.1,-45.800000000000004,35.72,0.9965,0.0053,-0.0071,-0.0824,0.007,0.003,-0.006
2026-01-05 21:26:47.790,290.17,0.0,0.001,0.0,-0.014,-0.017,-0.983,-45.1,-45.800000000000004,35.72,0.9965,0.0053,-0.0071,-0.0824,0.006,0.001,-0.008
2026-01-05 21:26:47.790,290.175,0.0,0.0,0.0,-0.015,-0.016,-0.983,-45.54,-46.300000000000004,35.92,0.9965,0.0053,-0.0071,-0.0824,0.007,0.001,-0.008
2026-01-05 21:26:47.791,290.18,0.0,-0.003,0.0,-0.013000000000000001,-0.018000000000000002,-0.987,-45.54,-46.300000000000004,35.92,0.9965,0.0053,-0.0071,-0.0824,0.004,0.003,-0.004
2026-01-05 21:26:47.791,290.185,0.0,-0.001,0.0,-0.015,-0.015,-0.985,-45.54,-46.300000000000004,35.92,0.9965,0.0053,-0.007,-0.0824,0.007,0.0,-0.005
2026-01-05 21:26:47.791,290.19,0.0,0.006,0.0,-0.016,-0.015,-0.985,-45.33,-46.68,35.69,0.9965,0.0053,-0.007,-0.0824,0.008,0.0,-0.006
2026-01-05 21:26:47.792,290.195,0.0,0.003,0.0,-0.015,-0.017,-0.982,-45.33,-46.68,35.69,0.9965,0.0053,-0.0071,-0.0824,0.006,0.001,-0.009000000000000001
2026-01-05 21:26:47.799,290.2,0.001,0.0,0.0,-0.014,-0.017,-0.983,-45.51,-46.65,35.36,0.9965,0.0053,-0.0071,-0.0824,0.005,0.002,-0.007
2026-01-05 21:26:47.799,290.205,0.0,-0.003,0.0,-0.016,-0.018000000000000002,-0.985,-45.51,-46.65,35.36,0.9965,0.0053,-0.007,-0.0824,0.007,0.002,-0.005
2026-01-05 21:26:47.799,290.21,-0.001,-0.002,0.0,-0.015,-0.017,-0.985,-45.51,-46.65,35.36,0.9965,0.0053,-0.007,-0.0824,0.006,0.001,-0.006
2026-01-05 21:26:47.800,290.215,-0.002,-0.003,-0.001,-0.016,-0.016,-0.983,-45.39,-46.68,35.77,0.9965,0.0053,-0.007,-0.0824,0.008,0.001,-0.008
2026-01-05 21:26:47.802,290.22,0.002,0.001,0.0,-0.014,-0.017,-0.983,-45.39,-46.68,35.77,0.9965,0.005200000000000001,-0.007,-0.0824,0.005,0.001,-0.008
2026-01-05 21:26:47.804,290.225,0.0,0.005,0.0,-0.014,-0.017,-0.986,-45.39,-46.300000000000004,35.89,0.9965,0.005200000000000001,-0.007,-0.0824,0.006,0.001,-0.005
2026-01-05 21:26:47.804,290.23,0.001,0.004,0.0,-0.016,-0.018000000000000002,-0.986,-45.39,-46.300000000000004,35.89,0.9965,0.005200000000000001,-0.007,-0.0824,0.007,0.002,-0.005
2026-01-05 21:26:47.804,290.235,0.0,0.0,0.0,-0.015,-0.016,-0.983,-45.39,-46.300000000000004,35.89,0.9965,0.005200000000000001,-0.007,-0.0824,0.007,0.0,-0.008
2026-01-05 21:26:47.804,290.24,0.0,-0.001,0.0,-0.015,-0.016,-0.982,-45.36,-46.79,36.15,0.9965,0.005200000000000001,-0.007,-0.0824,0.006,0.0,-0.008
2026-01-05 21:26:47.805,290.245,0.0,-0.003,-0.001,-0.016,-0.017,-0.985,-45.36,-46.79,36.15,0.9965,0.005200000000000001,-0.007,-0.0824,0.008,0.001,-0.006
2026-01-05 21:26:47.805,290.25,0.0,0.0,0.0,-0.013000000000000001,-0.017,-0.985,-45.45,-46.76,35.660000000000004,0.9965,0.005200000000000001,-0.007,-0.0824,0.005,0.001,-0.006
2026-01-05 21:26:47.809,290.255,0.0,0.002,0.0,-0.014,-0.016,-0.985,-45.45,-46.76,35.660000000000004,0.9965,0.005200000000000001,-0.007,-0.0824,0.005,0.0,-0.006
2026-01-05 21:26:47.809,290.26,0.002,0.005,-0.001,-0.016,-0.017,-0.983,-45.45,-46.76,35.660000000000004,0.9965,0.005200000000000001,-0.007,-0.0824,0.007,0.001,-0.008
2026-01-05 21:26:47.811,290.265,0.001,0.002,0.0,-0.015,-0.017,-0.983,-45.45,-47.09,35.800000000000004,0.9965,0.005200000000000001,-0.007,-0.0824,0.007,0.001,-0.007
2026-01-05 21:26:47.812,290.27,-0.001,-0.003,0.0,-0.016,-0.017,-0.984,-45.45,-47.09,35.800000000000004,0.9965,0.005200000000000001,-0.007,-0.0824,0.007,0.002,-0.007
2026-01-05 21:26:47.812,290.275,-0.001,0.0,-0.001,-0.015,-0.017,-0.982,-45.04,-46.74,35.6,0.9965,0.005200000000000001,-0.007,-0.0824,0.006,0.001,-0.009000000000000001
2026-01-05 21:26:47.814,290.28,0.0,0.002,0.001,-0.014,-0.016,-0.983,-45.04,-46.74,35.6,0.9965,0.005200000000000001,-0.007,-0.0824,0.005,0.0,-0.007
2026-01-05 21:26:47.815,290.285,-0.003,0.0,0.0,-0.016,-0.017,-0.984,-45.04,-46.74,35.6,0.9965,0.005200000000000001,-0.006900000000000001,-0.0824,0.007,0.001,-0.006
2026-01-05 21:26:47.815,290.29,0.001,0.002,0.0,-0.014,-0.017,-0.986,-45.160000000000004,-46.76,35.800000000000004,0.9965,0.005200000000000001,-0.006900000000000001,-0.0824,0.006,0.001,-0.005
2026-01-05 21:26:47.815,290.295,0.0,0.003,0.0,-0.016,-0.017,-0.984,-45.160000000000004,-46.76,35.800000000000004,0.9965,0.005200000000000001,-0.006900000000000001,-0.0824,0.007,0.001,-0.007
2026-01-05 21:26:47.818,290.3,0.0,-0.001,0.0,-0.015,-0.016,-0.982,-45.42,-46.0,35.72,0.9965,0.005200000000000001,-0.006900000000000001,-0.0824,0.006,0.0,-0.009000000000000001
2026-01-05 21:26:47.818,290.305,0.0,-0.002,0.0,-0.014,-0.018000000000000002,-0.984,-45.42,-46.0,35.72,0.9965,0.005200000000000001,-0.006900000000000001,-0.0824,0.005,0.002,-0.007
2026-01-05 21:26:47.819,290.31,-0.001,-0.002,0.0,-0.015,-0.018000000000000002,-0.986,-45.42,-46.0,35.72,0.9965,0.005200000000000001,-0.006900000000000001,-0.0824,0.006,0.002,-0.005
2026-01-05 21:26:47.819,290.315,-0.001,0.0,0.001,-0.015,-0.018000000000000002,-0.985,-43.52,-46.56,35.42,0.9965,0.005200000000000001,-0.006900000000000001,-0.0824,0.007,0.002,-0.006
2026-01-05 21:26:47.822,290.32,0.001,0.003,0.001,-0.014,-0.018000000000000002,-0.983,-43.52,-46.56,35.42,0.9965,0.005200000000000001,-0.006900000000000001,-0.0824,0.006,0.002,-0.008
2026-01-05 21:26:47.822,290.325,0.001,0.002,0.0,-0.015,-0.017,-0.983,-45.1,-46.12,35.480000000000004,0.9965,0.005200000000000001,-0.006900000000000001,-0.0824,0.006,0.001,-0.007
2026-01-05 21:26:47.823,290.33,0.001,0.0,0.001,-0.014,-0.017,-0.984,-45.1,-46.12,35.480000000000004,0.9965,0.005200000000000001,-0.006900000000000001,-0.0824,0.006,0.001,-0.007
2026-01-05 21:26:47.823,290.335,0.002,-0.001,0.0,-0.016,-0.017,-0.987,-45.1,-46.12,35.480000000000004,0.9965,0.005200000000000001,-0.006900000000000001,-0.0824,0.007,0.001,-0.004
2026-01-05 21:26:47.823,290.34,-0.001,0.001,0.0,-0.015,-0.016,-0.985,-45.36,-46.0,35.57,0.9965,0.005200000000000001,-0.006900000000000001,-0.0824,0.006,0.0,-0.006
2026-01-05 21:26:47.824,290.345,-0.002,-0.001,0.0,-0.014,-0.017,-0.983,-45.36,-46.0,35.57,0.9965,0.005200000000000001,-0.006900000000000001,-0.0824,0.005,0.001,-0.008
2026-01-05 21:26:47.824,290.35,0.0,0.0,0.0,-0.015,-0.016,-0.981,-45.33,-45.800000000000004,35.92,0.9965,0.005200000000000001,-0.006900000000000001,-0.0824,0.006,0.0,-0.01
2026-01-05 21:26:47.824,290.355,0.001,0.002,0.001,-0.015,-0.017,-0.985,-45.33,-45.800000000000004,35.92,0.9965,0.005200000000000001,-0.006900000000000001,-0.0824,0.006,0.001,-0.005
2026-01-05 21:26:47.824,290.36,0.001,0.001,0.0,-0.016,-0.018000000000000002,-0.984,-45.33,-45.800000000000004,35.92,0.9965,0.005200000000000001,-0.006900000000000001,-0.0824,0.007,0.002,-0.006
2026-01-05 21:26:47.830,290.365,0.0,0.0,0.0,-0.014,-0.017,-0.984,-45.300000000000004,-46.27,35.54,0.9965,0.005200000000000001,-0.0068000000000000005,-0.0824,0.005,0.001,-0.006
2026-01-05 21:26:47.830,290.37,-0.002,-0.005,-0.001,-0.014,-0.016,-0.984,-45.300000000000004,-46.27,35.54,0.9965,0.005200000000000001,-0.0068000000000000005,-0.0824,0.005,0.0,-0.007
2026-01-05 21:26:47.831,290.375,-0.001,-0.003,-0.001,-0.015,-0.017,-0.984,-45.480000000000004,-46.59,35.72,0.9965,0.005200000000000001,-0.0068000000000000005,-0.0824,0.006,0.001,-0.007
2026-01-05 21:26:47.831,290.38,0.0,0.0,-0.001,-0.013000000000000001,-0.017,-0.986,-45.480000000000004,-46.59,35.72,0.9965,0.005200000000000001,-0.0068000000000000005,-0.0824,0.005,0.001,-0.005
2026-01-05 21:26:47.834,290.385,-0.001,0.001,0.001,-0.015,-0.018000000000000002,-0.983,-45.480000000000004,-46.59,35.72,0.9965,0.005200000000000001,-0.0068000000000000005,-0.0824,0.006,0.002,-0.008
2026-01-05 21:26:47.835,290.39,0.003,0.0,0.0,-0.013000000000000001,-0.016,-0.983,-44.980000000000004,-46.36,35.36,0.9965,0.005200000000000001,-0.0068000000000000005,-0.0824,0.004,0.0,-0.008
2026-01-05 21:26:47.835,290.395,0.001,0.0,0.001,-0.015,-0.016,-0.988,-44.980000000000004,-46.36,35.36,0.9965,0.005200000000000001,-0.0068000000000000005,-0.0824,0.006,0.0,-0.003
2026-01-05 21:26:47.835,290.4,-0.001,-0.001,0.0,-0.016,-0.018000000000000002,-0.985,-44.980000000000004,-46.36,35.36,0.9965,0.005200000000000001,-0.0067,-0.0824,0.007,0.002,-0.005
2026-01-05 21:26:47.838,290.405,-0.001,-0.003,-0.001,-0.016,-0.017,-0.982,-44.28,-46.0,35.01,0.9965,0.005200000000000001,-0.0067,-0.0824,0.007,0.001,-0.008
2026-01-05 21:26:47.838,290.41,-0.001,0.0,-0.001,-0.015,-0.018000000000000002,-0.981,-44.28,-46.0,35.01,0.9965,0.005200000000000001,-0.0067,-0.0824,0.006,0.002,-0.009000000000000001
2026-01-05 21:26:47.838,290.415,0.001,0.003,0.001,-0.013000000000000001,-0.018000000000000002,-0.985,-44.28,-46.36,34.93,0.9965,0.005200000000000001,-0.0067,-0.0824,0.004,0.002,-0.006
2026-01-05 21:26:47.839,290.42,0.0,0.001,-0.001,-0.016,-0.016,-0.987,-44.28,-46.36,34.93,0.9965,0.005200000000000001,-0.0067,-0.0824,0.007,0.0,-0.004
2026-01-05 21:26:47.839,290.425,-0.001,0.001,0.0,-0.017,-0.018000000000000002,-0.983,-44.28,-46.36,34.93,0.9965,0.005200000000000001,-0.0067,-0.0824,0.008,0.002,-0.008
2026-01-05 21:26:47.842,290.43,0.0,-0.001,-0.001,-0.014,-0.017,-0.982,-44.13,-45.68,35.45,0.9965,0.005200000000000001,-0.0067,-0.0824,0.005,0.001,-0.009000000000000001
2026-01-05 21:26:47.843,290.435,0.0,-0.001,-0.001,-0.013000000000000001,-0.016,-0.984,-44.13,-45.68,35.45,0.9965,0.005200000000000001,-0.0067,-0.0824,0.004,0.0,-0.007
2026-01-05 21:26:47.843,290.44,0.0,0.0,0.0,-0.015,-0.017,-0.985,-44.72,-46.410000000000004,36.15,0.9965,0.005200000000000001,-0.0067,-0.0824,0.006,0.001,-0.006
2026-01-05 21:26:47.845,290.445,-0.001,-0.001,0.0,-0.015,-0.016,-0.984,-44.72,-46.410000000000004,36.15,0.9965,0.005200000000000001,-0.0067,-0.0824,0.006,0.0,-0.006
2026-01-05 21:26:47.845,290.45,0.001,0.0,0.0,-0.015,-0.017,-0.983,-44.72,-46.410000000000004,36.15,0.9965,0.005200000000000001,-0.0067,-0.0824,0.006,0.001,-0.008
2026-01-05 21:26:47.846,290.455,0.003,0.003,0.0,-0.014,-0.018000000000000002,-0.983,-45.45,-46.44,35.83,0.9965,0.0051,-0.0067,-0.0824,0.005,0.002,-0.008
2026-01-05 21:26:47.846,290.46,0.002,0.0,0.0,-0.015,-0.016,-0.985,-45.45,-46.44,35.83,0.9965,0.0051,-0.0067,-0.0824,0.006,0.0,-0.006
2026-01-05 21:26:47.846,290.465,-0.003,-0.003,0.0,-0.014,-0.018000000000000002,-0.987,-45.22,-46.09,36.27,0.9965,0.0051,-0.0066,-0.0824,0.005,0.002,-0.004
2026-01-05 21:26:47.846,290.47,-0.001,-0.004,0.0,-0.014,-0.018000000000000002,-0.981,-45.22,-46.09,36.27,0.9965,0.0051,-0.0066,-0.0824,0.005,0.002,-0.01
2026-01-05 21:26:47.847,290.475,-0.001,0.001,0.0,-0.014,-0.016,-0.982,-45.22,-46.09,36.27,0.9965,0.0051,-0.0066,-0.0824,0.005,0.0,-0.008
2026-01-05 21:26:47.851,290.48,0.001,0.001,0.0,-0.015,-0.017,-0.985,-45.04,-46.03,36.04,0.9965,0.0051,-0.0066,-0.0824,0.006,0.001,-0.006
2026-01-05 21:26:47.852,290.485,0.0,0.002,0.0,-0.014,-0.016,-0.985,-45.04,-46.03,36.04,0.9965,0.0051,-0.0066,-0.0824,0.004,0.0,-0.005
2026-01-05 21:26:47.852,290.49,0.0,0.0,0.001,-0.015,-0.015,-0.984,-44.6,-46.910000000000004,35.92,0.9965,0.0051,-0.0066,-0.0824,0.006,0.0,-0.007
2026-01-05 21:26:47.852,290.495,0.0,-0.001,0.0,-0.015,-0.017,-0.983,-44.6,-46.910000000000004,35.92,0.9965,0.0051,-0.0066,-0.0824,0.006,0.001,-0.008
2026-01-05 21:26:47.852,290.5,-0.001,-0.006,-0.001,-0.015,-0.018000000000000002,-0.984,-44.6,-46.910000000000004,35.92,0.9965,0.0051,-0.0066,-0.0824,0.005,0.002,-0.007
2026-01-05 21:26:47.853,290.505,-0.001,-0.005,0.0,-0.015,-0.017,-0.985,-45.24,-45.83,36.01,0.9965,0.0051,-0.0066,-0.0824,0.006,0.001,-0.005
2026-01-05 21:26:47.853,290.51,-0.001,0.001,0.0,-0.015,-0.017,-0.983,-45.24,-45.83,36.01,0.9965,0.0051,-0.0066,-0.0824,0.005,0.001,-0.008
2026-01-05 21:26:47.853,290.515,-0.001,0.001,0.0,-0.014,-0.017,-0.981,-44.95,-46.76,35.89,0.9965,0.0051,-0.0066,-0.0824,0.004,0.001,-0.009000000000000001
2026-01-05 21:26:47.859,290.52,0.002,0.0,0.001,-0.015,-0.017,-0.985,-44.95,-46.76,35.89,0.9965,0.0051,-0.0066,-0.0824,0.006,0.001,-0.006
2026-01-05 21:26:47.860,290.525,0.003,0.001,0.001,-0.014,-0.017,-0.985,-44.95,-46.76,35.89,0.9965,0.0051,-0.0066,-0.0824,0.005,0.001,-0.005
2026-01-05 21:26:47.861,290.53,-0.001,0.0,-0.001,-0.016,-0.017,-0.985,-44.480000000000004,-45.65,35.54,0.9965,0.0051,-0.006500000000000001,-0.0824,0.006,0.001,-0.006
2026-01-05 21:26:47.861,290.535,-0.001,-0.003,0.0,-0.015,-0.018000000000000002,-0.984,-44.480000000000004,-45.65,35.54,0.9965,0.0051,-0.006500000000000001,-0.0824,0.005,0.002,-0.007
2026-01-05 21:26:47.862,290.54,0.0,0.002,0.0,-0.014,-0.018000000000000002,-0.982,-44.4,-46.27,35.22,0.9965,0.0051,-0.006500000000000001,-0.0824,0.005,0.002,-0.008
2026-01-05 21:26:47.862,290.545,0.0,0.002,0.0,-0.015,-0.018000000000000002,-0.985,-44.4,-46.27,35.22,0.9965,0.0051,-0.006500000000000001,-0.0824,0.006,0.002,-0.006
2026-01-05 21:26:47.863,290.55,0.001,0.003,0.0,-0.015,-0.016,-0.986,-44.4,-46.27,35.22,0.9965,0.0051,-0.006500000000000001,-0.0824,0.005,0.0,-0.005
2026-01-05 21:26:47.863,290.555,0.0,0.001,0.001,-0.014,-0.017,-0.983,-44.19,-46.09,35.45,0.9965,0.0051,-0.006500000000000001,-0.0824,0.005,0.001,-0.007
2026-01-05 21:26:47.863,290.56,0.0,-0.002,0.0,-0.014,-0.016,-0.984,-44.19,-46.09,35.45,0.9965,0.0051,-0.006500000000000001,-0.0824,0.005,0.0,-0.006
2026-01-05 21:26:47.863,290.565,-0.004,-0.001,0.0,-0.014,-0.018000000000000002,-0.989,-45.1,-46.38,36.18,0.9965,0.0051,-0.006500000000000001,-0.0824,0.005,0.002,-0.002
2026-01-05 21:26:47.868,290.57,-0.001,-0.002,0.0,-0.014,-0.017,-0.983,-45.1,-46.38,36.18,0.9965,0.0051,-0.006500000000000001,-0.0824,0.004,0.001,-0.008
2026-01-05 21:26:47.868,290.575,0.001,0.002,0.0,-0.013000000000000001,-0.017,-0.983,-45.1,-46.38,36.18,0.9965,0.0051,-0.006500000000000001,-0.0824,0.004,0.001,-0.008
2026-01-05 21:26:47.869,290.58,0.001,0.005,0.0,-0.014,-0.017,-0.983,-44.84,-46.5,35.160000000000004,0.9965,0.0051,-0.006500000000000001,-0.0824,0.004,0.001,-0.007
2026-01-05 21:26:47.869,290.585,0.004,0.002,0.001,-0.014,-0.017,-0.986,-44.84,-46.5,35.160000000000004,0.9965,0.0051,-0.006500000000000001,-0.0824,0.005,0.001,-0.005
2026-01-05 21:26:47.869,290.59,0.0,0.0,0.0,-0.015,-0.017,-0.987,-44.980000000000004,-46.12,36.04,0.9965,0.0051,-0.006500000000000001,-0.0824,0.006,0.001,-0.004
2026-01-05 21:26:47.870,290.595,-0.001,0.001,0.0,-0.014,-0.017,-0.982,-44.980000000000004,-46.12,36.04,0.9965,0.0051,-0.006500000000000001,-0.0824,0.005,0.001,-0.009000000000000001
2026-01-05 21:26:47.870,290.6,-0.001,-0.001,0.0,-0.015,-0.017,-0.982,-44.980000000000004,-46.12,36.04,0.9965,0.0051,-0.006500000000000001,-0.0824,0.006,0.001,-0.009000000000000001
2026-01-05 21:26:47.870,290.605,0.0,0.002,-0.001,-0.015,-0.018000000000000002,-0.984,-44.28,-45.92,35.63,0.9965,0.0051,-0.006500000000000001,-0.0824,0.005,0.002,-0.007
2026-01-05 21:26:47.870,290.61,0.001,0.001,0.0,-0.015,-0.017,-0.985,-44.28,-45.92,35.63,0.9965,0.0051,-0.006500000000000001,-0.0824,0.006,0.001,-0.006
2026-01-05 21:26:47.871,290.615,0.0,0.004,0.0,-0.014,-0.017,-0.985,-44.28,-45.92,36.12,0.9965,0.0051,-0.006500000000000001,-0.0824,0.005,0.001,-0.006
2026-01-05 21:26:47.871,290.62,0.0,0.0,0.0,-0.016,-0.018000000000000002,-0.983,-43.32,-46.0,36.12,0.9965,0.0051,-0.006500000000000001,-0.0824,0.006,0.002,-0.008
2026-01-05 21:26:47.871,290.625,0.001,-0.002,0.0,-0.014,-0.018000000000000002,-0.984,-43.32,-46.0,36.12,0.9965,0.0051,-0.006500000000000001,-0.0824,0.005,0.002,-0.007
2026-01-05 21:26:47.872,290.63,-0.001,-0.002,0.0,-0.014,-0.019,-0.991,-44.34,-45.77,35.54,0.9965,0.005,-0.0064,-0.0823,0.004,0.002,0.0
2026-01-05 21:26:47.881,290.635,-0.001,0.0,0.0,-0.016,-0.015,-0.986,-44.34,-45.77,35.54,0.9965,0.0051,-0.0064,-0.0823,0.006,0.0,-0.005
2026-01-05 21:26:47.881,290.64,0.0,0.002,0.0,-0.015,-0.016,-0.98,-44.34,-45.77,35.54,0.9965,0.0051,-0.0064,-0.0823,0.005,0.0,-0.011
2026-01-05 21:26:47.883,290.645,0.001,0.004,0.0,-0.014,-0.016,-0.983,-43.08,-45.39,36.21,0.9965,0.005,-0.0064,-0.0823,0.004,0.0,-0.008
2026-01-05 21:26:47.883,290.65,0.001,0.002,0.001,-0.016,-0.017,-0.986,-43.08,-45.39,36.21,0.9965,0.005,-0.0064,-0.0823,0.006,0.001,-0.004
2026-01-05 21:26:47.884,290.655,0.0,0.002,0.001,-0.014,-0.017,-0.987,-43.96,-45.36,35.83,0.9965,0.005,-0.0064,-0.0824,0.004,0.001,-0.004
2026-01-05 21:26:47.884,290.66,-0.003,-0.002,0.001,-0.015,-0.016,-0.982,-43.96,-45.36,35.83,0.9965,0.005,-0.0064,-0.0824,0.005,0.0,-0.009000000000000001
2026-01-05 21:26:47.884,290.665,-0.001,0.001,0.0,-0.013000000000000001,-0.017,-0.979,-43.96,-45.36,35.83,0.9965,0.005,-0.0064,-0.0824,0.003,0.001,-0.012
2026-01-05 21:26:47.884,290.67,-0.001,-0.003,0.001,-0.013000000000000001,-0.017,-0.983,-44.37,-45.800000000000004,35.63,0.9965,0.005,-0.0064,-0.0824,0.004,0.001,-0.008
2026-01-05 21:26:47.885,290.675,0.003,0.005,0.0,-0.015,-0.017,-0.988,-44.37,-45.800000000000004,35.63,0.9965,0.005,-0.0064,-0.0824,0.005,0.001,-0.003
2026-01-05 21:26:47.885,290.68,0.0,0.003,-0.001,-0.013000000000000001,-0.018000000000000002,-0.985,-44.13,-45.65,35.980000000000004,0.9965,0.005,-0.0064,-0.0824,0.003,0.002,-0.005
2026-01-05 21:26:47.885,290.685,0.0,0.0,0.0,-0.014,-0.015,-0.979,-44.13,-45.65,35.980000000000004,0.9965,0.005,-0.0064,-0.0824,0.004,0.0,-0.011
2026-01-05 21:26:47.886,290.69,-0.001,-0.003,0.0,-0.015,-0.018000000000000002,-0.98,-44.13,-45.65,35.980000000000004,0.9965,0.005,-0.0064,-0.0824,0.005,0.002,-0.01
2026-01-05 21:26:47.886,290.695,-0.001,-0.003,0.0,-0.014,-0.016,-0.984,-44.46,-46.06,35.86,0.9965,0.005,-0.0064,-0.0824,0.004,0.0,-0.007
2026-01-05 21:26:47.894,290.7,0.0,0.0,0.0,-0.016,-0.016,-0.986,-44.46,-46.06,35.86,0.9965,0.005,-0.0063,-0.0824,0.006,0.0,-0.005
2026-01-05 21:26:47.896,290.705,-0.001,0.002,0.0,-0.015,-0.016,-0.982,-44.86,-46.27,36.36,0.9965,0.005,-0.0063,-0.0824,0.005,0.0,-0.008
2026-01-05 21:26:47.896,290.71,0.001,0.002,0.0,-0.014,-0.018000000000000002,-0.984,-44.86,-46.27,36.36,0.9965,0.005,-0.0063,-0.0824,0.005,0.001,-0.006
2026-01-05 21:26:47.896,290.715,0.001,0.0,0.001,-0.015,-0.017,-0.985,-44.86,-46.27,36.36,0.9965,0.005,-0.0063,-0.0824,0.005,0.001,-0.005
2026-01-05 21:26:47.896,290.72,0.0,-0.001,0.0,-0.014,-0.017,-0.982,-43.93,-46.0,36.18,0.9965,0.005,-0.0063,-0.0824,0.004,0.001,-0.009000000000000001
2026-01-05 21:26:47.897,290.725,0.0,-0.005,-0.001,-0.015,-0.015,-0.981,-43.93,-46.0,36.18,0.9965,0.005,-0.0063,-0.0824,0.005,0.0,-0.01
2026-01-05 21:26:47.897,290.73,-0.003,-0.003,0.0,-0.017,-0.017,-0.984,-45.19,-46.12,36.42,0.9965,0.005,-0.0063,-0.0824,0.007,0.001,-0.007
2026-01-05 21:26:47.897,290.735,0.0,-0.001,-0.001,-0.014,-0.016,-0.987,-45.19,-46.12,36.42,0.9965,0.005,-0.0063,-0.0824,0.004,0.0,-0.004
2026-01-05 21:26:47.898,290.74,0.001,0.006,-0.001,-0.014,-0.017,-0.987,-45.19,-46.12,36.42,0.9965,0.005,-0.0063,-0.0824,0.004,0.001,-0.004
2026-01-05 21:26:47.898,290.745,0.0,0.002,0.0,-0.014,-0.017,-0.982,-45.01,-46.24,36.27,0.9965,0.005,-0.0063,-0.0824,0.004,0.001,-0.009000000000000001
2026-01-05 21:26:47.898,290.75,0.0,0.0,0.0,-0.016,-0.015,-0.98,-45.01,-46.24,36.27,0.9965,0.005,-0.0063,-0.0824,0.006,0.0,-0.01
2026-01-05 21:26:47.907,290.755,0.001,-0.006,0.0,-0.014,-0.016,-0.983,-44.69,-45.71,35.57,0.9965,0.005,-0.0063,-0.0824,0.004,0.0,-0.007
2026-01-05 21:26:47.907,290.76,0.0,-0.002,0.0,-0.015,-0.018000000000000002,-0.985,-44.69,-45.71,35.57,0.9965,0.005,-0.0063,-0.0824,0.005,0.002,-0.006
2026-01-05 21:26:47.908,290.765,-0.002,-0.001,0.0,-0.016,-0.017,-0.985,-44.69,-45.71,35.57,0.9965,0.005,-0.006200000000000001,-0.0824,0.006,0.001,-0.006
2026-01-05 21:26:47.910,290.77,0.001,0.001,0.0,-0.016,-0.017,-0.984,-44.86,-46.27,35.74,0.9965,0.005,-0.006200000000000001,-0.0824,0.006,0.001,-0.007
2026-01-05 21:26:47.911,290.775,0.0,0.0,0.0,-0.015,-0.016,-0.98,-44.86,-46.27,35.74,0.9965,0.005,-0.006200000000000001,-0.0824,0.005,0.0,-0.011
2026-01-05 21:26:47.911,290.78,0.002,0.002,0.0,-0.014,-0.017,-0.983,-44.46,-46.33,36.04,0.9965,0.005,-0.006200000000000001,-0.0824,0.004,0.001,-0.008
2026-01-05 21:26:47.911,290.785,-0.001,-0.001,0.0,-0.016,-0.017,-0.985,-44.46,-46.33,36.04,0.9965,0.005,-0.006200000000000001,-0.0824,0.006,0.0,-0.006
2026-01-05 21:26:47.911,290.79,0.001,-0.002,0.0,-0.015,-0.017,-0.984,-44.46,-46.33,36.04,0.9965,0.005,-0.006200000000000001,-0.0824,0.005,0.001,-0.007
2026-01-05 21:26:47.912,290.795,0.0,-0.003,0.0,-0.014,-0.015,-0.985,-44.480000000000004,-46.94,36.65,0.9965,0.005,-0.006200000000000001,-0.0824,0.004,0.0,-0.005
2026-01-05 21:26:47.912,290.8,0.001,0.002,0.0,-0.015,-0.017,-0.986,-44.480000000000004,-46.94,36.65,0.9965,0.005,-0.006200000000000001,-0.0824,0.005,0.001,-0.004
2026-01-05 21:26:47.912,290.805,0.001,0.002,0.0,-0.014,-0.017,-0.985,-44.69,-45.95,36.1,0.9965,0.005,-0.006200000000000001,-0.0824,0.004,0.001,-0.005
2026-01-05 21:26:47.913,290.81,-0.002,0.002,0.0,-0.013000000000000001,-0.017,-0.984,-44.69,-45.95,36.1,0.9965,0.005,-0.006200000000000001,-0.0824,0.003,0.0,-0.007
2026-01-05 21:26:47.913,290.815,0.0,-0.001,0.0,-0.015,-0.017,-0.981,-44.69,-45.95,36.1,0.9965,0.005,-0.006200000000000001,-0.0824,0.005,0.001,-0.01
2026-01-05 21:26:47.913,290.82,-0.001,-0.004,-0.001,-0.015,-0.018000000000000002,-0.982,-43.99,-46.47,35.660000000000004,0.9965,0.005,-0.006200000000000001,-0.0824,0.005,0.002,-0.009000000000000001
2026-01-05 21:26:47.914,290.825,-0.001,-0.003,0.0,-0.015,-0.017,-0.988,-43.99,-46.47,35.660000000000004,0.9965,0.005,-0.0061,-0.0824,0.005,0.001,-0.002
2026-01-05 21:26:47.914,290.83,-0.001,0.001,0.0,-0.015,-0.016,-0.984,-45.04,-45.95,35.660000000000004,0.9965,0.005,-0.0061,-0.0824,0.005,0.0,-0.007
2026-01-05 21:26:47.924,290.835,0.002,0.004,0.0,-0.014,-0.017,-0.98,-45.04,-45.95,35.660000000000004,0.9965,0.005,-0.0061,-0.0824,0.004,0.001,-0.01
2026-01-05 21:26:47.926,290.84,0.001,0.003,0.0,-0.014,-0.016,-0.984,-45.04,-45.95,35.660000000000004,0.9965,0.005,-0.0061,-0.0824,0.004,0.0,-0.007
2026-01-05 21:26:47.926,290.845,0.002,-0.002,0.001,-0.014,-0.016,-0.984,-45.300000000000004,-47.67,35.83,0.9965,0.005,-0.0061,-0.0824,0.004,0.0,-0.007
2026-01-05 21:26:47.927,290.85,0.0,-0.001,0.0,-0.014,-0.017,-0.986,-45.300000000000004,-47.67,35.83,0.9965,0.005,-0.0061,-0.0824,0.004,0.0,-0.004
2026-01-05 21:26:47.927,290.855,-0.003,-0.003,0.0,-0.014,-0.016,-0.984,-45.300000000000004,-47.67,35.83,0.9965,0.005,-0.0061,-0.0824,0.004,0.0,-0.006
2026-01-05 21:26:47.928,290.86,-0.001,0.0,0.0,-0.014,-0.016,-0.983,-45.07,-45.65,36.27,0.9965,0.005,-0.0061,-0.0824,0.004,0.0,-0.008
2026-01-05 21:26:47.928,290.865,0.001,0.001,0.0,-0.015,-0.017,-0.985,-45.07,-45.65,36.27,0.9965,0.005,-0.0061,-0.0824,0.004,0.001,-0.006
2026-01-05 21:26:47.928,290.87,0.0,0.004,0.001,-0.016,-0.018000000000000002,-0.984,-44.63,-47.47,35.980000000000004,0.9965,0.005,-0.0061,-0.0824,0.005,0.001,-0.007
2026-01-05 21:26:47.929,290.875,0.001,0.006,0.0,-0.015,-0.018000000000000002,-0.984,-44.63,-47.47,35.980000000000004,0.9965,0.005,-0.0061,-0.0824,0.005,0.002,-0.007
2026-01-05 21:26:47.929,290.88,0.001,0.001,0.0,-0.013000000000000001,-0.016,-0.983,-44.63,-47.47,35.980000000000004,0.9965,0.005,-0.0061,-0.0824,0.002,0.0,-0.007
2026-01-05 21:26:47.930,290.885,0.0,0.0,0.001,-0.015,-0.018000000000000002,-0.983,-44.19,-45.800000000000004,35.39,0.9965,0.005,-0.0061,-0.0824,0.004,0.002,-0.008
2026-01-05 21:26:47.930,290.89,-0.001,0.001,0.0,-0.015,-0.017,-0.987,-44.19,-45.800000000000004,35.39,0.9965,0.005,-0.0061,-0.0824,0.005,0.001,-0.004
2026-01-05 21:26:47.930,290.895,-0.002,-0.001,0.0,-0.014,-0.017,-0.985,-44.1,-46.47,36.1,0.9965,0.005,-0.0061,-0.0824,0.004,0.0,-0.006
2026-01-05 21:26:47.931,290.9,-0.001,0.0,0.001,-0.015,-0.017,-0.981,-44.1,-46.47,36.1,0.9965,0.005,-0.0061,-0.0824,0.004,0.001,-0.01
2026-01-05 21:26:47.931,290.905,0.0,0.003,0.0,-0.015,-0.016,-0.981,-44.1,-46.47,36.1,0.9965,0.005,-0.0061,-0.0824,0.005,0.0,-0.01
2026-01-05 21:26:47.932,290.91,0.001,0.0,0.0,-0.015,-0.016,-0.988,-44.81,-46.15,35.6,0.9965,0.005,-0.0061,-0.0824,0.005,0.0,-0.003
2026-01-05 21:26:47.932,290.915,-0.001,-0.003,0.001,-0.015,-0.018000000000000002,-0.988,-44.81,-46.15,35.6,0.9965,0.005,-0.006,-0.0824,0.005,0.002,-0.003
2026-01-05 21:26:47.932,290.92,-0.003,-0.001,-0.002,-0.015,-0.016,-0.98,-44.37,-47.14,35.22,0.9965,0.005,-0.006,-0.0824,0.004,0.0,-0.01
2026-01-05 21:26:47.933,290.925,-0.001,-0.001,0.0,-0.015,-0.016,-0.981,-44.37,-47.14,35.22,0.9965,0.005,-0.006,-0.0824,0.005,0.0,-0.01
2026-01-05 21:26:47.933,290.93,0.0,0.0,0.0,-0.014,-0.017,-0.984,-44.37,-47.14,35.22,0.9965,0.005,-0.006,-0.0824,0.003,0.001,-0.006
2026-01-05 21:26:47.934,290.935,0.0,0.005,-0.001,-0.014,-0.017,-0.986,-44.54,-47.35,35.72,0.9965,0.005,-0.006,-0.0824,0.004,0.0,-0.005
2026-01-05 21:26:47.934,290.94,0.0,0.002,0.001,-0.016,-0.017,-0.984,-44.54,-47.35,35.72,0.9965,0.005,-0.006,-0.0824,0.006,0.001,-0.007
2026-01-05 21:26:47.934,290.945,0.001,-0.001,0.001,-0.013000000000000001,-0.016,-0.983,-44.31,-46.21,35.77,0.9965,0.005,-0.006,-0.0824,0.002,0.0,-0.008
2026-01-05 21:26:47.934,290.95,0.002,-0.004,0.0,-0.013000000000000001,-0.016,-0.986,-44.31,-46.21,35.77,0.9965,0.005,-0.006,-0.0824,0.003,0.0,-0.005
2026-01-05 21:26:47.935,290.955,0.001,-0.003,-0.001,-0.015,-0.017,-0.985,-44.31,-46.21,35.77,0.9965,0.0049,-0.006,-0.0824,0.004,0.001,-0.005
2026-01-05 21:26:47.936,290.96,-0.001,0.001,0.001,-0.013000000000000001,-0.017,-0.984,-44.43,-46.12,34.75,0.9965,0.0049,-0.006,-0.0824,0.003,0.001,-0.007
2026-01-05 21:26:47.936,290.965,-0.001,0.005,0.0,-0.013000000000000001,-0.017,-0.986,-44.43,-46.12,34.75,0.9965,0.005,-0.006,-0.0824,0.003,0.001,-0.005
2026-01-05 21:26:47.936,290.97,0.001,0.002,0.0,-0.013000000000000001,-0.017,-0.983,-44.660000000000004,-46.06,34.980000000000004,0.9965,0.0049,-0.006,-0.0824,0.002,0.001,-0.007
2026-01-05 21:26:47.937,290.975,0.001,0.0,0.0,-0.015,-0.018000000000000002,-0.985,-44.660000000000004,-46.06,34.980000000000004,0.9965,0.0049,-0.006,-0.0824,0.005,0.002,-0.005
2026-01-05 21:26:47.961,290.98,0.0,0.001,0.0,-0.016,-0.017,-0.984,-44.660000000000004,-46.06,34.980000000000004,0.9965,0.0049,-0.006,-0.0824,0.005,0.001,-0.007
2026-01-05 21:26:47.961,290.985,-0.001,-0.007,0.0,-0.016,-0.017,-0.982,-45.01,-46.21,35.480000000000004,0.9965,0.0049,-0.006,-0.0824,0.005,0.001,-0.008
2026-01-05 21:26:47.961,290.99,0.0,0.0,-0.001,-0.014,-0.018000000000000002,-0.984,-45.01,-46.21,35.480000000000004,0.9965,0.0049,-0.006,-0.0824,0.003,0.002,-0.006
2026-01-05 21:26:47.962,290.995,-0.003,-0.003,0.0,-0.015,-0.017,-0.984,-44.89,-46.53,35.51,0.9965,0.0049,-0.006,-0.0824,0.004,0.001,-0.006
2026-01-05 21:26:47.962,291.0,0.0,0.001,-0.001,-0.015,-0.017,-0.985,-44.89,-46.53,35.51,0.9965,0.0049,-0.0059,-0.0824,0.004,0.001,-0.005
2026-01-05 21:26:47.962,291.005,-0.001,0.002,0.0,-0.014,-0.015,-0.982,-44.89,-46.53,35.51,0.9965,0.0049,-0.006,-0.0824,0.003,0.0,-0.008
2026-01-05 21:26:47.963,291.01,0.002,0.001,0.0,-0.014,-0.016,-0.981,-45.04,-46.36,35.54,0.9965,0.0049,-0.006,-0.0824,0.004,0.0,-0.01
2026-01-05 21:26:47.963,291.015,0.001,-0.002,0.001,-0.014,-0.017,-0.983,-45.04,-46.36,35.54,0.9965,0.0049,-0.0059,-0.0824,0.003,0.0,-0.007
2026-01-05 21:26:47.963,291.02,0.0,-0.002,0.0,-0.014,-0.018000000000000002,-0.988,-45.27,-46.27,35.74,0.9965,0.0049,-0.0059,-0.0824,0.004,0.001,-0.003
2026-01-05 21:26:47.963,291.025,-0.004,0.0,0.0,-0.015,-0.017,-0.984,-45.27,-46.27,35.74,0.9965,0.0049,-0.0059,-0.0824,0.005,0.001,-0.007
2026-01-05 21:26:47.964,291.03,0.0,0.006,0.0,-0.015,-0.017,-0.984,-45.27,-46.27,35.74,0.9965,0.0049,-0.0059,-0.0824,0.004,0.0,-0.007
2026-01-05 21:26:47.964,291.035,0.001,0.006,0.0,-0.014,-0.016,-0.983,-45.160000000000004,-46.300000000000004,35.42,0.9965,0.0049,-0.0059,-0.0824,0.004,0.0,-0.008
2026-01-05 21:26:47.973,291.04,0.001,0.001,0.0,-0.014,-0.018000000000000002,-0.984,-45.160000000000004,-46.300000000000004,35.42,0.9965,0.0049,-0.0059,-0.0824,0.004,0.002,-0.007
2026-01-05 21:26:47.973,291.045,0.0,-0.001,0.0,-0.014,-0.017,-0.985,-45.160000000000004,-46.15,36.18,0.9965,0.0049,-0.0059,-0.0824,0.003,0.0,-0.006
2026-01-05 21:26:47.973,291.05,0.0,-0.001,0.0,-0.015,-0.017,-0.982,-45.160000000000004,-46.15,36.18,0.9965,0.0049,-0.0059,-0.0824,0.004,0.001,-0.009000000000000001
2026-01-05 21:26:47.974,291.055,-0.001,-0.003,0.0,-0.015,-0.017,-0.982,-45.160000000000004,-46.15,36.18,0.9965,0.0049,-0.0059,-0.0824,0.004,0.001,-0.008
2026-01-05 21:26:47.974,291.06,0.0,0.001,-0.001,-0.015,-0.017,-0.986,-44.980000000000004,-46.56,36.04,0.9965,0.0049,-0.0059,-0.0824,0.004,0.0,-0.005
2026-01-05 21:26:47.974,291.065,0.003,0.005,-0.001,-0.015,-0.017,-0.984,-44.980000000000004,-46.56,36.04,0.9965,0.0049,-0.0059,-0.0824,0.004,0.001,-0.007
2026-01-05 21:26:47.975,291.07,0.002,0.003,0.0,-0.014,-0.018000000000000002,-0.982,-44.980000000000004,-46.56,36.04,0.9965,0.0049,-0.0059,-0.0824,0.004,0.002,-0.009000000000000001
2026-01-05 21:26:47.975,291.075,0.0,-0.001,0.0,-0.014,-0.016,-0.984,-45.300000000000004,-46.09,35.57,0.9965,0.0049,-0.0059,-0.0824,0.003,0.0,-0.007
2026-01-05 21:26:47.981,291.08,0.0,-0.004,0.0,-0.014,-0.018000000000000002,-0.986,-45.300000000000004,-46.09,35.57,0.9965,0.0049,-0.0059,-0.0824,0.004,0.001,-0.005
2026-01-05 21:26:47.982,291.085,-0.001,-0.006,0.0,-0.014,-0.017,-0.986,-44.78,-46.09,35.39,0.9965,0.0049,-0.0059,-0.0824,0.003,0.001,-0.005
2026-01-05 21:26:47.982,291.09,-0.001,0.0,0.0,-0.013000000000000001,-0.017,-0.982,-44.78,-46.09,35.39,0.9965,0.0049,-0.0059,-0.0824,0.003,0.0,-0.008
2026-01-05 21:26:47.982,291.095,0.0,0.002,0.0,-0.015,-0.017,-0.981,-44.78,-46.09,35.39,0.9965,0.0049,-0.0059,-0.0824,0.004,0.001,-0.009000000000000001
2026-01-05 21:26:47.983,291.1,0.0,0.001,0.0,-0.013000000000000001,-0.017,-0.986,-45.160000000000004,-46.12,35.42,0.9965,0.0049,-0.0059,-0.0824,0.003,0.001,-0.005
2026-01-05 21:26:47.983,291.105,0.0,0.001,0.0,-0.015,-0.017,-0.985,-45.160000000000004,-46.12,35.42,0.9965,0.0049,-0.0059,-0.0824,0.004,0.001,-0.006
2026-01-05 21:26:47.983,291.11,-0.001,0.0,0.0,-0.015,-0.018000000000000002,-0.983,-45.04,-45.77,34.980000000000004,0.9965,0.0049,-0.0059,-0.0824,0.004,0.001,-0.008
2026-01-05 21:26:47.983,291.115,0.0,0.0,0.0,-0.016,-0.016,-0.983,-45.04,-45.77,34.980000000000004,0.9965,0.0049,-0.0059,-0.0824,0.005,0.0,-0.007
2026-01-05 21:26:47.984,291.12,0.0,-0.001,0.0,-0.016,-0.017,-0.984,-45.04,-45.77,34.980000000000004,0.9965,0.0049,-0.0058000000000000005,-0.0824,0.005,0.001,-0.007
2026-01-05 21:26:47.984,291.125,0.001,0.003,0.001,-0.015,-0.017,-0.983,-44.63,-47.38,35.39,0.9965,0.0049,-0.0058000000000000005,-0.0824,0.004,0.001,-0.008
2026-01-05 21:26:47.984,291.13,-0.001,0.001,0.0,-0.016,-0.017,-0.986,-44.63,-47.38,35.39,0.9965,0.0049,-0.0058000000000000005,-0.0824,0.005,0.001,-0.005
2026-01-05 21:26:47.985,291.135,0.0,0.002,0.0,-0.017,-0.017,-0.983,-44.43,-45.51,35.45,0.9965,0.0049,-0.0058000000000000005,-0.0824,0.006,0.001,-0.008
2026-01-05 21:26:47.985,291.14,0.001,0.002,0.0,-0.015,-0.018000000000000002,-0.981,-44.43,-45.51,35.45,0.9965,0.0049,-0.0058000000000000005,-0.0824,0.005,0.002,-0.009000000000000001
2026-01-05 21:26:47.985,291.145,0.002,0.0,0.0,-0.014,-0.016,-0.985,-44.43,-45.51,35.45,0.9965,0.0049,-0.0058000000000000005,-0.0824,0.003,0.0,-0.006
2026-01-05 21:26:47.986,291.15,0.001,-0.003,0.0,-0.018000000000000002,-0.017,-0.983,-44.75,-46.21,35.28,0.9965,0.0049,-0.0058000000000000005,-0.0824,0.007,0.001,-0.007
2026-01-05 21:26:47.986,291.155,-0.002,0.0,0.0,-0.014,-0.016,-0.984,-44.75,-46.21,35.28,0.9965,0.0049,-0.0058000000000000005,-0.0824,0.003,0.0,-0.006
2026-01-05 21:26:47.986,291.16,-0.001,0.0,0.0,-0.015,-0.015,-0.985,-44.69,-46.21,34.69,0.9965,0.0049,-0.0058000000000000005,-0.0824,0.005,0.0,-0.006
2026-01-05 21:26:48.000,291.165,0.002,0.0,-0.001,-0.015,-0.017,-0.982,-44.69,-46.21,34.69,0.9965,0.0049,-0.0058000000000000005,-0.0824,0.004,0.001,-0.009000000000000001
2026-01-05 21:26:48.000,291.17,0.0,0.0,0.0,-0.013000000000000001,-0.015,-0.986,-44.69,-46.21,34.69,0.9965,0.0049,-0.0058000000000000005,-0.0824,0.002,0.0,-0.004
2026-01-05 21:26:48.001,291.175,0.0,0.001,0.0,-0.015,-0.017,-0.984,-44.72,-46.15,35.74,0.9965,0.0049,-0.0058000000000000005,-0.0824,0.005,0.001,-0.007
2026-01-05 21:26:48.003,291.18,-0.001,-0.002,-0.001,-0.014,-0.017,-0.982,-44.72,-46.15,35.74,0.9965,0.0049,-0.0058000000000000005,-0.0824,0.003,0.001,-0.008
2026-01-05 21:26:48.003,291.185,0.0,0.001,0.0,-0.013000000000000001,-0.016,-0.984,-44.63,-46.38,35.77,0.9965,0.0049,-0.0058000000000000005,-0.0824,0.002,0.0,-0.007
2026-01-05 21:26:48.003,291.19,0.001,0.006,0.0,-0.015,-0.018000000000000002,-0.986,-44.63,-46.38,35.77,0.9965,0.0049,-0.0058000000000000005,-0.0824,0.004,0.002,-0.005
2026-01-05 21:26:48.004,291.195,0.001,0.002,0.0,-0.014,-0.017,-0.984,-44.63,-46.38,35.77,0.9965,0.0049,-0.0058000000000000005,-0.0824,0.003,0.0,-0.007
2026-01-05 21:26:48.004,291.2,0.0,0.002,-0.001,-0.014,-0.017,-0.982,-44.95,-47.14,35.980000000000004,0.9965,0.0049,-0.0058000000000000005,-0.0824,0.003,0.001,-0.009000000000000001
2026-01-05 21:26:48.004,291.205,0.003,0.0,0.0,-0.016,-0.017,-0.982,-44.95,-47.14,35.980000000000004,0.9965,0.0049,-0.0058000000000000005,-0.0824,0.005,0.001,-0.009000000000000001
2026-01-05 21:26:48.004,291.21,0.0,-0.004,0.0,-0.015,-0.017,-0.987,-45.65,-45.92,35.480000000000004,0.9965,0.0049,-0.0058000000000000005,-0.0824,0.004,0.0,-0.003
2026-01-05 21:26:48.005,291.215,-0.004,-0.004,0.0,-0.016,-0.017,-0.987,-45.65,-45.92,35.480000000000004,0.9965,0.0049,-0.0058000000000000005,-0.0824,0.005,0.001,-0.004
2026-01-05 21:26:48.005,291.22,0.0,0.002,0.0,-0.015,-0.017,-0.982,-45.65,-45.92,35.480000000000004,0.9965,0.0049,-0.0058000000000000005,-0.0824,0.004,0.001,-0.009000000000000001
2026-01-05 21:26:48.005,291.225,0.001,0.002,0.001,-0.013000000000000001,-0.015,-0.983,-45.6,-46.59,35.34,0.9965,0.0049,-0.0058000000000000005,-0.0824,0.002,0.0,-0.008
2026-01-05 21:26:48.006,291.23,0.003,0.004,0.0,-0.015,-0.017,-0.984,-45.6,-46.59,35.34,0.9965,0.0049,-0.0058000000000000005,-0.0824,0.004,0.001,-0.007
2026-01-05 21:26:48.006,291.235,0.001,0.002,0.0,-0.014,-0.018000000000000002,-0.985,-45.19,-45.95,35.54,0.9965,0.0048000000000000004,-0.0058000000000000005,-0.0824,0.003,0.002,-0.006
2026-01-05 21:26:48.016,291.24,-0.001,0.0,0.0,-0.015,-0.016,-0.984,-45.19,-45.95,35.54,0.9965,0.0049,-0.0058000000000000005,-0.0824,0.004,0.0,-0.007
2026-01-05 21:26:48.016,291.245,-0.001,-0.004,0.0,-0.014,-0.016,-0.982,-45.19,-45.95,35.54,0.9965,0.0049,-0.0058000000000000005,-0.0824,0.003,0.0,-0.008
2026-01-05 21:26:48.016,291.25,0.0,0.0,0.0,-0.013000000000000001,-0.017,-0.983,-44.95,-46.09,35.95,0.9965,0.0049,-0.0058000000000000005,-0.0824,0.002,0.001,-0.008
2026-01-05 21:26:48.016,291.255,-0.001,0.002,0.0,-0.013000000000000001,-0.017,-0.987,-44.95,-46.09,35.95,0.9965,0.0049,-0.0058000000000000005,-0.0824,0.002,0.0,-0.004
2026-01-05 21:26:48.017,291.26,0.0,0.004,0.0,-0.016,-0.017,-0.984,-45.300000000000004,-46.47,35.660000000000004,0.9965,0.0049,-0.0058000000000000005,-0.0824,0.005,0.001,-0.006
2026-01-05 21:26:48.017,291.265,0.0,0.002,0.0,-0.015,-0.016,-0.983,-45.300000000000004,-46.47,35.660000000000004,0.9965,0.0049,-0.0058000000000000005,-0.0824,0.004,0.0,-0.008
2026-01-05 21:26:48.017,291.27,0.0,-0.003,0.0,-0.015,-0.017,-0.985,-45.300000000000004,-46.47,35.660000000000004,0.9965,0.0049,-0.0058000000000000005,-0.0824,0.003,0.001,-0.006
2026-01-05 21:26:48.021,291.275,0.0,-0.004,0.0,-0.015,-0.017,-0.985,-45.07,-46.53,35.980000000000004,0.9965,0.0048000000000000004,-0.0057,-0.0824,0.003,0.001,-0.006
2026-01-05 21:26:48.022,291.28,-0.001,0.0,-0.002,-0.015,-0.017,-0.983,-45.07,-46.53,35.980000000000004,0.9965,0.0049,-0.0057,-0.0824,0.004,0.001,-0.008
2026-01-05 21:26:48.024,291.285,-0.001,-0.004,0.001,-0.015,-0.015,-0.983,-45.07,-46.53,35.980000000000004,0.9965,0.0049,-0.0057,-0.0824,0.004,0.0,-0.008
2026-01-05 21:26:48.024,291.29,0.003,0.002,0.001,-0.019,-0.02,-0.982,-44.86,-46.0,35.480000000000004,0.9965,0.0048000000000000004,-0.0057,-0.0824,0.008,0.003,-0.009000000000000001
2026-01-05 21:26:48.024,291.295,0.003,0.004,0.0,-0.013000000000000001,-0.017,-0.986,-44.86,-46.0,35.480000000000004,0.9965,0.0049,-0.0057,-0.0825,0.002,0.001,-0.004
2026-01-05 21:26:48.025,291.3,0.0,0.001,-0.001,-0.013000000000000001,-0.014,-0.987,-45.07,-46.21,36.04,0.9965,0.0049,-0.0058000000000000005,-0.0825,0.002,-0.001,-0.004
2026-01-05 21:26:48.025,291.305,0.0,-0.001,-0.001,-0.013000000000000001,-0.02,-0.979,-45.07,-46.21,36.04,0.9965,0.0049,-0.0058000000000000005,-0.0825,0.002,0.003,-0.012
2026-01-05 21:26:48.029,291.31,0.001,0.0,0.0,-0.013000000000000001,-0.015,-0.979,-45.07,-46.21,36.04,0.9965,0.0049,-0.0058000000000000005,-0.0825,0.002,0.0,-0.011
2026-01-05 21:26:48.029,291.315,0.0,-0.001,0.0,-0.018000000000000002,-0.017,-0.988,-44.89,-45.83,36.27,0.9965,0.0049,-0.0057,-0.0826,0.007,0.001,-0.003
2026-01-05 21:26:48.031,291.32,-0.001,0.002,0.0,-0.011,-0.018000000000000002,-0.988,-44.89,-45.83,36.27,0.9965,0.0049,-0.0057,-0.0825,0.0,0.002,-0.003
2026-01-05 21:26:48.032,291.325,0.001,0.003,0.0,-0.013000000000000001,-0.017,-0.983,-44.51,-46.12,35.54,0.9965,0.0049,-0.0057,-0.0825,0.002,0.001,-0.008
2026-01-05 21:26:48.032,291.33,0.002,0.002,0.0,-0.015,-0.017,-0.98,-44.51,-46.12,35.54,0.9965,0.0049,-0.0057,-0.0825,0.004,0.001,-0.011
2026-01-05 21:26:48.032,291.335,0.001,0.0,0.001,-0.012,-0.017,-0.986,-44.51,-46.12,35.54,0.9965,0.0049,-0.0057,-0.0825,0.001,0.0,-0.005
2026-01-05 21:26:48.033,291.34,-0.001,0.0,0.0,-0.013000000000000001,-0.017,-0.988,-45.01,-46.24,35.92,0.9965,0.0049,-0.0057,-0.0825,0.002,0.0,-0.003
2026-01-05 21:26:48.033,291.345,-0.001,-0.001,0.0,-0.012,-0.018000000000000002,-0.988,-45.01,-46.24,35.92,0.9965,0.0049,-0.0057,-0.0825,0.001,0.002,-0.003
2026-01-05 21:26:48.033,291.35,-0.001,0.0,0.0,-0.015,-0.016,-0.982,-45.04,-45.86,36.53,0.9965,0.0049,-0.0057,-0.0825,0.004,0.0,-0.008
2026-01-05 21:26:48.034,291.355,0.0,0.001,0.0,-0.016,-0.016,-0.979,-45.04,-45.86,36.53,0.9965,0.0049,-0.0057,-0.0825,0.005,0.0,-0.011
2026-01-05 21:26:48.034,291.36,0.001,0.004,0.0,-0.013000000000000001,-0.018000000000000002,-0.989,-45.04,-45.86,36.53,0.9965,0.0049,-0.0057,-0.0825,0.002,0.001,-0.002
2026-01-05 21:26:48.034,291.365,0.0,0.001,0.0,-0.012,-0.016,-0.988,-44.84,-45.92,36.15,0.9965,0.0048000000000000004,-0.0057,-0.0825,0.001,0.0,-0.003
2026-01-05 21:26:48.040,291.37,0.0,0.0,0.0,-0.016,-0.017,-0.982,-44.84,-45.92,36.15,0.9965,0.0048000000000000004,-0.0057,-0.0825,0.005,0.0,-0.009000000000000001
2026-01-05 21:26:48.041,291.375,-0.002,0.0,0.0,-0.014,-0.015,-0.98,-44.95,-46.56,35.51,0.9965,0.0049,-0.0057,-0.0825,0.003,0.0,-0.01
2026-01-05 21:26:48.041,291.38,-0.001,-0.003,0.0,-0.014,-0.017,-0.985,-44.95,-46.56,35.51,0.9965,0.0049,-0.0057,-0.0825,0.003,0.0,-0.006
2026-01-05 21:26:48.041,291.385,0.0,0.0,0.001,-0.015,-0.018000000000000002,-0.985,-44.95,-46.56,35.51,0.9965,0.0048000000000000004,-0.0056,-0.0825,0.004,0.001,-0.006
2026-01-05 21:26:48.042,291.39,0.0,0.0,0.0,-0.016,-0.018000000000000002,-0.982,-44.89,-45.800000000000004,36.15,0.9965,0.0048000000000000004,-0.0056,-0.0825,0.005,0.001,-0.009000000000000001
