System_Time,Timestamp,Gyro_X,Gyro_Y,Gyro_Z,Acc_X,Acc_Y,Acc_Z,Mag_X,Mag_Y,Mag_Z,Quat_W,Quat_X,Quat_Y,Quat_Z,Linear_Acc_X,Linear_Acc_Y,Linear_Acc_Z
2025-10-29 18:01:15.736,0.005,-0.272,1.491,-1.1,-0.018000000000000002,-0.027,-0.985,-30.89,37.7,-80.12,0.9952000000000001,0.0054,-0.0053,-0.0969,0.003,0.011,-0.006
2025-10-29 18:01:15.761,0.01,-1.095,5.099,-3.862,-0.018000000000000002,-0.027,-0.985,-28.09,38.87,-81.35000000000001,0.9959,0.0094,-0.0177,-0.08750000000000001,0.024,0.015,-0.005
2025-10-29 18:01:15.789,0.015,-0.5700000000000001,3.073,-2.38,-0.018000000000000002,-0.028,-0.985,-28.09,38.87,-81.35000000000001,0.9962000000000001,0.011300000000000001,-0.0247,-0.0816,0.046,0.021,-0.004
2025-10-29 18:01:15.815,0.02,0.272,-0.304,0.17500000000000002,-0.017,-0.028,-0.987,-27.41,39.14,-81.08,0.9963000000000001,0.01,-0.023,-0.082,0.042,0.019,-0.002
2025-10-29 18:01:15.823,0.025,0.062,-0.066,0.038,-0.018000000000000002,-0.027,-0.989,-27.41,39.14,-81.08,0.9965,0.0027,-0.009600000000000001,-0.08220000000000001,0.027,0.011,-0.001
2025-10-29 18:01:15.840,0.03,-0.001,0.003,0.001,-0.018000000000000002,-0.028,-0.991,-27.41,39.14,-81.08,0.9966,-0.0014,-0.0021000000000000003,-0.08220000000000001,0.0,0.0,0.0
2025-10-29 18:01:15.841,0.035,0.0,0.0,0.0,-0.018000000000000002,-0.027,-0.99,-27.68,38.81,-80.97,0.9966,-0.0011,-0.0023,-0.08220000000000001,0.0,0.0,-0.001
2025-10-29 18:01:15.841,0.04,0.0,0.0,0.0,-0.018000000000000002,-0.028,-0.988,-27.68,38.81,-80.97,0.9966,-0.0011,-0.0023,-0.08220000000000001,0.0,0.0,-0.003
2025-10-29 18:01:15.842,0.045,-0.001,0.0,0.0,-0.018000000000000002,-0.028,-0.988,-28.38,39.160000000000004,-81.32000000000001,0.9966,-0.0011,-0.0024000000000000002,-0.08220000000000001,0.0,0.0,-0.003
2025-10-29 18:01:15.842,0.05,-0.001,-0.004,0.001,-0.018000000000000002,-0.028,-0.991,-28.38,39.160000000000004,-81.32000000000001,0.9966,-0.0011,-0.0025,-0.08220000000000001,0.0,0.0,0.0
2025-10-29 18:01:15.842,0.055,-0.001,0.001,0.001,-0.018000000000000002,-0.027,-0.991,-28.38,39.160000000000004,-81.32000000000001,0.9966,-0.0011,-0.0026000000000000003,-0.08220000000000001,0.0,0.0,0.0
2025-10-29 18:01:15.843,0.06,-0.001,0.001,0.0,-0.018000000000000002,-0.028,-0.989,-28.41,38.81,-81.58,0.9966,-0.0011,-0.0026000000000000003,-0.08220000000000001,0.0,0.0,-0.002
2025-10-29 18:01:15.843,0.065,-0.001,0.0,-0.001,-0.019,-0.028,-0.989,-28.41,38.81,-81.58,0.9966,-0.0012000000000000001,-0.0025,-0.08220000000000001,0.001,0.0,-0.002
2025-10-29 18:01:15.847,0.07,-0.001,-0.001,0.0,-0.018000000000000002,-0.027,-0.988,-28.79,39.28,-81.67,0.9966,-0.0011,-0.0026000000000000003,-0.08220000000000001,0.0,0.0,-0.002
2025-10-29 18:01:15.867,0.075,-0.003,-0.003,0.0,-0.018000000000000002,-0.027,-0.988,-28.79,39.28,-81.67,0.9966,-0.0011,-0.0026000000000000003,-0.08220000000000001,0.0,0.0,-0.003
2025-10-29 18:01:15.867,0.08,0.0,-0.005,0.0,-0.019,-0.027,-0.988,-28.79,39.28,-81.67,0.9966,-0.0011,-0.0025,-0.08220000000000001,0.0,0.0,-0.003
2025-10-29 18:01:15.867,0.085,-0.002,0.004,0.001,-0.019,-0.027,-0.987,-28.79,39.02,-81.14,0.9966,-0.0011,-0.0025,-0.08220000000000001,0.0,0.0,-0.004
2025-10-29 18:01:15.868,0.09,0.0,0.005,0.001,-0.018000000000000002,-0.027,-0.987,-28.79,39.02,-81.14,0.9966,-0.0011,-0.0025,-0.08220000000000001,0.0,0.0,-0.003
2025-10-29 18:01:15.868,0.095,0.0,0.003,0.0,-0.018000000000000002,-0.027,-0.988,-28.55,38.96,-80.99,0.9966,-0.0011,-0.0025,-0.08220000000000001,0.0,0.0,-0.002
2025-10-29 18:01:15.869,0.1,-0.001,-0.002,0.001,-0.018000000000000002,-0.027,-0.989,-28.55,38.96,-80.99,0.9966,-0.001,-0.0025,-0.08220000000000001,0.0,0.0,-0.002
2025-10-29 18:01:15.869,0.105,-0.001,-0.006,0.0,-0.018000000000000002,-0.027,-0.989,-28.55,38.96,-80.99,0.9966,-0.001,-0.0024000000000000002,-0.08220000000000001,0.0,0.0,-0.002
2025-10-29 18:01:15.869,0.11,0.0,0.0,0.0,-0.017,-0.027,-0.99,-28.64,39.11,-80.73,0.9966,-0.001,-0.0026000000000000003,-0.08220000000000001,0.0,0.0,-0.001
2025-10-29 18:01:15.873,0.115,-0.001,0.003,-0.001,-0.018000000000000002,-0.028,-0.989,-28.64,39.11,-80.73,0.9966,-0.0011,-0.0026000000000000003,-0.08220000000000001,0.0,0.0,-0.002
2025-10-29 18:01:15.887,0.12,0.0,0.004,0.0,-0.019,-0.028,-0.99,-28.900000000000002,38.61,-80.97,0.9966,-0.0011,-0.0025,-0.08220000000000001,0.001,0.0,0.0
2025-10-29 18:01:15.887,0.125,0.0,0.002,0.0,-0.019,-0.029,-0.99,-28.900000000000002,38.61,-80.97,0.9966,-0.0012000000000000001,-0.0024000000000000002,-0.08220000000000001,0.0,0.0,-0.001
2025-10-29 18:01:15.888,0.13,0.0,0.0,0.001,-0.017,-0.028,-0.991,-28.900000000000002,38.61,-80.97,0.9966,-0.0012000000000000001,-0.0025,-0.08220000000000001,0.0,0.0,0.0
2025-10-29 18:01:15.888,0.135,0.0,0.0,0.001,-0.019,-0.028,-0.99,-28.61,39.57,-81.43,0.9966,-0.0012000000000000001,-0.0024000000000000002,-0.08220000000000001,0.0,0.0,0.0
2025-10-29 18:01:15.888,0.14,-0.001,0.001,0.001,-0.017,-0.027,-0.989,-28.61,39.57,-81.43,0.9966,-0.0012000000000000001,-0.0024000000000000002,-0.08220000000000001,0.0,0.0,-0.002
2025-10-29 18:01:15.889,0.145,-0.001,0.0,0.001,-0.019,-0.029,-0.991,-28.990000000000002,39.28,-81.4,0.9966,-0.0013000000000000002,-0.0024000000000000002,-0.08220000000000001,0.0,0.0,0.0
2025-10-29 18:01:15.889,0.15,0.0,0.004,0.0,-0.018000000000000002,-0.027,-0.992,-28.990000000000002,39.28,-81.4,0.9966,-0.0012000000000000001,-0.0024000000000000002,-0.08220000000000001,0.0,0.0,0.0
2025-10-29 18:01:15.890,0.155,0.0,0.004,0.0,-0.018000000000000002,-0.028,-0.989,-28.990000000000002,39.28,-81.4,0.9966,-0.0012000000000000001,-0.0024000000000000002,-0.08220000000000001,0.0,0.0,-0.001
2025-10-29 18:01:15.893,0.16,-0.001,0.001,0.0,-0.017,-0.028,-0.988,-27.88,39.050000000000004,-80.85000000000001,0.9966,-0.0012000000000000001,-0.0024000000000000002,-0.08220000000000001,0.0,0.0,-0.003
2025-10-29 18:01:15.907,0.165,-0.001,0.001,0.001,-0.017,-0.027,-0.988,-27.88,39.050000000000004,-80.85000000000001,0.9966,-0.0012000000000000001,-0.0024000000000000002,-0.08220000000000001,0.0,0.0,-0.003
2025-10-29 18:01:15.933,0.17,-0.003,-0.003,0.0,-0.018000000000000002,-0.027,-0.988,-27.88,39.050000000000004,-80.85000000000001,0.9966,-0.0012000000000000001,-0.0024000000000000002,-0.08220000000000001,0.0,0.0,-0.003
2025-10-29 18:01:15.934,0.175,-0.001,0.0,0.0,-0.019,-0.027,-0.988,-28.64,39.37,-80.47,0.9966,-0.0012000000000000001,-0.0024000000000000002,-0.08220000000000001,0.001,0.0,-0.003
2025-10-29 18:01:15.934,0.18,-0.001,0.0,0.0,-0.018000000000000002,-0.028,-0.988,-28.64,39.37,-80.47,0.9966,-0.0012000000000000001,-0.0024000000000000002,-0.08220000000000001,0.0,0.0,-0.002
2025-10-29 18:01:15.934,0.185,-0.001,0.001,-0.002,-0.019,-0.027,-0.989,-27.91,38.0,-80.99,0.9966,-0.0012000000000000001,-0.0024000000000000002,-0.08220000000000001,0.001,0.0,-0.002
2025-10-29 18:01:15.935,0.19,-0.001,0.0,0.0,-0.018000000000000002,-0.028,-0.988,-27.91,38.0,-80.99,0.9966,-0.0012000000000000001,-0.0024000000000000002,-0.08220000000000001,0.0,0.0,-0.003
2025-10-29 18:01:15.935,0.195,0.001,0.001,0.0,-0.017,-0.026000000000000002,-0.986,-27.91,38.0,-80.99,0.9966,-0.0012000000000000001,-0.0024000000000000002,-0.08220000000000001,0.0,-0.001,-0.004
2025-10-29 18:01:15.936,0.2,-0.001,0.001,0.001,-0.017,-0.028,-0.986,-28.85,38.43,-80.47,0.9966,-0.0012000000000000001,-0.0024000000000000002,-0.08220000000000001,0.0,0.0,-0.004
2025-10-29 18:01:15.936,0.205,0.002,0.0,0.0,-0.018000000000000002,-0.027,-0.988,-28.85,38.43,-80.47,0.9966,-0.0012000000000000001,-0.0024000000000000002,-0.08220000000000001,0.0,0.0,-0.002
2025-10-29 18:01:15.946,0.21,0.0,0.0,0.0,-0.018000000000000002,-0.025,-0.987,-29.080000000000002,39.11,-80.79,0.9966,-0.0011,-0.0024000000000000002,-0.08220000000000001,0.0,-0.002,-0.003
2025-10-29 18:01:15.946,0.215,0.0,0.002,0.001,-0.018000000000000002,-0.027,-0.989,-29.080000000000002,39.11,-80.79,0.9966,-0.0011,-0.0024000000000000002,-0.08220000000000001,0.0,0.0,-0.002
2025-10-29 18:01:15.946,0.22,0.001,0.0,0.0,-0.019,-0.027,-0.989,-29.080000000000002,39.11,-80.79,0.9966,-0.0011,-0.0024000000000000002,-0.08220000000000001,0.0,0.0,-0.002
2025-10-29 18:01:15.947,0.225,0.001,0.0,0.001,-0.019,-0.028,-0.988,-28.38,39.49,-80.67,0.9966,-0.0011,-0.0024000000000000002,-0.08220000000000001,0.001,0.0,-0.003
2025-10-29 18:01:15.947,0.23,0.0,0.0,0.0,-0.019,-0.028,-0.989,-28.38,39.49,-80.67,0.9966,-0.0011,-0.0024000000000000002,-0.08220000000000001,0.0,0.0,-0.002
2025-10-29 18:01:15.947,0.235,0.0,0.007,0.001,-0.018000000000000002,-0.026000000000000002,-0.989,-28.5,39.31,-81.26,0.9966,-0.0011,-0.0024000000000000002,-0.08220000000000001,0.0,-0.001,-0.002
2025-10-29 18:01:15.948,0.24,0.0,0.0,0.001,-0.019,-0.028,-0.987,-28.5,39.31,-81.26,0.9966,-0.0011,-0.0024000000000000002,-0.08220000000000001,0.0,0.0,-0.003
2025-10-29 18:01:15.948,0.245,0.002,0.003,0.001,-0.019,-0.027,-0.99,-28.5,39.31,-81.26,0.9966,-0.0011,-0.0024000000000000002,-0.08220000000000001,0.0,0.0,-0.001
2025-10-29 18:01:15.960,0.25,0.0,0.001,0.001,-0.019,-0.028,-0.99,-28.7,38.87,-80.85000000000001,0.9966,-0.0011,-0.0023,-0.08220000000000001,0.001,0.0,-0.001
2025-10-29 18:01:15.985,0.255,0.0,0.0,0.0,-0.019,-0.027,-0.989,-28.7,38.87,-80.85000000000001,0.9966,-0.0011,-0.0023,-0.08220000000000001,0.0,0.0,-0.002
2025-10-29 18:01:15.985,0.26,0.0,-0.003,0.0,-0.019,-0.027,-0.992,-28.67,38.96,-80.56,0.9966,-0.0011,-0.0023,-0.08220000000000001,0.0,0.0,0.0
2025-10-29 18:01:16.014,0.265,0.0,0.0,0.0,-0.018000000000000002,-0.029,-0.991,-28.67,38.96,-80.56,0.9966,-0.0011,-0.0023,-0.08220000000000001,0.0,0.001,0.0
2025-10-29 18:01:16.041,0.27,0.0,0.003,0.0,-0.018000000000000002,-0.026000000000000002,-0.99,-28.67,38.96,-80.56,0.9966,-0.0011,-0.0023,-0.08220000000000001,0.0,-0.001,-0.001
2025-10-29 18:01:16.042,0.275,0.001,0.005,0.001,-0.019,-0.027,-0.988,-28.67,39.08,-80.79,0.9966,-0.0011,-0.0024000000000000002,-0.08220000000000001,0.0,0.0,-0.003
2025-10-29 18:01:16.042,0.28,0.0,0.002,0.0,-0.018000000000000002,-0.027,-0.989,-28.67,39.08,-80.79,0.9966,-0.0011,-0.0023,-0.08220000000000001,0.0,0.0,-0.002
2025-10-29 18:01:16.042,0.285,0.0,0.002,0.0,-0.018000000000000002,-0.027,-0.988,-28.52,38.35,-80.56,0.9966,-0.0011,-0.0024000000000000002,-0.08220000000000001,0.0,0.0,-0.002
2025-10-29 18:01:16.072,0.29,0.0,-0.003,0.0,-0.018000000000000002,-0.027,-0.988,-28.52,38.35,-80.56,0.9966,-0.0011,-0.0023,-0.08220000000000001,0.0,0.0,-0.002
2025-10-29 18:01:16.103,0.295,0.0,0.0,0.0,-0.018000000000000002,-0.028,-0.987,-28.52,38.35,-80.56,0.9966,-0.0011,-0.0023,-0.08220000000000001,0.0,0.0,-0.003
2025-10-29 18:01:16.103,0.3,0.0,0.002,0.0,-0.018000000000000002,-0.026000000000000002,-0.989,-28.55,38.43,-80.7,0.9966,-0.001,-0.0024000000000000002,-0.08220000000000001,0.0,-0.001,-0.002
2025-10-29 18:01:16.103,0.305,0.0,0.009000000000000001,0.0,-0.019,-0.027,-0.989,-28.55,38.43,-80.7,0.9966,-0.001,-0.0024000000000000002,-0.08220000000000001,0.0,0.0,-0.001
2025-10-29 18:01:16.104,0.31,0.0,0.002,-0.002,-0.019,-0.027,-0.989,-28.7,37.62,-81.05,0.9966,-0.001,-0.0024000000000000002,-0.08220000000000001,0.0,0.0,-0.001
2025-10-29 18:01:16.104,0.315,0.0,0.0,-0.001,-0.019,-0.026000000000000002,-0.988,-28.7,37.62,-81.05,0.9966,-0.001,-0.0024000000000000002,-0.08220000000000001,0.0,-0.001,-0.002
2025-10-29 18:01:16.104,0.32,0.0,-0.002,-0.002,-0.018000000000000002,-0.026000000000000002,-0.989,-28.7,37.62,-81.05,0.9966,-0.001,-0.0024000000000000002,-0.08220000000000001,0.0,0.0,-0.002
2025-10-29 18:01:16.105,0.325,0.0,-0.003,0.0,-0.017,-0.027,-0.989,-28.67,37.21,-81.17,0.9966,-0.001,-0.0024000000000000002,-0.08220000000000001,-0.001,0.0,-0.002
2025-10-29 18:01:16.157,0.33,0.0,-0.002,0.0,-0.017,-0.028,-0.989,-28.67,37.21,-81.17,0.9966,-0.001,-0.0024000000000000002,-0.08220000000000001,0.0,0.0,-0.002
2025-10-29 18:01:16.184,0.335,0.0,0.001,-0.001,-0.019,-0.028,-0.99,-28.09,39.050000000000004,-80.94,0.9966,-0.001,-0.0024000000000000002,-0.08220000000000001,0.0,0.0,-0.001
2025-10-29 18:01:16.185,0.34,0.0,0.003,-0.001,-0.018000000000000002,-0.028,-0.989,-28.09,39.050000000000004,-80.94,0.9966,-0.001,-0.0024000000000000002,-0.08220000000000001,0.0,0.0,-0.002
2025-10-29 18:01:16.185,0.345,0.001,0.0,0.001,-0.019,-0.027,-0.989,-28.09,39.050000000000004,-80.94,0.9966,-0.001,-0.0024000000000000002,-0.08220000000000001,0.0,0.0,-0.002
2025-10-29 18:01:16.185,0.35,-0.003,-0.003,0.0,-0.019,-0.028,-0.989,-28.93,39.02,-81.08,0.9966,-0.001,-0.0023,-0.08220000000000001,0.0,0.0,-0.002
2025-10-29 18:01:16.186,0.355,-0.001,0.0,0.0,-0.018000000000000002,-0.027,-0.988,-28.93,39.02,-81.08,0.9966,-0.001,-0.0023,-0.08220000000000001,0.0,0.0,-0.003
2025-10-29 18:01:16.186,0.36,0.001,0.001,0.0,-0.018000000000000002,-0.028,-0.987,-27.79,39.31,-80.56,0.9966,-0.001,-0.0023,-0.08220000000000001,0.0,0.0,-0.004
2025-10-29 18:01:16.187,0.365,0.002,0.005,-0.001,-0.019,-0.027,-0.987,-27.79,39.31,-80.56,0.9966,-0.001,-0.0024000000000000002,-0.08220000000000001,0.0,0.0,-0.004
2025-10-29 18:01:16.187,0.37,0.001,0.0,0.001,-0.018000000000000002,-0.028,-0.987,-27.79,39.31,-80.56,0.9966,-0.001,-0.0024000000000000002,-0.08220000000000001,0.0,0.0,-0.004
2025-10-29 18:01:16.214,0.375,0.001,-0.002,0.0,-0.018000000000000002,-0.027,-0.986,-28.47,39.02,-80.23,0.9966,-0.001,-0.0024000000000000002,-0.08220000000000001,0.0,0.0,-0.004
2025-10-29 18:01:16.214,0.38,0.0,-0.003,0.0,-0.019,-0.027,-0.986,-28.47,39.02,-80.23,0.9966,-0.001,-0.0023,-0.08220000000000001,0.0,0.0,-0.005
2025-10-29 18:01:16.214,0.385,0.0,0.0,0.0,-0.018000000000000002,-0.027,-0.99,-28.47,39.02,-80.23,0.9966,-0.001,-0.0024000000000000002,-0.08220000000000001,0.0,0.0,0.0
2025-10-29 18:01:16.241,0.39,0.001,0.002,0.0,-0.018000000000000002,-0.028,-0.989,-28.38,39.31,-80.56,0.9966,-0.001,-0.0024000000000000002,-0.08220000000000001,0.0,0.0,-0.001
2025-10-29 18:01:16.241,0.395,0.001,0.004,0.001,-0.019,-0.026000000000000002,-0.99,-28.38,39.31,-80.56,0.9966,-0.001,-0.0024000000000000002,-0.08220000000000001,0.001,-0.001,-0.001
2025-10-29 18:01:16.242,0.4,0.0,0.002,0.0,-0.018000000000000002,-0.028,-0.988,-28.41,39.54,-80.59,0.9966,-0.001,-0.0024000000000000002,-0.08220000000000001,0.0,0.0,-0.003
2025-10-29 18:01:16.242,0.405,0.0,-0.001,0.0,-0.018000000000000002,-0.028,-0.989,-28.41,39.54,-80.59,0.9966,-0.001,-0.0024000000000000002,-0.08220000000000001,0.0,0.0,-0.002
2025-10-29 18:01:16.242,0.41,0.0,-0.001,0.001,-0.018000000000000002,-0.029,-0.99,-28.41,39.54,-80.59,0.9966,-0.0011,-0.0024000000000000002,-0.08220000000000001,0.0,0.001,-0.001
2025-10-29 18:01:16.243,0.415,0.0,0.0,0.0,-0.018000000000000002,-0.028,-0.989,-28.26,38.99,-80.99,0.9966,-0.0011,-0.0024000000000000002,-0.08220000000000001,0.0,0.0,-0.001
2025-10-29 18:01:16.243,0.42,0.0,0.004,0.0,-0.018000000000000002,-0.027,-0.99,-28.26,38.99,-80.99,0.9966,-0.0011,-0.0024000000000000002,-0.08220000000000001,0.0,0.0,-0.001
2025-10-29 18:01:16.243,0.425,-0.001,0.001,0.0,-0.017,-0.029,-0.991,-28.52,39.31,-80.59,0.9966,-0.0011,-0.0024000000000000002,-0.08220000000000001,-0.001,0.001,0.0
2025-10-29 18:01:16.264,0.43,-0.001,-0.003,-0.001,-0.018000000000000002,-0.028,-0.988,-28.52,39.31,-80.59,0.9966,-0.0011,-0.0024000000000000002,-0.08220000000000001,0.0,0.0,-0.002
2025-10-29 18:01:16.265,0.435,0.0,-0.002,-0.001,-0.018000000000000002,-0.028,-0.988,-28.52,39.31,-80.59,0.9966,-0.0011,-0.0024000000000000002,-0.08220000000000001,0.0,0.0,-0.003
2025-10-29 18:01:16.265,0.44,-0.001,-0.002,0.0,-0.019,-0.027,-0.988,-28.61,39.050000000000004,-80.59,0.9966,-0.0011,-0.0024000000000000002,-0.08220000000000001,0.0,0.0,-0.003
2025-10-29 18:01:16.265,0.445,0.0,0.002,0.0,-0.018000000000000002,-0.028,-0.985,-28.61,39.050000000000004,-80.59,0.9966,-0.0011,-0.0024000000000000002,-0.08220000000000001,0.0,0.0,-0.005
2025-10-29 18:01:16.290,0.45,0.0,0.0,0.0,-0.018000000000000002,-0.027,-0.99,-28.35,38.76,-81.11,0.9966,-0.0011,-0.0024000000000000002,-0.08220000000000001,0.0,0.0,-0.001
2025-10-29 18:01:16.290,0.455,-0.002,0.004,-0.001,-0.018000000000000002,-0.027,-0.991,-28.35,38.76,-81.11,0.9966,-0.0011,-0.0024000000000000002,-0.08220000000000001,0.0,0.0,0.0
2025-10-29 18:01:16.290,0.46,-0.001,-0.002,0.0,-0.019,-0.028,-0.99,-28.35,38.76,-81.11,0.9966,-0.0011,-0.0024000000000000002,-0.08220000000000001,0.0,0.0,-0.001
2025-10-29 18:01:16.291,0.465,-0.001,-0.003,0.0,-0.018000000000000002,-0.028,-0.991,-28.5,39.19,-80.88,0.9966,-0.0011,-0.0024000000000000002,-0.08220000000000001,0.0,0.0,0.0
2025-10-29 18:01:16.291,0.47,-0.002,0.001,0.0,-0.019,-0.028,-0.988,-28.5,39.19,-80.88,0.9966,-0.0011,-0.0024000000000000002,-0.08220000000000001,0.001,0.0,-0.002
2025-10-29 18:01:16.291,0.475,-0.001,0.0,0.001,-0.019,-0.027,-0.984,-27.88,39.46,-80.44,0.9966,-0.0011,-0.0024000000000000002,-0.08220000000000001,0.0,0.0,-0.007
2025-10-29 18:01:16.292,0.48,0.0,0.005,0.0,-0.018000000000000002,-0.029,-0.984,-27.88,39.46,-80.44,0.9966,-0.0011,-0.0024000000000000002,-0.08220000000000001,0.0,0.001,-0.006
2025-10-29 18:01:16.292,0.485,-0.001,0.002,-0.002,-0.019,-0.027,-0.986,-27.88,39.46,-80.44,0.9966,-0.0011,-0.0024000000000000002,-0.08220000000000001,0.0,0.0,-0.005
2025-10-29 18:01:16.309,0.49,-0.001,0.001,-0.002,-0.018000000000000002,-0.027,-0.988,-28.7,38.84,-80.73,0.9966,-0.0011,-0.0024000000000000002,-0.08220000000000001,0.0,0.0,-0.003
2025-10-29 18:01:16.309,0.495,0.0,0.002,0.0,-0.018000000000000002,-0.026000000000000002,-0.988,-28.7,38.84,-80.73,0.9966,-0.0011,-0.0024000000000000002,-0.08220000000000001,0.0,-0.001,-0.003
2025-10-29 18:01:16.309,0.5,0.0,0.003,0.0,-0.018000000000000002,-0.027,-0.987,-28.12,38.67,-81.29,0.9966,-0.0011,-0.0025,-0.08220000000000001,0.0,0.0,-0.004
2025-10-29 18:01:16.310,0.505,0.001,0.004,0.001,-0.019,-0.028,-0.985,-28.12,38.67,-81.29,0.9966,-0.0011,-0.0025,-0.08220000000000001,0.0,0.0,-0.005
2025-10-29 18:01:16.310,0.51,0.0,0.0,-0.001,-0.018000000000000002,-0.028,-0.986,-28.12,38.67,-81.29,0.9966,-0.0011,-0.0025,-0.08220000000000001,0.0,0.0,-0.005
2025-10-29 18:01:16.310,0.515,0.002,0.005,0.001,-0.019,-0.028,-0.987,-28.060000000000002,39.22,-80.82000000000001,0.9966,-0.0011,-0.0025,-0.08220000000000001,0.0,0.0,-0.004
2025-10-29 18:01:16.311,0.52,0.0,0.0,0.0,-0.019,-0.027,-0.987,-28.060000000000002,39.22,-80.82000000000001,0.9966,-0.0011,-0.0025,-0.08220000000000001,0.0,0.0,-0.004
2025-10-29 18:01:16.311,0.525,0.0,-0.001,0.001,-0.018000000000000002,-0.028,-0.988,-28.29,39.25,-80.41,0.9966,-0.0011,-0.0025,-0.08220000000000001,0.0,0.0,-0.002
2025-10-29 18:01:16.326,0.53,0.0,-0.002,0.0,-0.017,-0.027,-0.991,-28.29,39.25,-80.41,0.9966,-0.0011,-0.0025,-0.08220000000000001,0.0,0.0,0.0
2025-10-29 18:01:16.326,0.535,0.0,0.003,0.001,-0.018000000000000002,-0.027,-0.989,-28.29,39.25,-80.41,0.9966,-0.0011,-0.0025,-0.08220000000000001,0.0,0.0,-0.001
2025-10-29 18:01:16.326,0.54,0.0,0.004,0.0,-0.017,-0.027,-0.99,-28.64,39.660000000000004,-80.56,0.9966,-0.0011,-0.0025,-0.08220000000000001,0.0,0.0,-0.001
2025-10-29 18:01:16.327,0.545,0.001,0.006,0.0,-0.018000000000000002,-0.028,-0.989,-28.64,39.660000000000004,-80.56,0.9966,-0.0011,-0.0026000000000000003,-0.08220000000000001,0.0,0.0,-0.002
2025-10-29 18:01:16.327,0.55,0.0,0.0,0.0,-0.02,-0.028,-0.988,-28.44,38.93,-80.41,0.9966,-0.0011,-0.0025,-0.08220000000000001,0.002,0.0,-0.003
2025-10-29 18:01:16.327,0.555,-0.001,-0.002,0.0,-0.019,-0.029,-0.988,-28.44,38.93,-80.41,0.9966,-0.0011,-0.0025,-0.08220000000000001,0.0,0.001,-0.003
2025-10-29 18:01:16.328,0.56,-0.001,-0.001,0.001,-0.018000000000000002,-0.027,-0.989,-28.44,38.93,-80.41,0.9966,-0.0011,-0.0025,-0.08220000000000001,0.0,0.0,-0.002
2025-10-29 18:01:16.328,0.565,0.0,-0.002,0.0,-0.018000000000000002,-0.027,-0.988,-28.82,39.08,-80.73,0.9966,-0.0011,-0.0025,-0.08220000000000001,0.0,0.0,-0.003
2025-10-29 18:01:16.337,0.57,0.0,0.005,0.0,-0.017,-0.028,-0.985,-28.82,39.08,-80.73,0.9966,-0.0011,-0.0025,-0.08220000000000001,0.0,0.0,-0.005
2025-10-29 18:01:16.337,0.575,0.0,0.004,0.0,-0.018000000000000002,-0.028,-0.986,-28.55,39.52,-81.17,0.9966,-0.0011,-0.0025,-0.08220000000000001,0.0,0.001,-0.004
2025-10-29 18:01:16.337,0.58,0.0,0.002,0.0,-0.018000000000000002,-0.028,-0.986,-28.55,39.52,-81.17,0.9966,-0.0011,-0.0025,-0.08220000000000001,0.0,0.0,-0.004
2025-10-29 18:01:16.338,0.585,-0.001,0.0,0.001,-0.018000000000000002,-0.027,-0.986,-28.55,39.52,-81.17,0.9966,-0.0011,-0.0025,-0.08220000000000001,0.0,0.0,-0.005
2025-10-29 18:01:16.355,0.59,0.001,-0.002,0.0,-0.018000000000000002,-0.028,-0.986,-28.23,38.78,-80.99,0.9966,-0.0011,-0.0025,-0.08220000000000001,0.0,0.0,-0.004
2025-10-29 18:01:16.355,0.595,0.001,0.0,0.0,-0.018000000000000002,-0.027,-0.987,-28.23,38.78,-80.99,0.9966,-0.0011,-0.0025,-0.08220000000000001,0.0,0.0,-0.003
2025-10-29 18:01:16.355,0.6,0.001,0.004,0.0,-0.019,-0.027,-0.988,-28.26,38.78,-80.94,0.9966,-0.0011,-0.0025,-0.08220000000000001,0.0,0.0,-0.003
2025-10-29 18:01:16.356,0.605,0.001,0.003,0.0,-0.019,-0.028,-0.987,-28.26,39.28,-80.94,0.9966,-0.0011,-0.0026000000000000003,-0.08220000000000001,0.001,0.0,-0.004
2025-10-29 18:01:16.356,0.61,0.001,0.005,0.001,-0.019,-0.028,-0.986,-28.26,39.28,-80.94,0.9966,-0.0011,-0.0026000000000000003,-0.08220000000000001,0.0,0.0,-0.005
2025-10-29 18:01:16.356,0.615,0.001,0.002,0.001,-0.018000000000000002,-0.027,-0.986,-28.52,39.46,-80.88,0.9966,-0.0011,-0.0026000000000000003,-0.08220000000000001,0.0,0.0,-0.004
2025-10-29 18:01:16.357,0.62,0.001,0.0,0.001,-0.018000000000000002,-0.028,-0.987,-28.52,39.46,-80.88,0.9966,-0.0011,-0.0026000000000000003,-0.08220000000000001,0.0,0.0,-0.003
2025-10-29 18:01:16.357,0.625,0.0,0.0,0.001,-0.018000000000000002,-0.027,-0.989,-28.52,39.46,-80.88,0.9966,-0.0011,-0.0026000000000000003,-0.08220000000000001,0.0,0.0,-0.002
2025-10-29 18:01:16.359,0.63,0.001,0.004,0.0,-0.018000000000000002,-0.028,-0.988,-28.67,39.25,-81.52,0.9966,-0.0011,-0.0026000000000000003,-0.08220000000000001,0.0,0.0,-0.003
2025-10-29 18:01:16.360,0.635,0.0,0.002,0.0,-0.017,-0.028,-0.987,-28.67,39.25,-81.52,0.9966,-0.0011,-0.0026000000000000003,-0.08220000000000001,0.0,0.0,-0.003
2025-10-29 18:01:16.378,0.64,0.0,0.0,-0.002,-0.018000000000000002,-0.029,-0.989,-27.88,38.730000000000004,-81.2,0.9966,-0.0011,-0.0026000000000000003,-0.08220000000000001,0.0,0.0,-0.002
2025-10-29 18:01:16.378,0.645,0.0,0.002,0.0,-0.018000000000000002,-0.029,-0.989,-27.88,38.730000000000004,-81.2,0.9966,-0.0011,-0.0026000000000000003,-0.08220000000000001,0.0,0.001,-0.002
2025-10-29 18:01:16.378,0.65,-0.001,0.0,-0.001,-0.017,-0.028,-0.989,-27.88,38.730000000000004,-81.2,0.9966,-0.0011,-0.0026000000000000003,-0.08220000000000001,0.0,0.0,-0.001
2025-10-29 18:01:16.379,0.655,0.0,-0.003,-0.002,-0.019,-0.028,-0.99,-28.29,37.97,-81.43,0.9966,-0.0011,-0.0026000000000000003,-0.08220000000000001,0.001,0.0,-0.001
2025-10-29 18:01:16.379,0.66,-0.001,0.003,0.0,-0.018000000000000002,-0.027,-0.988,-28.29,37.97,-81.43,0.9966,-0.0011,-0.0026000000000000003,-0.08220000000000001,0.0,0.0,-0.002
2025-10-29 18:01:16.379,0.665,0.0,0.001,0.0,-0.018000000000000002,-0.028,-0.989,-28.35,39.31,-80.7,0.9966,-0.0011,-0.0026000000000000003,-0.08220000000000001,0.0,0.0,-0.002
2025-10-29 18:01:16.402,0.67,-0.001,0.001,0.0,-0.018000000000000002,-0.028,-0.989,-28.35,39.31,-80.7,0.9966,-0.0011,-0.0026000000000000003,-0.08220000000000001,0.0,0.0,-0.001
2025-10-29 18:01:16.431,0.675,0.0,-0.002,0.001,-0.018000000000000002,-0.028,-0.989,-28.35,39.31,-80.7,0.9966,-0.0011,-0.0026000000000000003,-0.08220000000000001,0.0,0.0,-0.002
2025-10-29 18:01:16.431,0.68,0.0,0.0,0.0,-0.019,-0.027,-0.987,-27.5,38.99,-81.08,0.9966,-0.0011,-0.0026000000000000003,-0.08220000000000001,0.0,0.0,-0.003
2025-10-29 18:01:16.431,0.685,-0.001,0.0,-0.001,-0.018000000000000002,-0.028,-0.988,-27.5,38.99,-81.08,0.9966,-0.0011,-0.0026000000000000003,-0.08220000000000001,0.0,0.0,-0.002
2025-10-29 18:01:16.432,0.69,0.0,0.0,-0.001,-0.018000000000000002,-0.027,-0.987,-28.41,39.34,-80.94,0.9966,-0.0011,-0.0026000000000000003,-0.08220000000000001,0.0,0.0,-0.004
2025-10-29 18:01:16.432,0.695,0.0,0.005,0.0,-0.019,-0.027,-0.987,-28.41,39.34,-80.94,0.9966,-0.0011,-0.0026000000000000003,-0.08220000000000001,0.0,0.0,-0.003
2025-10-29 18:01:16.433,0.7,0.0,0.004,-0.001,-0.018000000000000002,-0.028,-0.988,-28.41,39.34,-80.94,0.9966,-0.0011,-0.0026000000000000003,-0.08220000000000001,0.0,0.0,-0.003
2025-10-29 18:01:16.433,0.705,-0.001,0.0,0.0,-0.019,-0.027,-0.987,-27.27,38.84,-80.85000000000001,0.9966,-0.0011,-0.0026000000000000003,-0.08220000000000001,0.001,0.0,-0.003
2025-10-29 18:01:16.459,0.71,-0.001,0.0,0.001,-0.019,-0.028,-0.987,-27.27,38.84,-80.85000000000001,0.9966,-0.0011,-0.0026000000000000003,-0.08220000000000001,0.001,0.0,-0.004
2025-10-29 18:01:16.484,0.715,0.0,0.0,0.0,-0.017,-0.028,-0.988,-28.55,38.08,-81.46000000000001,0.9966,-0.0011,-0.0026000000000000003,-0.08220000000000001,0.0,0.0,-0.003
2025-10-29 18:01:16.484,0.72,0.0,0.004,0.0,-0.018000000000000002,-0.026000000000000002,-0.988,-28.55,38.08,-81.46000000000001,0.9966,-0.0011,-0.0026000000000000003,-0.08220000000000001,0.0,-0.001,-0.002
2025-10-29 18:01:16.484,0.725,0.001,0.004,0.0,-0.018000000000000002,-0.027,-0.989,-28.55,38.08,-81.46000000000001,0.9966,-0.0011,-0.0026000000000000003,-0.08220000000000001,0.0,0.0,-0.001
2025-10-29 18:01:16.485,0.73,0.0,0.0,0.0,-0.019,-0.028,-0.988,-28.12,39.160000000000004,-81.55,0.9966,-0.0011,-0.0026000000000000003,-0.08220000000000001,0.001,0.0,-0.003
2025-10-29 18:01:16.502,0.735,0.0,-0.005,0.0,-0.018000000000000002,-0.028,-0.989,-28.12,39.160000000000004,-81.55,0.9966,-0.0011,-0.0026000000000000003,-0.08220000000000001,0.0,0.0,-0.002
2025-10-29 18:01:16.516,0.74,-0.003,0.0,0.0,-0.019,-0.026000000000000002,-0.987,-28.52,39.28,-81.23,0.9966,-0.0011,-0.0026000000000000003,-0.08220000000000001,0.001,-0.001,-0.004
2025-10-29 18:01:16.516,0.745,-0.001,-0.001,0.0,-0.019,-0.028,-0.986,-28.52,39.28,-81.23,0.9966,-0.0011,-0.0026000000000000003,-0.08220000000000001,0.001,0.0,-0.005
2025-10-29 18:01:16.517,0.75,-0.001,0.0,0.0,-0.017,-0.028,-0.989,-28.52,39.28,-81.23,0.9966,-0.0011,-0.0026000000000000003,-0.08220000000000001,-0.001,0.0,-0.002
2025-10-29 18:01:16.517,0.755,0.0,0.0,0.0,-0.018000000000000002,-0.027,-0.987,-28.52,38.67,-81.32000000000001,0.9966,-0.0011,-0.0026000000000000003,-0.08220000000000001,0.0,0.0,-0.004
2025-10-29 18:01:16.524,0.76,0.0,-0.001,0.0,-0.018000000000000002,-0.027,-0.986,-28.52,38.67,-81.32000000000001,0.9966,-0.0011,-0.0026000000000000003,-0.08220000000000001,0.0,0.0,-0.004
2025-10-29 18:01:16.553,0.765,0.001,0.0,0.0,-0.018000000000000002,-0.028,-0.986,-28.88,39.43,-81.73,0.9966,-0.0011,-0.0026000000000000003,-0.08220000000000001,0.0,0.0,-0.004
2025-10-29 18:01:16.553,0.77,0.002,0.001,-0.002,-0.018000000000000002,-0.028,-0.986,-28.88,39.43,-81.73,0.9966,-0.0011,-0.0026000000000000003,-0.08220000000000001,0.0,0.0,-0.005
2025-10-29 18:01:16.554,0.775,0.001,0.0,0.0,-0.017,-0.027,-0.987,-28.88,39.43,-81.73,0.9966,-0.0011,-0.0026000000000000003,-0.08220000000000001,0.0,0.0,-0.004
2025-10-29 18:01:16.554,0.78,0.0,0.0,0.0,-0.016,-0.027,-0.985,-28.41,39.11,-81.81,0.9966,-0.0011,-0.0026000000000000003,-0.08220000000000001,-0.001,0.0,-0.005
2025-10-29 18:01:16.554,0.785,0.001,0.0,0.0,-0.017,-0.027,-0.988,-28.41,39.11,-81.81,0.9966,-0.0011,-0.0026000000000000003,-0.08220000000000001,0.0,0.0,-0.003
2025-10-29 18:01:16.555,0.79,0.0,0.0,0.0,-0.018000000000000002,-0.027,-0.987,-28.88,39.11,-81.32000000000001,0.9966,-0.0011,-0.0026000000000000003,-0.08220000000000001,0.0,0.0,-0.003
2025-10-29 18:01:16.555,0.795,0.0,-0.001,0.0,-0.018000000000000002,-0.027,-0.989,-28.88,39.11,-81.32000000000001,0.9966,-0.0011,-0.0026000000000000003,-0.08220000000000001,0.0,0.0,-0.002
2025-10-29 18:01:16.555,0.8,0.0,-0.002,0.0,-0.018000000000000002,-0.027,-0.988,-28.88,39.11,-81.32000000000001,0.9966,-0.0011,-0.0026000000000000003,-0.08220000000000001,0.0,0.0,-0.003
2025-10-29 18:01:16.567,0.805,0.0,0.0,0.0,-0.019,-0.028,-0.987,-28.7,38.78,-80.88,0.9966,-0.0011,-0.0026000000000000003,-0.08220000000000001,0.0,0.0,-0.004
2025-10-29 18:01:16.567,0.81,0.0,0.004,0.0,-0.018000000000000002,-0.027,-0.987,-28.7,38.78,-80.88,0.9966,-0.0011,-0.0026000000000000003,-0.08220000000000001,0.0,0.0,-0.003
2025-10-29 18:01:16.567,0.815,0.0,0.0,0.0,-0.019,-0.027,-0.988,-28.79,39.34,-81.23,0.9966,-0.0011,-0.0026000000000000003,-0.08220000000000001,0.0,0.0,-0.003
2025-10-29 18:01:16.568,0.82,0.0,-0.002,0.0,-0.018000000000000002,-0.028,-0.987,-28.79,39.34,-81.23,0.9966,-0.0011,-0.0026000000000000003,-0.08220000000000001,0.0,0.0,-0.004
2025-10-29 18:01:16.568,0.825,0.0,0.0,-0.001,-0.017,-0.028,-0.988,-28.79,39.34,-81.23,0.9966,-0.0011,-0.0026000000000000003,-0.08220000000000001,0.0,0.0,-0.003
2025-10-29 18:01:16.568,0.83,0.0,0.0,-0.001,-0.017,-0.028,-0.988,-28.82,39.54,-80.99,0.9966,-0.0011,-0.0026000000000000003,-0.08220000000000001,0.0,0.0,-0.003
2025-10-29 18:01:16.578,0.835,0.0,0.002,0.0,-0.018000000000000002,-0.027,-0.99,-28.82,39.54,-80.99,0.9966,-0.0011,-0.0026000000000000003,-0.08220000000000001,0.0,0.0,-0.001
2025-10-29 18:01:16.578,0.84,0.0,0.0,0.0,-0.017,-0.028,-0.99,-28.82,39.54,-80.99,0.9966,-0.0011,-0.0026000000000000003,-0.08220000000000001,0.0,0.0,-0.001
2025-10-29 18:01:16.579,0.845,0.0,0.0,0.0,-0.017,-0.027,-0.987,-27.71,38.64,-80.91,0.9966,-0.0011,-0.0026000000000000003,-0.08220000000000001,0.0,0.0,-0.004
2025-10-29 18:01:16.579,0.85,0.001,0.0,-0.002,-0.018000000000000002,-0.028,-0.987,-27.71,38.64,-80.91,0.9966,-0.0011,-0.0026000000000000003,-0.08220000000000001,0.0,0.0,-0.003
2025-10-29 18:01:16.580,0.855,-0.001,0.0,0.0,-0.018000000000000002,-0.027,-0.986,-28.47,39.14,-80.91,0.9966,-0.0011,-0.0026000000000000003,-0.08220000000000001,0.0,0.0,-0.005
2025-10-29 18:01:16.580,0.86,0.0,0.0,0.001,-0.018000000000000002,-0.027,-0.987,-28.47,39.14,-80.91,0.9966,-0.0011,-0.0026000000000000003,-0.08220000000000001,0.0,0.0,-0.004
2025-10-29 18:01:16.581,0.865,-0.001,-0.003,-0.001,-0.018000000000000002,-0.028,-0.987,-28.47,39.14,-80.91,0.9966,-0.0011,-0.0026000000000000003,-0.08220000000000001,0.0,0.0,-0.004
2025-10-29 18:01:16.581,0.87,0.0,-0.003,0.001,-0.018000000000000002,-0.027,-0.986,-28.5,39.69,-81.64,0.9966,-0.0011,-0.0026000000000000003,-0.08220000000000001,0.0,0.0,-0.004
2025-10-29 18:01:16.584,0.875,0.0,0.0,0.001,-0.018000000000000002,-0.027,-0.987,-28.5,39.69,-81.64,0.9966,-0.0011,-0.0026000000000000003,-0.08220000000000001,0.0,0.0,-0.004
2025-10-29 18:01:16.602,0.88,0.0,-0.002,0.001,-0.017,-0.026000000000000002,-0.986,-28.29,38.93,-81.26,0.9966,-0.0011,-0.0026000000000000003,-0.08220000000000001,0.0,-0.001,-0.005
2025-10-29 18:01:16.603,0.885,0.001,0.002,-0.001,-0.019,-0.027,-0.985,-28.29,38.93,-81.26,0.9966,-0.0011,-0.0026000000000000003,-0.08220000000000001,0.001,0.0,-0.005
2025-10-29 18:01:16.603,0.89,-0.001,-0.002,0.0,-0.018000000000000002,-0.027,-0.985,-28.29,38.93,-81.26,0.9966,-0.0011,-0.0026000000000000003,-0.08220000000000001,0.0,0.0,-0.006
2025-10-29 18:01:16.604,0.895,0.0,0.002,0.0,-0.018000000000000002,-0.029,-0.988,-28.14,39.43,-81.17,0.9966,-0.0011,-0.0026000000000000003,-0.08220000000000001,0.0,0.001,-0.003
2025-10-29 18:01:16.609,0.9,0.0,0.005,0.0,-0.018000000000000002,-0.027,-0.988,-28.14,39.43,-81.17,0.9966,-0.0011,-0.0026000000000000003,-0.08220000000000001,0.0,0.0,-0.003
2025-10-29 18:01:16.649,0.905,0.001,0.001,0.0,-0.018000000000000002,-0.028,-0.988,-28.17,39.4,-81.73,0.9966,-0.0011,-0.0026000000000000003,-0.08220000000000001,0.0,0.0,-0.002
2025-10-29 18:01:16.649,0.91,0.0,0.003,0.0,-0.018000000000000002,-0.027,-0.989,-28.17,39.4,-81.73,0.9966,-0.0011,-0.0026000000000000003,-0.08220000000000001,0.0,0.0,-0.002
2025-10-29 18:01:16.649,0.915,-0.001,0.0,0.0,-0.018000000000000002,-0.028,-0.987,-28.17,39.4,-81.73,0.9966,-0.0011,-0.0026000000000000003,-0.08220000000000001,0.0,0.0,-0.003
2025-10-29 18:01:16.650,0.92,0.0,0.004,0.0,-0.018000000000000002,-0.027,-0.987,-27.88,39.19,-81.52,0.9966,-0.0011,-0.0026000000000000003,-0.08220000000000001,0.0,0.0,-0.004
2025-10-29 18:01:16.650,0.925,0.0,-0.001,-0.001,-0.018000000000000002,-0.028,-0.988,-27.88,39.19,-81.52,0.9966,-0.0011,-0.0026000000000000003,-0.08220000000000001,0.0,0.0,-0.003
2025-10-29 18:01:16.650,0.93,0.0,0.0,0.0,-0.019,-0.026000000000000002,-0.988,-27.650000000000002,38.7,-80.85000000000001,0.9966,-0.0011,-0.0026000000000000003,-0.08220000000000001,0.001,-0.001,-0.003
2025-10-29 18:01:16.651,0.935,0.0,0.006,0.001,-0.019,-0.028,-0.987,-27.650000000000002,38.7,-80.85000000000001,0.9966,-0.0011,-0.0026000000000000003,-0.08220000000000001,0.001,0.0,-0.003
2025-10-29 18:01:16.655,0.94,-0.001,0.0,0.0,-0.018000000000000002,-0.027,-0.987,-27.650000000000002,38.7,-80.85000000000001,0.9966,-0.0011,-0.0026000000000000003,-0.08220000000000001,0.0,0.0,-0.003
2025-10-29 18:01:16.673,0.945,0.0,-0.001,0.0,-0.019,-0.026000000000000002,-0.987,-27.44,39.08,-81.4,0.9966,-0.0011,-0.0026000000000000003,-0.08220000000000001,0.001,-0.001,-0.004
2025-10-29 18:01:16.673,0.95,-0.001,-0.003,0.001,-0.017,-0.027,-0.988,-27.44,39.08,-81.4,0.9966,-0.0011,-0.0026000000000000003,-0.08220000000000001,0.0,0.0,-0.002
2025-10-29 18:01:16.673,0.955,-0.001,0.0,0.0,-0.018000000000000002,-0.028,-0.986,-27.41,38.7,-81.61,0.9966,-0.0011,-0.0026000000000000003,-0.08220000000000001,0.0,0.0,-0.004
2025-10-29 18:01:16.725,0.96,0.001,0.003,0.0,-0.019,-0.028,-0.987,-27.41,38.7,-81.61,0.9966,-0.0011,-0.0026000000000000003,-0.08220000000000001,0.0,0.0,-0.004
2025-10-29 18:01:16.731,0.965,0.0,0.005,0.001,-0.017,-0.028,-0.987,-27.41,38.7,-81.61,0.9966,-0.0011,-0.0026000000000000003,-0.08220000000000001,0.0,0.0,-0.003
2025-10-29 18:01:16.731,0.97,0.0,0.004,0.0,-0.019,-0.028,-0.987,-28.5,39.84,-81.37,0.9966,-0.0011,-0.0026000000000000003,-0.08220000000000001,0.001,0.0,-0.003
2025-10-29 18:01:16.732,0.975,0.0,0.004,0.0,-0.018000000000000002,-0.027,-0.987,-28.5,39.84,-81.37,0.9966,-0.0011,-0.0026000000000000003,-0.08220000000000001,0.0,0.0,-0.004
2025-10-29 18:01:16.733,0.98,0.0,0.002,0.001,-0.019,-0.027,-0.988,-28.73,38.76,-81.55,0.9966,-0.0011,-0.0026000000000000003,-0.08220000000000001,0.001,0.0,-0.003
2025-10-29 18:01:16.747,0.985,0.0,0.002,0.0,-0.018000000000000002,-0.028,-0.987,-28.73,38.76,-81.55,0.9966,-0.0011,-0.0026000000000000003,-0.08220000000000001,0.0,0.0,-0.003
2025-10-29 18:01:16.773,0.99,0.0,0.004,0.0,-0.017,-0.027,-0.985,-28.73,38.76,-81.55,0.9966,-0.0011,-0.0027,-0.08220000000000001,-0.001,0.0,-0.005
2025-10-29 18:01:16.773,0.995,0.0,0.0,-0.001,-0.018000000000000002,-0.028,-0.985,-29.05,39.52,-82.05,0.9966,-0.0011,-0.0027,-0.08220000000000001,0.0,0.0,-0.005
2025-10-29 18:01:16.774,1.0,0.0,0.0,0.0,-0.019,-0.027,-0.986,-29.05,39.52,-82.05,0.9966,-0.0011,-0.0027,-0.08220000000000001,0.001,0.0,-0.004
2025-10-29 18:01:16.774,1.005,0.001,0.003,0.0,-0.018000000000000002,-0.028,-0.987,-28.7,39.78,-81.99,0.9966,-0.0011,-0.0027,-0.08220000000000001,0.0,0.0,-0.004
2025-10-29 18:01:16.774,1.01,0.0,0.001,0.0,-0.018000000000000002,-0.027,-0.986,-28.7,39.78,-81.99,0.9966,-0.0011,-0.0027,-0.08220000000000001,0.0,0.0,-0.005
2025-10-29 18:01:16.775,1.015,0.0,0.0,0.0,-0.018000000000000002,-0.027,-0.987,-28.7,39.78,-81.99,0.9966,-0.0011,-0.0027,-0.08220000000000001,0.0,0.0,-0.003
2025-10-29 18:01:16.775,1.02,0.0,0.001,0.0,-0.019,-0.028,-0.986,-28.29,39.46,-81.29,0.9966,-0.0011,-0.0027,-0.08220000000000001,0.001,0.0,-0.004
2025-10-29 18:01:16.775,1.025,0.0,0.001,0.001,-0.018000000000000002,-0.027,-0.985,-28.29,39.46,-81.29,0.9966,-0.0011,-0.0027,-0.08220000000000001,0.0,0.0,-0.006
2025-10-29 18:01:16.826,1.03,0.001,0.001,0.0,-0.019,-0.029,-0.988,-27.79,39.46,-81.14,0.9966,-0.0011,-0.0027,-0.08220000000000001,0.001,0.001,-0.003
2025-10-29 18:01:16.843,1.035,0.0,0.0,0.0,-0.017,-0.028,-0.988,-27.79,39.46,-81.14,0.9966,-0.0011,-0.0027,-0.08220000000000001,0.0,0.0,-0.002
2025-10-29 18:01:16.844,1.04,0.0,0.0,0.0,-0.018000000000000002,-0.028,-0.988,-27.79,39.46,-81.14,0.9966,-0.0011,-0.0027,-0.08220000000000001,0.0,0.0,-0.002
2025-10-29 18:01:16.844,1.045,0.0,0.001,0.0,-0.019,-0.028,-0.989,-28.61,39.6,-81.26,0.9966,-0.0011,-0.0027,-0.08220000000000001,0.0,0.0,-0.001
2025-10-29 18:01:16.844,1.05,0.0,0.0,0.001,-0.018000000000000002,-0.028,-0.988,-28.61,39.6,-81.26,0.9966,-0.0011,-0.0027,-0.08220000000000001,0.0,0.0,-0.002
2025-10-29 18:01:16.845,1.055,0.001,0.0,0.0,-0.019,-0.028,-0.99,-28.23,39.6,-81.7,0.9966,-0.0011,-0.0027,-0.08220000000000001,0.001,0.0,-0.001
2025-10-29 18:01:16.845,1.06,-0.001,-0.001,0.001,-0.018000000000000002,-0.027,-0.989,-28.23,40.25,-81.7,0.9966,-0.0011,-0.0026000000000000003,-0.08220000000000001,0.0,0.0,-0.002
2025-10-29 18:01:16.845,1.065,-0.001,0.002,0.001,-0.018000000000000002,-0.028,-0.988,-28.23,40.25,-81.7,0.9966,-0.0011,-0.0027,-0.08220000000000001,0.0,0.0,-0.002
2025-10-29 18:01:16.846,1.07,0.0,0.002,-0.002,-0.019,-0.028,-0.986,-28.55,39.92,-81.61,0.9966,-0.0011,-0.0027,-0.08220000000000001,0.0,0.0,-0.004
2025-10-29 18:01:16.855,1.075,0.0,0.005,0.0,-0.018000000000000002,-0.027,-0.987,-28.55,39.92,-81.61,0.9966,-0.0011,-0.0027,-0.08220000000000001,0.0,0.0,-0.004
2025-10-29 18:01:16.866,1.08,0.0,0.002,-0.001,-0.019,-0.027,-0.985,-28.55,39.92,-81.61,0.9966,-0.0011,-0.0027,-0.08220000000000001,0.001,0.0,-0.005
2025-10-29 18:01:16.866,1.085,0.0,0.002,0.0,-0.018000000000000002,-0.028,-0.987,-28.5,38.96,-81.81,0.9966,-0.0011,-0.0027,-0.08220000000000001,0.0,0.0,-0.003
2025-10-29 18:01:16.867,1.09,0.0,0.0,0.0,-0.017,-0.028,-0.987,-28.5,38.96,-81.81,0.9966,-0.0011,-0.0027,-0.08220000000000001,0.0,0.0,-0.003
2025-10-29 18:01:16.867,1.095,0.0,0.0,0.001,-0.019,-0.027,-0.987,-28.64,39.31,-81.32000000000001,0.9966,-0.0011,-0.0027,-0.08220000000000001,0.001,0.0,-0.004
2025-10-29 18:01:16.867,1.1,0.0,0.004,0.001,-0.018000000000000002,-0.027,-0.985,-28.64,39.31,-81.32000000000001,0.9966,-0.0011,-0.0027,-0.08220000000000001,0.0,0.0,-0.005
2025-10-29 18:01:16.868,1.105,-0.001,0.004,0.0,-0.018000000000000002,-0.028,-0.986,-28.64,39.31,-81.32000000000001,0.9966,-0.0011,-0.0027,-0.08220000000000001,0.0,0.0,-0.005
2025-10-29 18:01:16.868,1.11,0.0,0.006,0.001,-0.018000000000000002,-0.028,-0.985,-27.97,39.69,-81.2,0.9966,-0.0011,-0.0027,-0.08220000000000001,0.0,0.0,-0.006
2025-10-29 18:01:16.868,1.115,0.0,0.006,0.0,-0.019,-0.027,-0.987,-27.97,39.69,-81.2,0.9966,-0.0011,-0.0027,-0.08220000000000001,0.001,0.0,-0.004
2025-10-29 18:01:16.871,1.12,0.001,-0.002,0.0,-0.018000000000000002,-0.027,-0.988,-28.41,39.57,-81.14,0.9966,-0.0011,-0.0027,-0.08220000000000001,0.0,0.0,-0.003
2025-10-29 18:01:16.891,1.125,0.0,0.0,0.0,-0.018000000000000002,-0.028,-0.987,-28.41,39.57,-81.14,0.9966,-0.0011,-0.0027,-0.08220000000000001,0.0,0.0,-0.003
2025-10-29 18:01:16.891,1.13,0.001,0.005,0.001,-0.017,-0.027,-0.988,-28.41,39.57,-81.14,0.9966,-0.0011,-0.0027,-0.08220000000000001,0.0,0.0,-0.002
2025-10-29 18:01:16.892,1.135,0.001,0.004,0.001,-0.018000000000000002,-0.028,-0.988,-27.94,39.84,-81.17,0.9966,-0.0011,-0.0027,-0.08220000000000001,0.0,0.0,-0.003
2025-10-29 18:01:16.892,1.14,-0.001,0.001,0.0,-0.019,-0.028,-0.988,-27.94,39.84,-81.17,0.9966,-0.0011,-0.0027,-0.08220000000000001,0.001,0.0,-0.003
2025-10-29 18:01:16.892,1.145,0.0,0.0,0.0,-0.019,-0.028,-0.988,-28.35,39.78,-80.41,0.9966,-0.0011,-0.0027,-0.08220000000000001,0.001,0.0,-0.003
2025-10-29 18:01:16.893,1.15,0.0,-0.002,0.001,-0.018000000000000002,-0.027,-0.988,-28.35,39.78,-80.41,0.9966,-0.0011,-0.0027,-0.08220000000000001,0.0,0.0,-0.003
2025-10-29 18:01:16.893,1.155,-0.001,0.002,0.0,-0.018000000000000002,-0.027,-0.986,-28.35,39.78,-80.41,0.9966,-0.0011,-0.0027,-0.08220000000000001,0.0,0.0,-0.004
2025-10-29 18:01:16.893,1.16,0.0,0.004,0.001,-0.018000000000000002,-0.028,-0.988,-28.2,39.160000000000004,-81.11,0.9966,-0.0011,-0.0027,-0.08220000000000001,0.001,0.0,-0.002
2025-10-29 18:01:16.903,1.165,-0.001,0.004,0.0,-0.017,-0.028,-0.988,-28.2,39.160000000000004,-81.11,0.9966,-0.0011,-0.0028,-0.08220000000000001,0.0,0.0,-0.002
2025-10-29 18:01:16.903,1.17,-0.001,0.0,0.0,-0.018000000000000002,-0.027,-0.988,-27.68,38.61,-80.91,0.9966,-0.0011,-0.0028,-0.08220000000000001,0.0,0.0,-0.002
2025-10-29 18:01:16.904,1.175,-0.001,0.003,0.0,-0.018000000000000002,-0.029,-0.988,-27.68,38.61,-80.91,0.9966,-0.0011,-0.0028,-0.08220000000000001,0.0,0.001,-0.002
2025-10-29 18:01:16.921,1.18,0.0,-0.001,-0.002,-0.016,-0.027,-0.988,-27.68,38.61,-80.91,0.9966,-0.0011,-0.0028,-0.08220000000000001,-0.001,0.0,-0.003
2025-10-29 18:01:16.921,1.185,-0.001,0.003,0.001,-0.018000000000000002,-0.028,-0.984,-28.76,39.43,-80.76,0.9966,-0.0011,-0.0028,-0.08220000000000001,0.0,0.0,-0.006
2025-10-29 18:01:16.921,1.19,0.0,0.003,0.001,-0.018000000000000002,-0.028,-0.985,-28.76,39.43,-80.76,0.9966,-0.0011,-0.0028,-0.08220000000000001,0.0,0.0,-0.006
2025-10-29 18:01:16.922,1.195,0.001,0.001,0.0,-0.019,-0.027,-0.986,-28.7,39.28,-80.64,0.9966,-0.0011,-0.0028,-0.08220000000000001,0.001,0.0,-0.005
2025-10-29 18:01:16.922,1.2,0.0,0.002,0.0,-0.017,-0.028,-0.986,-28.7,39.28,-80.64,0.9966,-0.0011,-0.0028,-0.08220000000000001,0.0,0.0,-0.004
2025-10-29 18:01:16.922,1.205,0.0,-0.001,0.0,-0.02,-0.028,-0.987,-28.7,39.28,-80.64,0.9966,-0.0011,-0.0028,-0.08220000000000001,0.002,0.0,-0.004
2025-10-29 18:01:16.923,1.21,0.0,-0.003,0.0,-0.017,-0.026000000000000002,-0.988,-28.35,39.69,-81.17,0.9966,-0.0011,-0.0028,-0.08220000000000001,0.0,-0.001,-0.003
2025-10-29 18:01:16.923,1.215,0.0,0.001,-0.001,-0.017,-0.026000000000000002,-0.988,-28.35,39.69,-81.17,0.9966,-0.0011,-0.0028,-0.08220000000000001,0.0,-0.001,-0.003
2025-10-29 18:01:16.930,1.22,0.001,0.0,-0.001,-0.018000000000000002,-0.028,-0.985,-28.79,38.38,-80.94,0.9966,-0.0011,-0.0028,-0.08220000000000001,0.0,0.0,-0.005
2025-10-29 18:01:16.930,1.225,0.0,0.0,0.0,-0.018000000000000002,-0.028,-0.988,-28.79,38.38,-80.94,0.9966,-0.0011,-0.0028,-0.08220000000000001,0.0,0.0,-0.003
2025-10-29 18:01:16.937,1.23,0.0,0.004,0.0,-0.018000000000000002,-0.028,-0.988,-28.79,38.38,-80.94,0.9966,-0.0011,-0.0028,-0.08220000000000001,0.0,0.0,-0.003
2025-10-29 18:01:16.938,1.235,0.0,0.004,0.001,-0.019,-0.028,-0.987,-28.26,39.11,-81.64,0.9966,-0.0011,-0.0028,-0.08220000000000001,0.001,0.0,-0.003
2025-10-29 18:01:16.938,1.24,-0.001,0.0,0.0,-0.019,-0.028,-0.988,-28.26,39.11,-81.64,0.9966,-0.0011,-0.0028,-0.08220000000000001,0.001,0.0,-0.003
2025-10-29 18:01:16.953,1.245,0.0,-0.003,0.0,-0.018000000000000002,-0.028,-0.989,-28.2,39.81,-81.55,0.9966,-0.0011,-0.0028,-0.08220000000000001,0.0,0.0,-0.002
2025-10-29 18:01:16.962,1.25,-0.003,0.0,0.0,-0.018000000000000002,-0.026000000000000002,-0.988,-28.2,39.81,-81.55,0.9966,-0.0011,-0.0028,-0.08220000000000001,0.0,-0.001,-0.003
2025-10-29 18:01:16.962,1.255,-0.002,0.002,0.0,-0.017,-0.027,-0.988,-28.2,39.81,-81.55,0.9966,-0.0011,-0.0028,-0.08220000000000001,0.0,0.0,-0.003
2025-10-29 18:01:16.962,1.26,0.0,0.002,0.0,-0.018000000000000002,-0.029,-0.987,-28.64,39.4,-81.55,0.9966,-0.0011,-0.0028,-0.08220000000000001,0.0,0.001,-0.003
2025-10-29 18:01:16.963,1.265,-0.001,0.002,-0.001,-0.018000000000000002,-0.028,-0.986,-28.64,39.4,-81.55,0.9966,-0.0011,-0.0028,-0.08220000000000001,0.0,0.001,-0.004
2025-10-29 18:01:16.963,1.27,0.0,0.003,-0.001,-0.018000000000000002,-0.028,-0.985,-28.73,39.95,-81.05,0.9966,-0.0011,-0.0028,-0.08220000000000001,0.0,0.0,-0.006
2025-10-29 18:01:16.971,1.275,0.0,-0.004,0.0,-0.018000000000000002,-0.028,-0.984,-28.73,39.95,-81.05,0.9966,-0.0011,-0.0028,-0.08220000000000001,0.0,0.0,-0.006
2025-10-29 18:01:16.982,1.28,0.0,0.002,0.0,-0.018000000000000002,-0.028,-0.983,-28.73,39.95,-81.05,0.9966,-0.0011,-0.0028,-0.08220000000000001,0.0,0.0,-0.008
2025-10-29 18:01:16.982,1.285,0.001,0.002,0.0,-0.019,-0.027,-0.985,-28.09,39.63,-81.29,0.9966,-0.0011,-0.0028,-0.08220000000000001,0.001,0.0,-0.005
2025-10-29 18:01:16.982,1.29,0.0,0.002,0.0,-0.018000000000000002,-0.028,-0.985,-28.09,39.63,-81.29,0.9966,-0.0011,-0.0028,-0.08220000000000001,0.0,0.0,-0.005
2025-10-29 18:01:16.983,1.295,0.001,0.003,0.0,-0.017,-0.027,-0.987,-28.09,39.63,-81.29,0.9966,-0.0011,-0.0028,-0.08220000000000001,0.0,0.0,-0.004
2025-10-29 18:01:16.983,1.3,0.001,0.0,0.0,-0.018000000000000002,-0.028,-0.988,-27.41,39.78,-81.17,0.9966,-0.0011,-0.0028,-0.08220000000000001,0.0,0.0,-0.003
2025-10-29 18:01:16.996,1.305,0.0,-0.003,0.001,-0.019,-0.027,-0.984,-27.41,39.78,-81.17,0.9966,-0.0011,-0.0028,-0.08220000000000001,0.001,0.0,-0.007
2025-10-29 18:01:17.004,1.31,0.002,0.0,0.0,-0.019,-0.029,-0.98,-28.67,39.69,-81.2,0.9966,-0.0011,-0.0028,-0.08220000000000001,0.001,0.001,-0.011
2025-10-29 18:01:17.004,1.315,0.0,0.005,0.0,-0.018000000000000002,-0.028,-1.0,-28.67,39.69,-81.2,0.9966,-0.0011,-0.0028,-0.08220000000000001,0.0,0.0,0.009000000000000001
2025-10-29 18:01:17.005,1.32,-0.001,0.0,-0.001,-0.018000000000000002,-0.028,-0.993,-28.67,39.69,-81.2,0.9966,-0.0011,-0.0028,-0.08220000000000001,0.0,0.0,0.001
2025-10-29 18:01:17.017,1.325,0.0,0.005,0.0,-0.019,-0.027,-0.99,-28.67,39.160000000000004,-81.32000000000001,0.9966,-0.0011,-0.0028,-0.08220000000000001,0.001,0.0,-0.001
2025-10-29 18:01:17.049,1.33,0.0,0.0,-0.001,-0.019,-0.029,-0.988,-28.67,39.160000000000004,-81.32000000000001,0.9966,-0.0011,-0.0028,-0.08220000000000001,0.001,0.001,-0.002
2025-10-29 18:01:17.049,1.335,-0.002,0.0,0.001,-0.018000000000000002,-0.028,-0.984,-27.97,38.64,-81.46000000000001,0.9966,-0.0011,-0.0028,-0.08220000000000001,0.0,0.0,-0.007
2025-10-29 18:01:17.049,1.34,-0.001,0.0,0.0,-0.016,-0.028,-0.984,-27.97,38.64,-81.46000000000001,0.9966,-0.0011,-0.0028,-0.08220000000000001,0.0,0.0,-0.006
2025-10-29 18:01:17.054,1.345,-0.001,0.004,0.0,-0.018000000000000002,-0.028,-0.986,-27.97,38.64,-81.46000000000001,0.9966,-0.0011,-0.0028,-0.08220000000000001,0.0,0.0,-0.005
2025-10-29 18:01:17.067,1.35,-0.001,0.004,0.0,-0.019,-0.027,-0.985,-28.14,39.81,-81.46000000000001,0.9966,-0.0011,-0.0028,-0.08220000000000001,0.002,0.0,-0.005
2025-10-29 18:01:17.067,1.355,0.0,0.006,0.0,-0.018000000000000002,-0.027,-0.986,-28.14,39.81,-81.46000000000001,0.9966,-0.0011,-0.0028,-0.08220000000000001,0.0,0.0,-0.005
2025-10-29 18:01:17.068,1.36,0.001,0.0,0.0,-0.019,-0.028,-0.986,-28.88,38.61,-80.73,0.9966,-0.0011,-0.0028,-0.08220000000000001,0.001,0.0,-0.005
2025-10-29 18:01:17.068,1.365,0.0,0.0,0.0,-0.019,-0.029,-0.984,-28.88,38.61,-80.73,0.9966,-0.0011,-0.0028,-0.08220000000000001,0.001,0.001,-0.006
2025-10-29 18:01:17.076,1.37,0.0,0.004,0.0,-0.019,-0.027,-0.982,-28.88,38.61,-80.73,0.9966,-0.0011,-0.0028,-0.08220000000000001,0.001,0.0,-0.008
2025-10-29 18:01:17.086,1.375,0.001,0.003,0.0,-0.019,-0.027,-0.984,-28.09,38.99,-81.35000000000001,0.9966,-0.0011,-0.0028,-0.08220000000000001,0.001,0.0,-0.006
2025-10-29 18:01:17.086,1.38,0.004,-0.002,0.001,-0.018000000000000002,-0.028,-0.983,-28.09,38.99,-81.35000000000001,0.9966,-0.0011,-0.0028,-0.08220000000000001,0.001,0.0,-0.007
2025-10-29 18:01:17.103,1.385,0.003,0.002,0.0,-0.017,-0.027,-0.985,-28.55,39.92,-81.32000000000001,0.9966,-0.0011,-0.0028,-0.08220000000000001,0.0,0.0,-0.005
2025-10-29 18:01:17.112,1.39,0.003,0.0,-0.001,-0.018000000000000002,-0.029,-0.989,-28.55,39.92,-81.32000000000001,0.9966,-0.0011,-0.0028,-0.08220000000000001,0.0,0.001,-0.002
2025-10-29 18:01:17.112,1.395,0.001,0.002,0.0,-0.018000000000000002,-0.027,-0.988,-28.55,39.92,-81.32000000000001,0.9966,-0.0011,-0.0028,-0.08220000000000001,0.0,0.0,-0.003
2025-10-29 18:01:17.112,1.4,0.002,-0.001,0.0,-0.018000000000000002,-0.028,-0.989,-28.61,39.52,-81.64,0.9966,-0.0011,-0.0028,-0.08220000000000001,0.0,0.0,-0.001
2025-10-29 18:01:17.113,1.405,0.0,0.0,0.0,-0.02,-0.028,-0.99,-28.61,39.52,-81.64,0.9966,-0.0011,-0.0028,-0.08220000000000001,0.002,0.0,-0.001
2025-10-29 18:01:17.113,1.41,0.0,0.003,0.002,-0.018000000000000002,-0.029,-0.99,-28.47,39.84,-81.4,0.9966,-0.0012000000000000001,-0.0028,-0.08220000000000001,0.001,0.001,0.0
2025-10-29 18:01:17.113,1.415,0.0,0.001,0.0,-0.018000000000000002,-0.028,-0.99,-28.47,39.84,-81.4,0.9966,-0.0012000000000000001,-0.0028,-0.08220000000000001,0.0,0.0,0.0
2025-10-29 18:01:17.114,1.42,0.0,0.0,0.0,-0.018000000000000002,-0.028,-0.991,-28.47,39.84,-81.4,0.9966,-0.0012000000000000001,-0.0028,-0.08220000000000001,0.0,0.0,0.0
2025-10-29 18:01:17.136,1.425,-0.001,0.003,0.0,-0.018000000000000002,-0.028,-0.99,-28.76,39.69,-81.52,0.9966,-0.0012000000000000001,-0.0028,-0.08220000000000001,0.0,0.0,0.0
2025-10-29 18:01:17.162,1.43,-0.003,0.003,0.0,-0.018000000000000002,-0.027,-0.988,-28.76,39.69,-81.52,0.9966,-0.0012000000000000001,-0.0028,-0.08220000000000001,0.0,0.0,-0.002
2025-10-29 18:01:17.162,1.435,-0.001,0.0,0.0,-0.018000000000000002,-0.027,-0.99,-28.76,39.25,-81.2,0.9966,-0.0011,-0.0028,-0.08220000000000001,0.001,0.0,-0.001
2025-10-29 18:01:17.162,1.44,-0.002,0.001,0.0,-0.018000000000000002,-0.028,-0.989,-28.76,39.25,-81.2,0.9966,-0.0011,-0.0028,-0.08220000000000001,0.0,0.0,-0.001
2025-10-29 18:01:17.163,1.445,-0.001,-0.002,0.0,-0.017,-0.028,-0.988,-28.76,39.25,-81.2,0.9966,-0.0011,-0.0028,-0.08220000000000001,0.0,0.0,-0.003
2025-10-29 18:01:17.192,1.45,-0.004,-0.005,0.0,-0.018000000000000002,-0.027,-0.985,-28.96,39.4,-80.79,0.9966,-0.0011,-0.0027,-0.08220000000000001,0.0,0.0,-0.006
2025-10-29 18:01:17.218,1.455,-0.003,-0.003,0.001,-0.019,-0.027,-0.983,-28.96,39.4,-80.79,0.9966,-0.0011,-0.0027,-0.08220000000000001,0.001,0.0,-0.008
2025-10-29 18:01:17.218,1.46,-0.001,0.0,0.0,-0.018000000000000002,-0.026000000000000002,-0.982,-28.79,39.9,-80.99,0.9966,-0.0011,-0.0027,-0.08220000000000001,0.0,-0.001,-0.009000000000000001
2025-10-29 18:01:17.219,1.465,0.0,0.002,0.0,-0.019,-0.028,-0.981,-28.79,39.9,-80.99,0.9966,-0.0011,-0.0027,-0.08220000000000001,0.001,0.0,-0.01
2025-10-29 18:01:17.219,1.47,0.0,0.003,0.0,-0.018000000000000002,-0.027,-0.981,-28.79,39.9,-80.99,0.9966,-0.0011,-0.0027,-0.08220000000000001,0.0,0.0,-0.01
2025-10-29 18:01:17.235,1.475,0.002,0.001,0.0,-0.019,-0.026000000000000002,-0.98,-28.41,39.54,-81.46000000000001,0.9966,-0.0011,-0.0028,-0.08220000000000001,0.001,0.0,-0.011
2025-10-29 18:01:17.246,1.48,0.001,0.0,0.001,-0.017,-0.027,-0.981,-28.41,39.54,-81.46000000000001,0.9966,-0.0011,-0.0028,-0.08220000000000001,0.0,0.0,-0.009000000000000001
2025-10-29 18:01:17.247,1.485,0.002,0.0,-0.001,-0.018000000000000002,-0.026000000000000002,-0.983,-28.44,39.69,-81.52,0.9966,-0.0011,-0.0028,-0.08220000000000001,0.0,-0.001,-0.008
2025-10-29 18:01:17.247,1.49,0.004,0.004,0.0,-0.018000000000000002,-0.027,-0.986,-28.44,39.69,-81.52,0.9966,-0.0011,-0.0028,-0.08220000000000001,0.001,0.0,-0.005
2025-10-29 18:01:17.256,1.495,0.003,0.004,-0.001,-0.018000000000000002,-0.027,-0.989,-28.44,39.69,-81.52,0.9966,-0.0011,-0.0028,-0.08220000000000001,0.0,0.0,-0.002
2025-10-29 18:01:17.270,1.5,0.002,0.002,0.0,-0.019,-0.027,-0.99,-28.41,38.26,-81.37,0.9966,-0.0011,-0.0028,-0.08220000000000001,0.001,-0.001,0.0
2025-10-29 18:01:17.270,1.505,0.002,0.0,-0.002,-0.018000000000000002,-0.028,-0.994,-28.41,38.26,-81.37,0.9966,-0.0011,-0.0028,-0.08220000000000001,0.0,0.0,0.002
2025-10-29 18:01:17.270,1.51,0.001,0.0,0.0,-0.018000000000000002,-0.028,-0.994,-28.41,38.26,-81.37,0.9966,-0.0011,-0.0028,-0.08220000000000001,0.0,0.0,0.003
2025-10-29 18:01:17.271,1.515,0.0,-0.001,0.0,-0.018000000000000002,-0.028,-0.994,-28.41,40.22,-80.85000000000001,0.9966,-0.0011,-0.0028,-0.08220000000000001,0.0,0.0,0.002
2025-10-29 18:01:17.271,1.52,-0.001,0.0,0.001,-0.019,-0.029,-0.993,-28.41,40.22,-80.85000000000001,0.9966,-0.0011,-0.0028,-0.08220000000000001,0.001,0.001,0.002
2025-10-29 18:01:17.271,1.525,-0.002,0.003,0.0,-0.018000000000000002,-0.029,-0.995,-28.580000000000002,39.49,-81.02,0.9966,-0.0011,-0.0028,-0.08220000000000001,0.0,0.0,0.003
2025-10-29 18:01:17.272,1.53,-0.003,0.003,0.0,-0.018000000000000002,-0.028,-0.991,-28.580000000000002,39.49,-81.02,0.9966,-0.0011,-0.0028,-0.08220000000000001,0.0,0.0,0.0
2025-10-29 18:01:17.272,1.535,-0.003,0.0,0.0,-0.018000000000000002,-0.027,-0.987,-28.580000000000002,39.49,-81.02,0.9966,-0.0011,-0.0028,-0.08220000000000001,0.0,0.0,-0.003
2025-10-29 18:01:17.281,1.54,-0.003,-0.003,0.0,-0.018000000000000002,-0.027,-0.985,-28.79,38.99,-80.97,0.9966,-0.0011,-0.0027,-0.08220000000000001,0.0,0.0,-0.006
2025-10-29 18:01:17.281,1.545,-0.002,-0.001,-0.002,-0.018000000000000002,-0.027,-0.983,-28.79,38.99,-80.97,0.9966,-0.0011,-0.0027,-0.08220000000000001,0.0,0.0,-0.008
2025-10-29 18:01:17.281,1.55,-0.003,0.0,0.0,-0.019,-0.027,-0.981,-28.990000000000002,39.28,-81.2,0.9966,-0.0011,-0.0027,-0.08220000000000001,0.001,0.0,-0.01
2025-10-29 18:01:17.282,1.555,-0.004,0.002,0.0,-0.019,-0.027,-0.981,-28.990000000000002,39.28,-81.2,0.9966,-0.0011,-0.0027,-0.08220000000000001,0.001,0.0,-0.01
2025-10-29 18:01:17.282,1.56,0.0,0.002,0.0,-0.019,-0.027,-0.981,-28.990000000000002,39.28,-81.2,0.9966,-0.0011,-0.0028,-0.08220000000000001,0.001,0.0,-0.01
2025-10-29 18:01:17.282,1.565,0.0,0.002,0.001,-0.019,-0.027,-0.981,-28.47,40.13,-81.26,0.9966,-0.0011,-0.0028,-0.08220000000000001,0.001,0.0,-0.01
2025-10-29 18:01:17.303,1.57,0.001,0.0,0.0,-0.018000000000000002,-0.027,-0.981,-28.47,40.13,-81.26,0.9966,-0.0011,-0.0028,-0.08220000000000001,0.0,0.0,-0.01
2025-10-29 18:01:17.304,1.575,0.001,0.001,0.0,-0.018000000000000002,-0.027,-0.982,-28.990000000000002,39.72,-80.91,0.9966,-0.0011,-0.0028,-0.08220000000000001,0.0,0.0,-0.009000000000000001
2025-10-29 18:01:17.304,1.58,0.002,0.005,0.0,-0.019,-0.027,-0.982,-28.990000000000002,39.72,-80.91,0.9966,-0.0011,-0.0028,-0.08220000000000001,0.001,0.0,-0.009000000000000001
2025-10-29 18:01:17.304,1.585,0.002,0.006,0.001,-0.016,-0.027,-0.986,-28.990000000000002,39.72,-80.91,0.9966,-0.0011,-0.0028,-0.08220000000000001,0.0,0.0,-0.005
2025-10-29 18:01:17.305,1.59,0.004,0.004,0.0,-0.018000000000000002,-0.027,-0.988,-28.93,39.84,-81.67,0.9966,-0.0011,-0.0028,-0.08220000000000001,0.0,0.0,-0.003
2025-10-29 18:01:17.305,1.595,0.003,0.004,-0.001,-0.017,-0.028,-0.989,-28.93,39.84,-81.67,0.9966,-0.0011,-0.0028,-0.08220000000000001,0.0,0.0,-0.002
2025-10-29 18:01:17.306,1.6,0.002,-0.002,0.0,-0.018000000000000002,-0.028,-0.989,-28.61,39.4,-80.97,0.9966,-0.0011,-0.0028,-0.08220000000000001,0.0,0.0,-0.002
2025-10-29 18:01:17.306,1.605,0.002,0.0,0.0,-0.018000000000000002,-0.028,-0.99,-28.61,39.4,-80.97,0.9966,-0.0011,-0.0028,-0.08220000000000001,0.0,0.0,0.0
2025-10-29 18:01:17.319,1.61,0.001,0.002,0.0,-0.018000000000000002,-0.029,-0.992,-28.61,39.4,-80.97,0.9966,-0.0011,-0.0028,-0.08220000000000001,0.0,0.0,0.001
2025-10-29 18:01:17.344,1.615,0.0,0.001,0.0,-0.018000000000000002,-0.029,-0.991,-28.96,38.230000000000004,-81.11,0.9966,-0.0012000000000000001,-0.0028,-0.08220000000000001,0.0,0.001,0.0
2025-10-29 18:01:17.344,1.62,-0.001,0.001,0.0,-0.018000000000000002,-0.028,-0.993,-28.96,38.230000000000004,-81.11,0.9966,-0.0012000000000000001,-0.0028,-0.08220000000000001,0.0,0.0,0.002
2025-10-29 18:01:17.344,1.625,0.0,0.0,0.0,-0.018000000000000002,-0.027,-0.992,-28.900000000000002,38.730000000000004,-82.05,0.9966,-0.0012000000000000001,-0.0028,-0.08220000000000001,0.0,0.0,0.0
2025-10-29 18:01:17.370,1.63,-0.001,0.0,0.0,-0.018000000000000002,-0.028,-0.992,-28.900000000000002,38.730000000000004,-82.05,0.9966,-0.0012000000000000001,-0.0028,-0.08220000000000001,0.001,0.0,0.0
2025-10-29 18:01:17.396,1.635,-0.003,-0.002,0.0,-0.018000000000000002,-0.028,-0.989,-28.900000000000002,38.730000000000004,-82.05,0.9966,-0.0012000000000000001,-0.0028,-0.08220000000000001,0.0,0.0,-0.001
2025-10-29 18:01:17.396,1.64,-0.003,-0.001,0.0,-0.018000000000000002,-0.028,-0.989,-28.67,39.49,-81.67,0.9966,-0.0011,-0.0028,-0.08220000000000001,0.0,0.0,-0.002
2025-10-29 18:01:17.396,1.645,-0.004,0.002,0.0,-0.018000000000000002,-0.027,-0.987,-28.67,39.49,-81.67,0.9966,-0.0011,-0.0028,-0.08220000000000001,0.0,0.0,-0.004
2025-10-29 18:01:17.425,1.65,-0.002,0.006,0.0,-0.018000000000000002,-0.026000000000000002,-0.984,-28.61,39.31,-82.31,0.9966,-0.0011,-0.0028,-0.08220000000000001,0.0,-0.001,-0.007
2025-10-29 18:01:17.425,1.655,-0.003,0.002,0.0,-0.019,-0.026000000000000002,-0.983,-28.61,39.31,-82.31,0.9966,-0.0011,-0.0028,-0.08220000000000001,0.001,-0.001,-0.008
2025-10-29 18:01:17.447,1.66,-0.001,0.002,0.0,-0.019,-0.027,-0.983,-28.61,39.31,-82.31,0.9966,-0.0011,-0.0028,-0.08220000000000001,0.001,0.0,-0.007
2025-10-29 18:01:17.447,1.665,0.0,0.0,0.0,-0.018000000000000002,-0.027,-0.983,-28.990000000000002,38.43,-81.9,0.9966,-0.0011,-0.0028,-0.08220000000000001,0.001,0.0,-0.008
2025-10-29 18:01:17.447,1.67,-0.003,0.001,0.0,-0.018000000000000002,-0.028,-0.982,-28.990000000000002,38.43,-81.9,0.9966,-0.0011,-0.0028,-0.08220000000000001,0.0,0.0,-0.009000000000000001
2025-10-29 18:01:17.448,1.675,0.0,-0.003,0.0,-0.018000000000000002,-0.027,-0.983,-28.96,39.54,-81.05,0.9966,-0.0011,-0.0028,-0.08220000000000001,0.0,0.0,-0.007
2025-10-29 18:01:17.448,1.68,0.0,-0.002,0.0,-0.017,-0.026000000000000002,-0.982,-28.96,39.54,-81.05,0.9966,-0.0011,-0.0028,-0.08220000000000001,0.0,-0.001,-0.008
2025-10-29 18:01:17.448,1.685,0.001,0.002,0.0,-0.019,-0.027,-0.983,-28.96,39.54,-81.05,0.9966,-0.0011,-0.0028,-0.08220000000000001,0.001,0.0,-0.008
2025-10-29 18:01:17.457,1.69,0.001,0.0,0.0,-0.018000000000000002,-0.028,-0.984,-28.96,39.57,-81.99,0.9966,-0.0011,-0.0028,-0.08220000000000001,0.0,0.0,-0.007
2025-10-29 18:01:17.473,1.695,0.002,0.0,0.0,-0.018000000000000002,-0.028,-0.984,-28.96,39.57,-81.99,0.9966,-0.0011,-0.0028,-0.08220000000000001,0.0,0.0,-0.006
2025-10-29 18:01:17.474,1.7,0.001,0.0,0.0,-0.019,-0.028,-0.985,-28.55,39.49,-81.99,0.9966,-0.0011,-0.0028,-0.08220000000000001,0.001,0.0,-0.006
2025-10-29 18:01:17.474,1.705,0.001,0.007,-0.001,-0.018000000000000002,-0.029,-0.987,-28.55,39.49,-81.99,0.9966,-0.0011,-0.0028,-0.08220000000000001,0.0,0.001,-0.004
2025-10-29 18:01:17.474,1.71,0.001,0.004,0.0,-0.019,-0.027,-0.988,-28.55,39.49,-81.99,0.9966,-0.0011,-0.0028,-0.08220000000000001,0.001,0.0,-0.003
2025-10-29 18:01:17.475,1.715,0.001,-0.001,0.0,-0.018000000000000002,-0.027,-0.989,-28.88,39.52,-82.05,0.9966,-0.0011,-0.0028,-0.08220000000000001,0.0,0.0,-0.002
2025-10-29 18:01:17.475,1.72,0.001,0.0,0.0,-0.019,-0.028,-0.989,-28.88,39.52,-82.05,0.9966,-0.0011,-0.0028,-0.08220000000000001,0.001,0.0,-0.002
2025-10-29 18:01:17.475,1.725,0.001,-0.002,0.001,-0.019,-0.028,-0.989,-28.88,39.52,-81.84,0.9966,-0.0011,-0.0028,-0.08220000000000001,0.001,0.0,-0.002
2025-10-29 18:01:17.476,1.73,0.0,0.0,0.0,-0.019,-0.028,-0.988,-28.73,39.31,-81.84,0.9966,-0.0011,-0.0028,-0.08220000000000001,0.001,0.0,-0.002
2025-10-29 18:01:17.479,1.735,-0.001,0.003,0.0,-0.018000000000000002,-0.028,-0.988,-28.73,39.31,-81.84,0.9966,-0.0011,-0.0028,-0.08220000000000001,0.0,0.0,-0.002
2025-10-29 18:01:17.479,1.74,0.0,0.002,0.0,-0.017,-0.027,-0.988,-28.64,39.52,-82.02,0.9966,-0.0011,-0.0028,-0.08220000000000001,0.0,0.0,-0.002
2025-10-29 18:01:17.506,1.745,0.0,0.0,0.0,-0.018000000000000002,-0.028,-0.987,-28.64,39.52,-82.02,0.9966,-0.0011,-0.0028,-0.08220000000000001,0.0,0.0,-0.004
2025-10-29 18:01:17.506,1.75,0.0,-0.001,0.001,-0.018000000000000002,-0.027,-0.986,-28.64,39.52,-82.02,0.9966,-0.0011,-0.0028,-0.08220000000000001,0.0,0.0,-0.005
2025-10-29 18:01:17.506,1.755,0.0,0.0,0.0,-0.018000000000000002,-0.026000000000000002,-0.985,-28.88,39.4,-82.19,0.9966,-0.0011,-0.0028,-0.08220000000000001,0.0,-0.001,-0.006
2025-10-29 18:01:17.507,1.76,0.0,0.0,0.0,-0.019,-0.027,-0.985,-28.88,39.4,-82.19,0.9966,-0.0011,-0.0028,-0.08220000000000001,0.001,0.0,-0.006
2025-10-29 18:01:17.507,1.765,0.001,0.0,0.0,-0.018000000000000002,-0.028,-0.986,-28.580000000000002,39.11,-82.05,0.9966,-0.0011,-0.0028,-0.08220000000000001,0.0,0.0,-0.005
2025-10-29 18:01:17.508,1.77,0.0,0.001,0.001,-0.017,-0.026000000000000002,-0.986,-28.580000000000002,39.11,-82.05,0.9966,-0.0011,-0.0028,-0.08220000000000001,0.0,-0.001,-0.005
2025-10-29 18:01:17.508,1.775,0.001,0.0,0.0,-0.018000000000000002,-0.027,-0.987,-28.580000000000002,39.11,-82.05,0.9966,-0.0011,-0.0028,-0.08220000000000001,0.0,0.0,-0.004
2025-10-29 18:01:17.508,1.78,0.0,0.0,0.001,-0.017,-0.028,-0.988,-28.61,40.1,-81.49,0.9966,-0.0011,-0.0028,-0.08220000000000001,0.0,0.0,-0.003
2025-10-29 18:01:17.555,1.785,-0.001,0.0,-0.001,-0.018000000000000002,-0.028,-0.988,-28.61,40.1,-81.49,0.9966,-0.0011,-0.0028,-0.08220000000000001,0.0,0.0,-0.003
2025-10-29 18:01:17.555,1.79,-0.001,-0.002,0.0,-0.019,-0.027,-0.987,-29.11,39.52,-80.91,0.9966,-0.0011,-0.0028,-0.08220000000000001,0.001,0.0,-0.004
2025-10-29 18:01:17.556,1.795,0.0,0.0,0.0,-0.018000000000000002,-0.028,-0.987,-29.11,39.52,-80.91,0.9966,-0.0011,-0.0028,-0.08220000000000001,0.0,0.0,-0.003
2025-10-29 18:01:17.581,1.8,0.001,0.0,0.0,-0.016,-0.028,-0.987,-29.11,39.52,-80.91,0.9966,-0.0011,-0.0028,-0.08220000000000001,-0.001,0.0,-0.003
2025-10-29 18:01:17.581,1.805,0.0,0.006,0.0,-0.017,-0.028,-0.987,-28.52,39.11,-81.14,0.9966,-0.0011,-0.0028,-0.08220000000000001,0.0,0.0,-0.003
2025-10-29 18:01:17.581,1.81,0.001,0.004,-0.001,-0.018000000000000002,-0.028,-0.987,-28.52,39.11,-81.14,0.9966,-0.0011,-0.0028,-0.08220000000000001,0.0,0.0,-0.003
2025-10-29 18:01:17.582,1.815,0.0,-0.001,0.0,-0.017,-0.028,-0.986,-29.23,39.660000000000004,-80.91,0.9966,-0.0011,-0.0028,-0.08220000000000001,0.0,0.0,-0.004
2025-10-29 18:01:17.582,1.82,0.0,0.0,0.0,-0.019,-0.027,-0.985,-29.23,39.660000000000004,-80.91,0.9966,-0.0011,-0.0028,-0.08220000000000001,0.001,0.0,-0.006
2025-10-29 18:01:17.582,1.825,0.0,-0.001,0.0,-0.019,-0.028,-0.984,-29.23,39.660000000000004,-80.91,0.9966,-0.0011,-0.0028,-0.08220000000000001,0.001,0.0,-0.007
2025-10-29 18:01:17.591,1.83,0.001,0.006,0.0,-0.017,-0.027,-0.985,-27.71,38.64,-81.2,0.9966,-0.0011,-0.0028,-0.08220000000000001,0.0,0.0,-0.005
2025-10-29 18:01:17.604,1.835,0.001,0.001,0.0,-0.019,-0.027,-0.986,-27.71,38.64,-81.2,0.9966,-0.0011,-0.0028,-0.08220000000000001,0.001,0.0,-0.005
2025-10-29 18:01:17.604,1.84,0.0,0.0,0.0,-0.019,-0.027,-0.986,-27.650000000000002,38.9,-81.61,0.9966,-0.0011,-0.0028,-0.08220000000000001,0.001,0.0,-0.005
2025-10-29 18:01:17.604,1.845,0.003,0.001,0.0,-0.019,-0.027,-0.987,-27.650000000000002,38.9,-81.61,0.9966,-0.0011,-0.0028,-0.08220000000000001,0.001,0.0,-0.004
2025-10-29 18:01:17.617,1.85,0.003,0.002,-0.001,-0.018000000000000002,-0.028,-0.988,-27.650000000000002,38.9,-81.61,0.9966,-0.0012000000000000001,-0.0028,-0.08220000000000001,0.0,0.0,-0.002
2025-10-29 18:01:17.633,1.855,0.001,0.001,0.001,-0.018000000000000002,-0.028,-0.988,-28.23,39.46,-81.49,0.9966,-0.0012000000000000001,-0.0028,-0.08220000000000001,0.0,0.0,-0.002
2025-10-29 18:01:17.634,1.86,0.001,0.003,0.001,-0.018000000000000002,-0.027,-0.988,-28.23,39.46,-81.49,0.9966,-0.0012000000000000001,-0.0028,-0.08220000000000001,0.0,0.0,-0.003
2025-10-29 18:01:17.634,1.865,0.001,0.0,0.0,-0.018000000000000002,-0.028,-0.988,-28.82,39.34,-81.23,0.9966,-0.0012000000000000001,-0.0028,-0.08220000000000001,0.0,0.0,-0.002
2025-10-29 18:01:17.634,1.87,0.0,0.0,0.0,-0.018000000000000002,-0.026000000000000002,-0.989,-28.82,39.34,-81.23,0.9966,-0.0012000000000000001,-0.0028,-0.08220000000000001,0.0,-0.001,-0.002
2025-10-29 18:01:17.635,1.875,0.0,-0.002,-0.001,-0.017,-0.028,-0.988,-28.82,39.34,-81.23,0.9966,-0.0012000000000000001,-0.0028,-0.08220000000000001,0.0,0.0,-0.002
2025-10-29 18:01:17.635,1.88,0.0,0.0,0.0,-0.017,-0.027,-0.991,-28.67,39.11,-80.99,0.9966,-0.0012000000000000001,-0.0028,-0.08220000000000001,0.0,0.0,0.0
2025-10-29 18:01:17.635,1.885,0.0,0.007,0.0,-0.018000000000000002,-0.028,-0.985,-28.67,39.11,-80.99,0.9966,-0.0012000000000000001,-0.0028,-0.08220000000000001,0.0,0.0,-0.006
2025-10-29 18:01:17.636,1.89,0.0,0.007,0.0,-0.017,-0.027,-0.982,-28.93,39.78,-81.4,0.9966,-0.0012000000000000001,-0.0028,-0.08220000000000001,0.0,0.0,-0.008
2025-10-29 18:01:17.639,1.895,0.0,0.002,-0.001,-0.018000000000000002,-0.027,-0.986,-28.93,39.78,-81.4,0.9966,-0.0012000000000000001,-0.0028,-0.08220000000000001,0.0,0.0,-0.004
2025-10-29 18:01:17.639,1.9,0.0,0.0,0.0,-0.02,-0.029,-0.987,-28.93,39.78,-81.4,0.9966,-0.0012000000000000001,-0.0028,-0.08220000000000001,0.002,0.0,-0.004
2025-10-29 18:01:17.640,1.905,-0.001,0.001,0.001,-0.018000000000000002,-0.028,-0.987,-29.02,39.980000000000004,-81.61,0.9966,-0.0011,-0.0028,-0.08220000000000001,0.0,0.0,-0.004
2025-10-29 18:01:17.649,1.91,0.0,-0.002,0.0,-0.019,-0.028,-0.987,-29.02,39.980000000000004,-81.61,0.9966,-0.0012000000000000001,-0.0028,-0.08220000000000001,0.001,0.0,-0.003
2025-10-29 18:01:17.650,1.915,-0.001,0.002,0.001,-0.018000000000000002,-0.028,-0.987,-29.02,39.980000000000004,-81.61,0.9966,-0.0011,-0.0028,-0.08220000000000001,0.001,0.0,-0.004
2025-10-29 18:01:17.650,1.92,0.0,0.004,0.0,-0.017,-0.028,-0.987,-28.64,39.980000000000004,-81.81,0.9966,-0.0011,-0.0028,-0.08220000000000001,0.0,0.0,-0.003
2025-10-29 18:01:17.651,1.925,0.0,0.0,0.0,-0.018000000000000002,-0.028,-0.986,-28.64,39.980000000000004,-81.81,0.9966,-0.0011,-0.0028,-0.08220000000000001,0.0,0.0,-0.005
2025-10-29 18:01:17.651,1.93,0.0,-0.003,0.0,-0.019,-0.028,-0.985,-28.580000000000002,39.72,-81.75,0.9966,-0.0012000000000000001,-0.0028,-0.08220000000000001,0.001,0.0,-0.005
2025-10-29 18:01:17.651,1.935,-0.001,-0.002,0.001,-0.016,-0.027,-0.988,-28.580000000000002,39.72,-81.75,0.9966,-0.0011,-0.0028,-0.08220000000000001,0.0,0.0,-0.003
2025-10-29 18:01:17.652,1.94,-0.001,0.0,0.0,-0.018000000000000002,-0.028,-0.987,-28.41,39.72,-81.64,0.9966,-0.0011,-0.0028,-0.08220000000000001,0.0,0.0,-0.003
2025-10-29 18:01:17.652,1.945,-0.001,0.0,0.0,-0.018000000000000002,-0.029,-0.987,-28.41,39.78,-81.64,0.9966,-0.0011,-0.0028,-0.08220000000000001,0.0,0.001,-0.003
2025-10-29 18:01:17.663,1.95,-0.002,0.003,0.001,-0.018000000000000002,-0.028,-0.987,-28.41,39.78,-81.64,0.9966,-0.0011,-0.0028,-0.08220000000000001,0.0,0.0,-0.003
2025-10-29 18:01:17.663,1.955,0.0,-0.001,0.0,-0.018000000000000002,-0.027,-0.986,-28.64,39.9,-81.29,0.9966,-0.0011,-0.0028,-0.08220000000000001,0.0,0.0,-0.004
2025-10-29 18:01:17.663,1.96,-0.001,0.0,-0.001,-0.02,-0.028,-0.987,-28.64,39.9,-81.29,0.9966,-0.0011,-0.0028,-0.08220000000000001,0.002,0.0,-0.003
2025-10-29 18:01:17.675,1.965,-0.001,-0.001,0.0,-0.018000000000000002,-0.027,-0.986,-28.64,39.9,-81.29,0.9966,-0.0011,-0.0028,-0.08220000000000001,0.0,0.0,-0.005
2025-10-29 18:01:17.676,1.97,-0.001,0.0,0.0,-0.018000000000000002,-0.027,-0.986,-28.5,39.9,-81.32000000000001,0.9966,-0.0011,-0.0028,-0.08220000000000001,0.0,0.0,-0.005
2025-10-29 18:01:17.676,1.975,-0.001,-0.001,0.0,-0.018000000000000002,-0.027,-0.987,-28.5,39.9,-81.32000000000001,0.9966,-0.0011,-0.0028,-0.08220000000000001,0.0,0.0,-0.004
2025-10-29 18:01:17.676,1.98,0.0,0.003,0.001,-0.017,-0.028,-0.985,-28.29,39.6,-81.73,0.9966,-0.0011,-0.0028,-0.08220000000000001,0.0,0.0,-0.005
2025-10-29 18:01:17.685,1.985,-0.001,0.001,0.0,-0.018000000000000002,-0.028,-0.986,-28.29,39.6,-81.73,0.9966,-0.0011,-0.0028,-0.08220000000000001,0.001,0.0,-0.004
2025-10-29 18:01:17.699,1.99,0.0,0.0,0.0,-0.018000000000000002,-0.027,-0.986,-28.29,39.6,-81.73,0.9966,-0.0011,-0.0028,-0.08220000000000001,0.0,0.0,-0.004
2025-10-29 18:01:17.700,1.995,0.0,0.002,0.0,-0.017,-0.028,-0.985,-28.7,40.04,-81.75,0.9966,-0.0011,-0.0028,-0.08220000000000001,0.0,0.0,-0.005
2025-10-29 18:01:17.700,2.0,-0.001,-0.002,0.0,-0.018000000000000002,-0.027,-0.987,-28.7,40.04,-81.75,0.9966,-0.0011,-0.0028,-0.08220000000000001,0.0,0.0,-0.003
2025-10-29 18:01:17.700,2.005,0.0,0.002,0.001,-0.018000000000000002,-0.027,-0.987,-28.79,40.04,-82.02,0.9966,-0.0011,-0.0028,-0.08220000000000001,0.0,0.0,-0.004
2025-10-29 18:01:17.706,2.01,0.0,0.007,0.0,-0.018000000000000002,-0.028,-0.986,-28.79,40.04,-82.02,0.9966,-0.0011,-0.0028,-0.08220000000000001,0.0,0.0,-0.005
2025-10-29 18:01:17.727,2.015,0.0,0.002,0.0,-0.018000000000000002,-0.027,-0.986,-28.79,40.04,-82.02,0.9966,-0.0011,-0.0029000000000000002,-0.08220000000000001,0.0,0.0,-0.004
2025-10-29 18:01:17.727,2.02,0.002,0.004,0.0,-0.018000000000000002,-0.026000000000000002,-0.986,-28.44,38.730000000000004,-81.9,0.9966,-0.0011,-0.0029000000000000002,-0.08220000000000001,0.001,-0.001,-0.004
2025-10-29 18:01:17.727,2.025,0.001,0.0,-0.001,-0.016,-0.027,-0.986,-28.44,38.730000000000004,-81.9,0.9966,-0.0011,-0.0029000000000000002,-0.08220000000000001,0.0,0.0,-0.005
2025-10-29 18:01:17.728,2.03,0.0,0.0,-0.002,-0.018000000000000002,-0.028,-0.987,-28.88,39.69,-81.67,0.9966,-0.0011,-0.0029000000000000002,-0.08220000000000001,0.0,0.0,-0.004
2025-10-29 18:01:17.734,2.035,0.0,0.001,0.0,-0.018000000000000002,-0.028,-0.987,-28.88,39.69,-81.67,0.9966,-0.0011,-0.0029000000000000002,-0.08220000000000001,0.001,0.0,-0.003
2025-10-29 18:01:17.744,2.04,0.0,0.001,0.0,-0.018000000000000002,-0.029,-0.987,-28.88,39.69,-81.67,0.9966,-0.0011,-0.0029000000000000002,-0.08220000000000001,0.0,0.001,-0.004
2025-10-29 18:01:17.745,2.045,0.0,0.001,0.001,-0.018000000000000002,-0.028,-0.989,-28.85,39.49,-81.78,0.9966,-0.0011,-0.0029000000000000002,-0.08220000000000001,0.001,0.0,-0.002
2025-10-29 18:01:17.745,2.05,0.0,0.002,0.0,-0.018000000000000002,-0.028,-0.988,-28.85,39.49,-81.78,0.9966,-0.0011,-0.0029000000000000002,-0.08220000000000001,0.001,0.0,-0.003
2025-10-29 18:01:17.745,2.055,0.0,-0.002,0.0,-0.018000000000000002,-0.028,-0.986,-28.64,39.660000000000004,-81.35000000000001,0.9966,-0.0011,-0.0029000000000000002,-0.08220000000000001,0.0,0.0,-0.005
2025-10-29 18:01:17.751,2.06,-0.002,0.0,0.0,-0.018000000000000002,-0.027,-0.987,-28.64,39.660000000000004,-81.35000000000001,0.9966,-0.0011,-0.0029000000000000002,-0.08220000000000001,0.0,0.0,-0.004
2025-10-29 18:01:17.769,2.065,-0.001,0.0,0.0,-0.018000000000000002,-0.027,-0.987,-28.64,39.660000000000004,-81.35000000000001,0.9966,-0.0011,-0.0029000000000000002,-0.08220000000000001,0.0,0.0,-0.003
2025-10-29 18:01:17.769,2.07,0.0,0.006,0.0,-0.016,-0.027,-0.987,-29.2,38.93,-81.35000000000001,0.9966,-0.0011,-0.0029000000000000002,-0.08220000000000001,-0.001,0.0,-0.004
2025-10-29 18:01:17.770,2.075,-0.001,0.0,-0.001,-0.017,-0.026000000000000002,-0.986,-29.2,38.93,-81.35000000000001,0.9966,-0.0011,-0.0029000000000000002,-0.08220000000000001,0.0,-0.001,-0.005
2025-10-29 18:01:17.776,2.08,-0.003,0.0,0.0,-0.019,-0.028,-0.986,-29.05,39.49,-81.17,0.9966,-0.0011,-0.0029000000000000002,-0.08220000000000001,0.001,0.0,-0.004
2025-10-29 18:01:17.794,2.085,-0.001,0.0,0.001,-0.017,-0.027,-0.987,-29.05,39.49,-81.17,0.9966,-0.0011,-0.0029000000000000002,-0.08220000000000001,0.0,0.0,-0.004
2025-10-29 18:01:17.794,2.09,0.0,0.0,-0.002,-0.018000000000000002,-0.028,-0.984,-29.05,39.49,-81.17,0.9966,-0.0011,-0.0029000000000000002,-0.08220000000000001,0.0,0.0,-0.007
2025-10-29 18:01:17.794,2.095,-0.001,-0.003,0.0,-0.018000000000000002,-0.027,-0.984,-29.66,39.75,-81.32000000000001,0.9966,-0.0011,-0.0029000000000000002,-0.08220000000000001,0.0,0.0,-0.006
2025-10-29 18:01:17.795,2.1,0.0,0.002,-0.001,-0.018000000000000002,-0.027,-0.983,-29.66,39.75,-81.32000000000001,0.9966,-0.0011,-0.0029000000000000002,-0.08220000000000001,0.001,0.0,-0.008
2025-10-29 18:01:17.800,2.105,0.0,0.004,-0.001,-0.018000000000000002,-0.027,-0.984,-29.23,39.4,-81.4,0.9966,-0.0011,-0.0029000000000000002,-0.08220000000000001,0.001,0.0,-0.007
2025-10-29 18:01:17.817,2.11,0.001,0.003,-0.001,-0.019,-0.027,-0.983,-29.23,39.4,-81.4,0.9966,-0.0011,-0.0029000000000000002,-0.08220000000000001,0.001,0.0,-0.007
2025-10-29 18:01:17.817,2.115,0.001,0.0,0.001,-0.017,-0.028,-0.985,-29.23,39.4,-81.4,0.9966,-0.0011,-0.0029000000000000002,-0.08220000000000001,0.0,0.0,-0.006
2025-10-29 18:01:17.817,2.12,0.001,-0.002,0.0,-0.018000000000000002,-0.028,-0.985,-29.23,39.6,-81.7,0.9966,-0.0011,-0.0029000000000000002,-0.08220000000000001,0.001,0.0,-0.006
2025-10-29 18:01:17.826,2.125,0.0,0.001,0.0,-0.019,-0.027,-0.987,-29.23,39.6,-81.7,0.9966,-0.0011,-0.0029000000000000002,-0.08220000000000001,0.001,0.0,-0.004
2025-10-29 18:01:17.849,2.13,0.002,0.003,0.0,-0.018000000000000002,-0.027,-0.986,-29.2,39.92,-81.73,0.9966,-0.0011,-0.0029000000000000002,-0.08220000000000001,0.001,-0.001,-0.004
2025-10-29 18:01:17.849,2.135,0.001,0.003,0.001,-0.018000000000000002,-0.027,-0.988,-29.2,39.92,-81.73,0.9966,-0.0011,-0.0029000000000000002,-0.08220000000000001,0.0,0.0,-0.002
2025-10-29 18:01:17.849,2.14,0.0,0.002,0.001,-0.018000000000000002,-0.027,-0.987,-29.2,39.92,-81.73,0.9966,-0.0011,-0.0029000000000000002,-0.08220000000000001,0.001,0.0,-0.004
2025-10-29 18:01:17.850,2.145,-0.001,0.0,0.0,-0.019,-0.028,-0.988,-29.2,39.52,-81.64,0.9966,-0.0011,-0.0029000000000000002,-0.08220000000000001,0.001,0.0,-0.003
2025-10-29 18:01:17.876,2.15,0.0,-0.001,0.0,-0.017,-0.028,-0.988,-29.2,39.52,-81.64,0.9966,-0.0011,-0.0029000000000000002,-0.08220000000000001,0.0,0.0,-0.003
2025-10-29 18:01:17.902,2.155,0.0,0.004,0.0,-0.017,-0.028,-0.988,-27.91,39.4,-81.14,0.9966,-0.0011,-0.0029000000000000002,-0.08220000000000001,0.0,0.0,-0.002
2025-10-29 18:01:17.902,2.16,0.0,0.003,0.0,-0.018000000000000002,-0.028,-0.988,-27.91,39.4,-81.14,0.9966,-0.0011,-0.0029000000000000002,-0.08220000000000001,0.001,0.0,-0.003
2025-10-29 18:01:17.902,2.165,0.0,0.005,0.0,-0.017,-0.028,-0.989,-27.91,39.4,-81.14,0.9966,-0.0011,-0.0029000000000000002,-0.08220000000000001,0.0,0.0,-0.002
2025-10-29 18:01:17.903,2.17,0.0,0.001,0.001,-0.018000000000000002,-0.026000000000000002,-0.989,-28.96,39.92,-81.46000000000001,0.9966,-0.0011,-0.0029000000000000002,-0.08220000000000001,0.0,-0.001,-0.002
2025-10-29 18:01:17.930,2.175,0.001,-0.002,0.001,-0.018000000000000002,-0.027,-0.988,-28.96,39.92,-81.46000000000001,0.9966,-0.0011,-0.0029000000000000002,-0.08220000000000001,0.0,0.0,-0.002
2025-10-29 18:01:17.955,2.18,0.0,0.0,0.0,-0.019,-0.026000000000000002,-0.988,-28.96,39.92,-81.46000000000001,0.9966,-0.0011,-0.0029000000000000002,-0.08220000000000001,0.002,-0.001,-0.003
2025-10-29 18:01:17.956,2.185,-0.002,0.003,0.0,-0.019,-0.028,-0.987,-28.82,39.980000000000004,-82.13,0.9966,-0.0011,-0.0029000000000000002,-0.08220000000000001,0.002,0.0,-0.004
2025-10-29 18:01:17.956,2.19,0.0,0.002,0.001,-0.017,-0.028,-0.986,-28.82,39.980000000000004,-82.13,0.9966,-0.0011,-0.0029000000000000002,-0.08220000000000001,0.0,0.0,-0.005
2025-10-29 18:01:18.005,2.195,-0.001,0.002,0.0,-0.018000000000000002,-0.028,-0.986,-28.900000000000002,38.67,-81.81,0.9966,-0.0011,-0.0029000000000000002,-0.08220000000000001,0.0,0.0,-0.004
2025-10-29 18:01:18.024,2.2,0.0,0.001,0.0,-0.017,-0.026000000000000002,-0.984,-28.900000000000002,38.67,-81.81,0.9966,-0.0011,-0.0029000000000000002,-0.08220000000000001,0.0,-0.001,-0.007
2025-10-29 18:01:18.024,2.205,0.0,0.0,-0.001,-0.018000000000000002,-0.026000000000000002,-0.983,-28.900000000000002,38.67,-81.81,0.9966,-0.0011,-0.0029000000000000002,-0.08220000000000001,0.0,-0.001,-0.007
2025-10-29 18:01:18.024,2.21,-0.001,-0.002,0.0,-0.018000000000000002,-0.027,-0.984,-29.37,39.980000000000004,-80.85000000000001,0.9966,-0.0011,-0.0029000000000000002,-0.08220000000000001,0.0,0.0,-0.007
2025-10-29 18:01:18.025,2.215,0.0,0.0,0.0,-0.017,-0.027,-0.984,-29.37,39.980000000000004,-80.85000000000001,0.9966,-0.0011,-0.0029000000000000002,-0.08220000000000001,0.0,0.0,-0.006
2025-10-29 18:01:18.025,2.22,0.001,0.0,0.001,-0.018000000000000002,-0.027,-0.986,-29.400000000000002,39.78,-81.29,0.9966,-0.0011,-0.0029000000000000002,-0.08220000000000001,0.0,0.0,-0.005
2025-10-29 18:01:18.025,2.225,0.002,0.0,-0.001,-0.018000000000000002,-0.028,-0.986,-29.400000000000002,39.78,-81.29,0.9966,-0.0011,-0.0029000000000000002,-0.08220000000000001,0.0,0.0,-0.004
2025-10-29 18:01:18.026,2.23,0.001,0.0,0.0,-0.019,-0.027,-0.986,-29.400000000000002,39.78,-81.29,0.9966,-0.0011,-0.0029000000000000002,-0.08220000000000001,0.001,0.0,-0.005
2025-10-29 18:01:18.026,2.235,0.0,-0.002,-0.001,-0.018000000000000002,-0.027,-0.987,-29.52,40.22,-81.81,0.9966,-0.0011,-0.0029000000000000002,-0.08220000000000001,0.0,0.0,-0.003
2025-10-29 18:01:18.038,2.24,0.002,0.0,0.0,-0.019,-0.028,-0.988,-29.52,40.22,-81.81,0.9966,-0.0011,-0.0029000000000000002,-0.08220000000000001,0.001,0.0,-0.002
2025-10-29 18:01:18.038,2.245,0.001,0.004,0.0,-0.018000000000000002,-0.027,-0.987,-28.580000000000002,40.1,-81.9,0.9966,-0.0011,-0.0029000000000000002,-0.08220000000000001,0.0,0.0,-0.004
2025-10-29 18:01:18.054,2.25,0.0,0.001,0.0,-0.019,-0.028,-0.987,-28.580000000000002,40.1,-81.9,0.9966,-0.0011,-0.0029000000000000002,-0.08220000000000001,0.001,0.0,-0.003
2025-10-29 18:01:18.054,2.255,0.0,0.006,0.0,-0.019,-0.029,-0.99,-28.580000000000002,40.1,-81.9,0.9966,-0.0011,-0.0029000000000000002,-0.08220000000000001,0.001,0.0,-0.001
2025-10-29 18:01:18.054,2.26,0.0,0.003,0.0,-0.018000000000000002,-0.028,-0.99,-28.5,39.75,-81.55,0.9966,-0.0011,-0.0029000000000000002,-0.08220000000000001,0.001,0.0,-0.001
2025-10-29 18:01:18.055,2.265,0.001,-0.001,0.0,-0.017,-0.027,-0.99,-28.5,39.75,-81.55,0.9966,-0.0011,-0.0029000000000000002,-0.08220000000000001,0.0,0.0,-0.001
2025-10-29 18:01:18.055,2.27,-0.001,-0.001,0.0,-0.018000000000000002,-0.027,-0.989,-28.93,39.84,-81.32000000000001,0.9966,-0.0011,-0.0029000000000000002,-0.08220000000000001,0.0,0.0,-0.002
2025-10-29 18:01:18.055,2.275,-0.001,0.002,0.0,-0.018000000000000002,-0.028,-0.988,-28.93,39.84,-81.32000000000001,0.9966,-0.0011,-0.0029000000000000002,-0.08220000000000001,0.0,0.0,-0.003
2025-10-29 18:01:18.056,2.28,-0.002,0.002,0.001,-0.017,-0.028,-0.985,-28.93,39.84,-81.32000000000001,0.9966,-0.0011,-0.0029000000000000002,-0.08220000000000001,0.0,0.0,-0.006
2025-10-29 18:01:18.056,2.285,-0.003,0.007,0.0,-0.019,-0.027,-0.985,-28.580000000000002,39.92,-81.55,0.9966,-0.0011,-0.0029000000000000002,-0.08220000000000001,0.001,0.0,-0.006
2025-10-29 18:01:18.069,2.29,-0.002,0.0,0.001,-0.019,-0.027,-0.985,-28.580000000000002,39.92,-81.55,0.9966,-0.0011,-0.0029000000000000002,-0.08220000000000001,0.001,0.0,-0.006
2025-10-29 18:01:18.070,2.295,0.0,0.0,0.0,-0.019,-0.028,-0.986,-28.93,39.63,-82.05,0.9966,-0.0011,-0.0029000000000000002,-0.08220000000000001,0.001,0.0,-0.005
2025-10-29 18:01:18.070,2.3,0.0,0.0,0.0,-0.019,-0.028,-0.986,-28.93,39.63,-82.05,0.9966,-0.0011,-0.0029000000000000002,-0.08220000000000001,0.001,0.0,-0.005
2025-10-29 18:01:18.100,2.305,-0.001,0.003,0.0,-0.017,-0.027,-0.986,-28.93,39.63,-82.05,0.9966,-0.0011,-0.0029000000000000002,-0.08220000000000001,0.0,0.0,-0.004
2025-10-29 18:01:18.100,2.31,-0.002,0.004,0.0,-0.018000000000000002,-0.027,-0.988,-28.88,38.87,-81.08,0.9966,-0.0011,-0.0029000000000000002,-0.08220000000000001,0.001,0.0,-0.003
2025-10-29 18:01:18.100,2.315,0.0,0.0,0.002,-0.019,-0.028,-0.986,-28.88,38.87,-81.08,0.9966,-0.0011,-0.0029000000000000002,-0.08220000000000001,0.001,0.0,-0.004
2025-10-29 18:01:18.100,2.32,-0.003,-0.002,0.0,-0.019,-0.029,-0.986,-28.85,39.81,-81.61,0.9966,-0.0011,-0.0029000000000000002,-0.08220000000000001,0.001,0.001,-0.004
2025-10-29 18:01:18.101,2.325,-0.001,-0.005,0.0,-0.017,-0.027,-0.986,-28.85,39.81,-81.61,0.9966,-0.0011,-0.0029000000000000002,-0.08220000000000001,0.0,0.0,-0.004
2025-10-29 18:01:18.101,2.33,-0.001,0.0,0.0,-0.018000000000000002,-0.027,-0.987,-28.85,39.81,-81.61,0.9966,-0.0011,-0.0029000000000000002,-0.08220000000000001,0.001,0.0,-0.003
2025-10-29 18:01:18.101,2.335,-0.001,-0.002,0.0,-0.018000000000000002,-0.027,-0.985,-28.900000000000002,38.78,-81.02,0.9966,-0.0011,-0.0029000000000000002,-0.08220000000000001,0.0,0.0,-0.005
2025-10-29 18:01:18.102,2.34,-0.001,0.002,0.0,-0.018000000000000002,-0.027,-0.984,-28.900000000000002,38.78,-81.02,0.9966,-0.0011,-0.0029000000000000002,-0.08220000000000001,0.0,0.0,-0.006
2025-10-29 18:01:18.129,2.345,0.0,-0.002,0.0,-0.018000000000000002,-0.027,-0.985,-29.310000000000002,40.01,-81.67,0.9966,-0.0011,-0.0029000000000000002,-0.08220000000000001,0.0,0.0,-0.006
2025-10-29 18:01:18.129,2.35,0.001,0.0,0.0,-0.018000000000000002,-0.027,-0.983,-29.310000000000002,40.01,-81.67,0.9966,-0.0011,-0.0029000000000000002,-0.08220000000000001,0.0,0.0,-0.008
2025-10-29 18:01:18.129,2.355,-0.001,-0.001,0.0,-0.018000000000000002,-0.026000000000000002,-0.983,-29.310000000000002,40.01,-81.67,0.9966,-0.001,-0.0029000000000000002,-0.08220000000000001,0.001,0.0,-0.008
2025-10-29 18:01:18.142,2.36,0.001,0.0,0.0,-0.019,-0.027,-0.985,-28.61,39.75,-80.73,0.9966,-0.0011,-0.0029000000000000002,-0.08220000000000001,0.001,0.0,-0.005
2025-10-29 18:01:18.142,2.365,0.0,0.001,-0.001,-0.019,-0.027,-0.986,-28.61,39.75,-80.73,0.9966,-0.0011,-0.0029000000000000002,-0.08220000000000001,0.001,0.0,-0.004
2025-10-29 18:01:18.142,2.37,0.002,0.004,0.0,-0.017,-0.028,-0.988,-28.96,40.22,-80.91,0.9966,-0.0011,-0.0029000000000000002,-0.08220000000000001,0.0,0.0,-0.003
2025-10-29 18:01:18.143,2.375,0.002,0.001,0.0,-0.019,-0.028,-0.988,-28.96,40.22,-80.91,0.9966,-0.0011,-0.0029000000000000002,-0.08220000000000001,0.001,0.0,-0.003
2025-10-29 18:01:18.143,2.38,0.0,0.0,0.0,-0.018000000000000002,-0.027,-0.988,-28.96,40.22,-80.91,0.9966,-0.0011,-0.0029000000000000002,-0.08220000000000001,0.0,0.0,-0.002
2025-10-29 18:01:18.143,2.385,0.0,0.0,0.0,-0.019,-0.028,-0.991,-28.900000000000002,39.84,-80.82000000000001,0.9966,-0.0011,-0.0029000000000000002,-0.08220000000000001,0.001,0.0,0.0
2025-10-29 18:01:18.144,2.39,-0.001,-0.006,0.0,-0.018000000000000002,-0.028,-0.99,-28.900000000000002,39.84,-80.82000000000001,0.9966,-0.0011,-0.0028,-0.08220000000000001,0.0,0.0,-0.001
2025-10-29 18:01:18.144,2.395,0.0,-0.003,0.001,-0.018000000000000002,-0.029,-0.989,-28.900000000000002,39.84,-80.82000000000001,0.9966,-0.0011,-0.0028,-0.08220000000000001,0.0,0.0,-0.001
2025-10-29 18:01:18.153,2.4,0.0,0.004,0.0,-0.018000000000000002,-0.028,-0.988,-28.47,39.75,-81.26,0.9966,-0.0011,-0.0028,-0.08220000000000001,0.0,0.0,-0.002
2025-10-29 18:01:18.153,2.405,0.0,0.002,0.0,-0.018000000000000002,-0.029,-0.987,-28.47,39.75,-81.26,0.9966,-0.0011,-0.0029000000000000002,-0.08220000000000001,0.0,0.001,-0.004
2025-10-29 18:01:18.173,2.41,0.0,0.0,-0.003,-0.019,-0.028,-0.984,-28.85,39.78,-80.76,0.9966,-0.0011,-0.0029000000000000002,-0.08220000000000001,0.001,0.0,-0.007
2025-10-29 18:01:18.173,2.415,0.0,-0.001,-0.002,-0.019,-0.026000000000000002,-0.984,-28.85,39.78,-80.76,0.9966,-0.0011,-0.0029000000000000002,-0.0821,0.001,-0.001,-0.007
2025-10-29 18:01:18.173,2.42,0.001,0.0,0.0,-0.02,-0.027,-0.982,-28.85,39.78,-80.76,0.9966,-0.0011,-0.0028,-0.0821,0.002,0.0,-0.009000000000000001
2025-10-29 18:01:18.174,2.425,0.0,0.0,0.0,-0.019,-0.026000000000000002,-0.984,-29.02,39.81,-80.91,0.9966,-0.0011,-0.0028,-0.0821,0.001,-0.001,-0.007
2025-10-29 18:01:18.174,2.43,0.0,0.0,0.0,-0.018000000000000002,-0.028,-0.986,-29.02,39.81,-80.91,0.9966,-0.0011,-0.0028,-0.0821,0.0,0.0,-0.004
2025-10-29 18:01:18.174,2.435,0.0,0.005,0.0,-0.017,-0.026000000000000002,-0.987,-29.02,39.52,-81.2,0.9966,-0.0011,-0.0029000000000000002,-0.0821,0.0,-0.001,-0.004
2025-10-29 18:01:18.177,2.44,0.0,0.005,0.0,-0.018000000000000002,-0.027,-0.987,-29.02,39.52,-81.2,0.9966,-0.0011,-0.0029000000000000002,-0.0821,0.0,0.0,-0.004
2025-10-29 18:01:18.200,2.445,0.0,0.002,0.0,-0.019,-0.027,-0.989,-29.02,39.52,-81.2,0.9966,-0.0011,-0.0029000000000000002,-0.0821,0.001,0.0,-0.002
2025-10-29 18:01:18.200,2.45,0.0,-0.004,0.001,-0.019,-0.028,-0.991,-28.900000000000002,38.35,-81.58,0.9966,-0.0011,-0.0028,-0.08220000000000001,0.002,0.0,0.0
2025-10-29 18:01:18.201,2.455,-0.003,-0.002,0.0,-0.017,-0.028,-0.989,-28.900000000000002,38.35,-81.58,0.9966,-0.0011,-0.0028,-0.08220000000000001,0.0,0.0,-0.001
2025-10-29 18:01:18.201,2.46,0.0,0.002,0.0,-0.018000000000000002,-0.027,-0.99,-27.97,39.660000000000004,-81.49,0.9966,-0.0011,-0.0028,-0.0821,0.0,0.0,-0.001
2025-10-29 18:01:18.201,2.465,-0.001,0.004,-0.001,-0.018000000000000002,-0.027,-0.987,-27.97,39.660000000000004,-81.49,0.9966,-0.0011,-0.0028,-0.0821,0.0,0.0,-0.003
2025-10-29 18:01:18.202,2.47,0.0,0.001,0.0,-0.018000000000000002,-0.029,-0.988,-27.97,39.660000000000004,-81.49,0.9966,-0.0011,-0.0028,-0.0821,0.0,0.001,-0.003
2025-10-29 18:01:18.202,2.475,-0.001,-0.001,0.001,-0.019,-0.028,-0.985,-28.990000000000002,39.72,-81.26,0.9966,-0.0011,-0.0028,-0.0821,0.001,0.001,-0.005
2025-10-29 18:01:18.203,2.48,0.0,0.004,0.001,-0.019,-0.028,-0.984,-28.990000000000002,39.72,-81.26,0.9966,-0.0011,-0.0028,-0.08220000000000001,0.001,0.0,-0.007
2025-10-29 18:01:18.227,2.485,0.001,0.0,0.0,-0.019,-0.028,-0.982,-27.88,38.93,-81.43,0.9966,-0.0011,-0.0028,-0.08220000000000001,0.001,0.0,-0.009000000000000001
2025-10-29 18:01:18.227,2.49,0.0,0.0,0.0,-0.018000000000000002,-0.027,-0.982,-27.88,38.93,-81.43,0.9966,-0.0011,-0.0028,-0.08220000000000001,0.0,0.0,-0.009000000000000001
2025-10-29 18:01:18.227,2.495,0.001,0.004,0.0,-0.018000000000000002,-0.027,-0.981,-27.88,38.93,-81.43,0.9966,-0.0011,-0.0029000000000000002,-0.0821,0.001,0.0,-0.01
2025-10-29 18:01:18.228,2.5,0.001,0.002,0.0,-0.019,-0.027,-0.982,-28.44,39.52,-81.9,0.9966,-0.0011,-0.0029000000000000002,-0.08220000000000001,0.001,0.0,-0.009000000000000001
2025-10-29 18:01:18.253,2.505,0.004,-0.001,0.0,-0.019,-0.028,-0.983,-28.44,39.52,-81.9,0.9966,-0.0011,-0.0029000000000000002,-0.0821,0.001,0.0,-0.007
2025-10-29 18:01:18.253,2.51,0.002,-0.002,0.0,-0.018000000000000002,-0.027,-0.986,-28.990000000000002,39.81,-82.16,0.9966,-0.0011,-0.0029000000000000002,-0.0821,0.0,0.0,-0.005
2025-10-29 18:01:18.253,2.515,0.001,-0.001,0.001,-0.018000000000000002,-0.028,-0.988,-28.990000000000002,39.81,-82.16,0.9966,-0.0011,-0.0029000000000000002,-0.08220000000000001,0.0,0.0,-0.003
2025-10-29 18:01:18.254,2.52,0.002,0.004,0.001,-0.018000000000000002,-0.027,-0.99,-28.990000000000002,39.81,-82.16,0.9966,-0.0011,-0.0029000000000000002,-0.08220000000000001,0.0,0.0,0.0
2025-10-29 18:01:18.305,2.525,0.0,0.003,0.0,-0.019,-0.028,-0.991,-28.67,39.25,-81.7,0.9966,-0.0011,-0.0028,-0.08220000000000001,0.001,0.0,0.0
2025-10-29 18:01:18.332,2.53,0.0,0.0,-0.002,-0.018000000000000002,-0.027,-0.991,-28.67,39.25,-81.7,0.9966,-0.0011,-0.0028,-0.0821,0.001,0.0,0.0
2025-10-29 18:01:18.332,2.535,0.001,0.0,-0.001,-0.018000000000000002,-0.028,-0.99,-28.76,39.87,-81.64,0.9966,-0.0011,-0.0028,-0.0821,0.0,0.0,0.0
2025-10-29 18:01:18.332,2.54,0.0,0.0,0.0,-0.018000000000000002,-0.029,-0.989,-28.76,39.87,-81.64,0.9966,-0.0011,-0.0028,-0.0821,0.0,0.0,-0.002
2025-10-29 18:01:18.333,2.545,0.0,0.0,0.0,-0.017,-0.029,-0.987,-28.76,39.87,-81.64,0.9966,-0.0011,-0.0028,-0.0821,0.0,0.001,-0.003
2025-10-29 18:01:18.348,2.55,0.0,0.003,0.001,-0.018000000000000002,-0.028,-0.986,-28.41,39.84,-81.52,0.9966,-0.0011,-0.0028,-0.0821,0.0,0.0,-0.004
2025-10-29 18:01:18.359,2.555,-0.001,0.0,0.0,-0.019,-0.028,-0.987,-28.41,39.84,-81.52,0.9966,-0.0011,-0.0028,-0.0821,0.001,0.0,-0.004
2025-10-29 18:01:18.360,2.56,0.0,0.007,0.0,-0.018000000000000002,-0.028,-0.988,-28.82,40.1,-81.67,0.9966,-0.0011,-0.0028,-0.0821,0.0,0.0,-0.003
2025-10-29 18:01:18.360,2.565,0.0,-0.002,0.0,-0.019,-0.028,-0.987,-28.82,40.1,-81.67,0.9966,-0.0011,-0.0028,-0.0821,0.001,0.0,-0.003
2025-10-29 18:01:18.361,2.57,-0.001,0.0,0.0,-0.018000000000000002,-0.027,-0.987,-28.82,40.1,-81.67,0.9966,-0.0011,-0.0028,-0.0821,0.001,0.0,-0.003
2025-10-29 18:01:18.361,2.575,0.0,0.002,0.0,-0.018000000000000002,-0.027,-0.986,-28.64,38.38,-81.08,0.9966,-0.0011,-0.0028,-0.0821,0.0,0.0,-0.005
2025-10-29 18:01:18.361,2.58,-0.001,0.004,0.0,-0.019,-0.027,-0.984,-28.64,38.38,-81.08,0.9966,-0.0011,-0.0028,-0.0821,0.001,0.0,-0.006
2025-10-29 18:01:18.362,2.585,-0.003,0.004,-0.002,-0.018000000000000002,-0.027,-0.984,-29.28,39.84,-81.55,0.9966,-0.0011,-0.0028,-0.0821,0.0,0.0,-0.006
2025-10-29 18:01:18.362,2.59,-0.002,0.002,0.0,-0.018000000000000002,-0.028,-0.983,-29.28,39.84,-81.55,0.9966,-0.0011,-0.0028,-0.0821,0.0,0.0,-0.008
2025-10-29 18:01:18.370,2.595,0.0,-0.006,0.0,-0.018000000000000002,-0.028,-0.983,-29.28,39.84,-81.55,0.9966,-0.0011,-0.0028,-0.0821,0.0,0.0,-0.008
2025-10-29 18:01:18.384,2.6,0.0,0.002,0.001,-0.018000000000000002,-0.027,-0.983,-28.64,39.54,-82.25,0.9966,-0.0011,-0.0028,-0.0821,0.0,0.0,-0.008
2025-10-29 18:01:18.384,2.605,0.001,0.002,0.0,-0.019,-0.026000000000000002,-0.983,-28.64,39.54,-82.25,0.9966,-0.0011,-0.0028,-0.0821,0.001,-0.001,-0.007
2025-10-29 18:01:18.384,2.61,0.002,0.005,0.001,-0.019,-0.027,-0.984,-28.64,39.54,-82.25,0.9966,-0.0011,-0.0029000000000000002,-0.0821,0.001,0.0,-0.006
2025-10-29 18:01:18.385,2.615,0.001,0.002,-0.002,-0.017,-0.027,-0.985,-28.61,39.4,-82.02,0.9966,-0.0011,-0.0029000000000000002,-0.0821,0.0,0.0,-0.006
2025-10-29 18:01:18.385,2.62,0.002,0.004,0.001,-0.019,-0.028,-0.988,-28.61,39.4,-82.02,0.9966,-0.0011,-0.0029000000000000002,-0.0821,0.001,0.0,-0.002
2025-10-29 18:01:18.385,2.625,0.001,-0.002,-0.001,-0.017,-0.028,-0.987,-28.82,39.52,-81.93,0.9966,-0.0011,-0.0029000000000000002,-0.0821,0.0,0.0,-0.003
2025-10-29 18:01:18.386,2.63,0.001,0.002,0.001,-0.018000000000000002,-0.027,-0.986,-28.82,39.52,-81.93,0.9966,-0.0011,-0.0029000000000000002,-0.0821,0.0,0.0,-0.005
2025-10-29 18:01:18.386,2.635,0.002,0.0,0.0,-0.019,-0.028,-0.987,-28.82,39.52,-81.93,0.9966,-0.0011,-0.0029000000000000002,-0.0821,0.002,0.0,-0.004
2025-10-29 18:01:18.394,2.64,0.001,0.002,0.0,-0.018000000000000002,-0.028,-0.989,-28.52,39.52,-81.2,0.9966,-0.0011,-0.0029000000000000002,-0.0821,0.001,0.0,-0.002
2025-10-29 18:01:18.394,2.645,0.001,0.004,0.0,-0.018000000000000002,-0.028,-0.99,-28.52,39.52,-81.2,0.9966,-0.0011,-0.0029000000000000002,-0.0821,0.0,0.0,-0.001
2025-10-29 18:01:18.394,2.65,0.0,0.0,0.0,-0.018000000000000002,-0.027,-0.988,-27.44,39.160000000000004,-80.91,0.9966,-0.0011,-0.0029000000000000002,-0.0821,0.0,0.0,-0.002
2025-10-29 18:01:18.427,2.655,-0.001,-0.004,-0.002,-0.018000000000000002,-0.027,-0.989,-27.44,39.160000000000004,-80.91,0.9966,-0.0011,-0.0029000000000000002,-0.0821,0.001,0.0,-0.001
2025-10-29 18:01:18.428,2.66,-0.002,-0.001,0.0,-0.018000000000000002,-0.027,-0.99,-27.44,39.160000000000004,-80.91,0.9966,-0.0011,-0.0028,-0.0821,0.0,0.0,-0.001
2025-10-29 18:01:18.428,2.665,0.0,0.0,0.0,-0.018000000000000002,-0.028,-0.989,-28.61,39.63,-81.49,0.9966,-0.0011,-0.0028,-0.0821,0.0,0.0,-0.002
2025-10-29 18:01:18.428,2.67,0.0,0.0,0.0,-0.019,-0.027,-0.988,-28.61,39.63,-81.49,0.9966,-0.0011,-0.0028,-0.0821,0.002,0.0,-0.003
2025-10-29 18:01:18.429,2.675,-0.001,0.0,0.0,-0.018000000000000002,-0.028,-0.988,-29.17,39.9,-81.08,0.9966,-0.0011,-0.0028,-0.0821,0.0,0.0,-0.003
2025-10-29 18:01:18.429,2.68,-0.002,-0.002,0.0,-0.019,-0.027,-0.986,-29.17,39.9,-81.08,0.9966,-0.0011,-0.0028,-0.0821,0.001,0.0,-0.005
2025-10-29 18:01:18.429,2.685,0.0,-0.005,0.0,-0.017,-0.029,-0.988,-29.17,39.9,-81.08,0.9966,-0.0011,-0.0028,-0.0821,0.0,0.0,-0.003
2025-10-29 18:01:18.430,2.69,0.0,-0.002,0.0,-0.018000000000000002,-0.027,-0.988,-28.73,40.04,-81.61,0.9966,-0.0011,-0.0028,-0.0821,0.0,0.0,-0.003
2025-10-29 18:01:18.441,2.695,-0.001,-0.001,0.002,-0.018000000000000002,-0.029,-0.987,-28.73,40.04,-81.61,0.9966,-0.0011,-0.0028,-0.0821,0.0,0.001,-0.004
2025-10-29 18:01:18.441,2.7,0.0,0.002,0.0,-0.019,-0.027,-0.987,-28.73,39.72,-81.23,0.9966,-0.0011,-0.0028,-0.0821,0.001,-0.001,-0.004
2025-10-29 18:01:18.441,2.705,0.0,0.002,0.0,-0.019,-0.027,-0.986,-28.73,39.72,-81.23,0.9966,-0.0011,-0.0028,-0.0821,0.001,0.0,-0.004
2025-10-29 18:01:18.442,2.71,0.0,0.002,0.0,-0.018000000000000002,-0.029,-0.986,-28.73,39.72,-81.23,0.9966,-0.0011,-0.0028,-0.0821,0.0,0.001,-0.004
2025-10-29 18:01:18.442,2.715,0.0,0.001,0.001,-0.019,-0.027,-0.988,-28.5,39.92,-82.13,0.9966,-0.0011,-0.0028,-0.0821,0.001,0.0,-0.003
2025-10-29 18:01:18.442,2.72,0.0,-0.002,0.0,-0.019,-0.028,-0.986,-28.5,39.92,-82.13,0.9966,-0.0011,-0.0028,-0.0821,0.001,0.0,-0.005
2025-10-29 18:01:18.461,2.725,-0.001,0.002,0.001,-0.019,-0.028,-0.987,-27.71,39.54,-81.64,0.9966,-0.0011,-0.0028,-0.0821,0.001,0.0,-0.004
2025-10-29 18:01:18.461,2.73,-0.001,-0.003,-0.001,-0.02,-0.027,-0.987,-27.71,39.54,-81.64,0.9966,-0.0011,-0.0028,-0.0821,0.002,0.0,-0.004
2025-10-29 18:01:18.461,2.735,-0.001,0.0,0.0,-0.017,-0.027,-0.986,-27.71,39.54,-81.64,0.9966,-0.0011,-0.0028,-0.0821,0.0,0.0,-0.005
2025-10-29 18:01:18.462,2.74,0.0,0.002,-0.001,-0.019,-0.027,-0.985,-28.38,38.0,-81.37,0.9966,-0.0011,-0.0028,-0.0821,0.001,0.0,-0.005
2025-10-29 18:01:18.475,2.745,0.0,-0.005,0.0,-0.019,-0.027,-0.985,-28.38,38.0,-81.37,0.9966,-0.0011,-0.0028,-0.0821,0.001,0.0,-0.006
2025-10-29 18:01:18.485,2.75,0.0,0.0,0.0,-0.019,-0.028,-0.985,-29.080000000000002,39.28,-81.02,0.9966,-0.0011,-0.0028,-0.0821,0.001,0.0,-0.006
2025-10-29 18:01:18.486,2.755,0.0,-0.006,-0.001,-0.019,-0.028,-0.985,-29.080000000000002,39.28,-81.02,0.9966,-0.0011,-0.0028,-0.0821,0.001,0.0,-0.006
2025-10-29 18:01:18.486,2.76,0.0,0.005,0.001,-0.018000000000000002,-0.026000000000000002,-0.984,-29.080000000000002,39.28,-81.02,0.9966,-0.0011,-0.0028,-0.0821,0.0,-0.001,-0.007
2025-10-29 18:01:18.497,2.765,0.001,0.002,0.0,-0.018000000000000002,-0.026000000000000002,-0.985,-28.44,39.9,-81.4,0.9966,-0.0011,-0.0028,-0.0821,0.0,-0.001,-0.005
2025-10-29 18:01:18.521,2.77,0.0,0.002,0.001,-0.018000000000000002,-0.027,-0.985,-28.44,39.9,-81.4,0.9966,-0.0011,-0.0028,-0.0821,0.001,0.0,-0.005
2025-10-29 18:01:18.521,2.775,0.0,0.0,0.001,-0.017,-0.027,-0.986,-28.900000000000002,39.78,-81.64,0.9966,-0.0011,-0.0028,-0.0821,0.0,0.0,-0.004
2025-10-29 18:01:18.521,2.78,0.0,0.001,0.0,-0.018000000000000002,-0.027,-0.987,-28.900000000000002,39.78,-81.64,0.9966,-0.0011,-0.0028,-0.0821,0.0,0.0,-0.003
2025-10-29 18:01:18.522,2.785,0.001,-0.002,0.0,-0.018000000000000002,-0.027,-0.987,-28.900000000000002,39.78,-81.64,0.9966,-0.0011,-0.0028,-0.0821,0.0,0.0,-0.003
2025-10-29 18:01:18.522,2.79,0.0,0.004,0.001,-0.019,-0.028,-0.988,-28.2,39.72,-81.2,0.9966,-0.0011,-0.0028,-0.0821,0.001,0.0,-0.002
2025-10-29 18:01:18.522,2.795,0.0,0.003,0.0,-0.018000000000000002,-0.028,-0.989,-28.2,39.72,-81.2,0.9966,-0.0011,-0.0028,-0.0821,0.001,0.0,-0.002
2025-10-29 18:01:18.523,2.8,-0.001,0.001,0.0,-0.018000000000000002,-0.029,-0.988,-28.64,39.49,-80.91,0.9966,-0.0011,-0.0028,-0.0821,0.0,0.001,-0.002
2025-10-29 18:01:18.523,2.805,-0.001,-0.001,-0.001,-0.018000000000000002,-0.029,-0.989,-28.64,39.49,-80.91,0.9966,-0.0011,-0.0028,-0.0821,0.0,0.001,-0.002
2025-10-29 18:01:18.527,2.81,-0.003,-0.002,0.0,-0.018000000000000002,-0.029,-0.986,-28.64,39.49,-80.91,0.9966,-0.0011,-0.0028,-0.0821,0.0,0.001,-0.004
2025-10-29 18:01:18.543,2.815,-0.001,0.001,0.0,-0.018000000000000002,-0.029,-0.988,-28.61,38.78,-81.32000000000001,0.9966,-0.0011,-0.0028,-0.0821,0.0,0.001,-0.003
2025-10-29 18:01:18.544,2.82,-0.003,0.0,0.0,-0.019,-0.028,-0.986,-28.61,38.78,-81.32000000000001,0.9966,-0.0011,-0.0028,-0.0821,0.001,0.0,-0.004
2025-10-29 18:01:18.544,2.825,-0.003,0.002,0.0,-0.019,-0.027,-0.984,-28.61,38.78,-81.32000000000001,0.9966,-0.0011,-0.0028,-0.0821,0.001,0.0,-0.007
2025-10-29 18:01:18.544,2.83,0.0,0.003,0.0,-0.018000000000000002,-0.028,-0.984,-28.38,39.92,-81.14,0.9966,-0.0011,-0.0028,-0.0821,0.0,0.0,-0.006
2025-10-29 18:01:18.545,2.835,0.0,0.0,0.0,-0.018000000000000002,-0.026000000000000002,-0.984,-28.38,39.92,-81.14,0.9966,-0.0011,-0.0028,-0.0821,0.0,-0.001,-0.007
2025-10-29 18:01:18.545,2.84,0.0,0.0,0.0,-0.017,-0.027,-0.986,-28.88,39.14,-81.46000000000001,0.9966,-0.0011,-0.0028,-0.0821,0.0,0.0,-0.004
2025-10-29 18:01:18.545,2.845,0.0,-0.002,0.001,-0.018000000000000002,-0.027,-0.985,-28.88,39.14,-81.46000000000001,0.9966,-0.0011,-0.0028,-0.0821,0.0,0.0,-0.006
2025-10-29 18:01:18.549,2.85,0.0,0.003,0.001,-0.02,-0.028,-0.985,-28.88,39.14,-81.46000000000001,0.9966,-0.0011,-0.0028,-0.0821,0.002,0.001,-0.006
2025-10-29 18:01:18.565,2.855,0.001,0.0,0.0,-0.018000000000000002,-0.028,-0.986,-27.82,39.25,-81.35000000000001,0.9966,-0.0011,-0.0028,-0.0821,0.0,0.0,-0.005
2025-10-29 18:01:18.565,2.86,0.001,-0.002,0.0,-0.018000000000000002,-0.027,-0.985,-27.82,39.25,-81.35000000000001,0.9966,-0.0011,-0.0028,-0.0821,0.0,0.0,-0.006
2025-10-29 18:01:18.566,2.865,0.0,0.0,-0.001,-0.018000000000000002,-0.028,-0.985,-28.52,39.63,-80.79,0.9966,-0.0011,-0.0028,-0.0821,0.0,0.0,-0.006
2025-10-29 18:01:18.572,2.87,0.001,0.001,0.0,-0.018000000000000002,-0.026000000000000002,-0.985,-28.52,39.63,-80.79,0.9966,-0.0011,-0.0028,-0.0821,0.0,-0.001,-0.006
2025-10-29 18:01:18.605,2.875,0.002,0.004,0.0,-0.019,-0.027,-0.986,-28.52,39.63,-80.79,0.9966,-0.0011,-0.0028,-0.0821,0.001,0.0,-0.004
2025-10-29 18:01:18.606,2.88,0.0,0.002,0.0,-0.019,-0.029,-0.988,-28.23,40.01,-81.29,0.9966,-0.0011,-0.0028,-0.0821,0.001,0.001,-0.003
2025-10-29 18:01:18.606,2.885,0.0,0.0,0.001,-0.019,-0.028,-0.988,-28.23,40.01,-81.29,0.9966,-0.0011,-0.0028,-0.0821,0.001,0.0,-0.003
2025-10-29 18:01:18.607,2.89,0.0,0.002,0.0,-0.019,-0.029,-0.986,-28.35,40.07,-81.35000000000001,0.9966,-0.0011,-0.0028,-0.0821,0.001,0.001,-0.004
2025-10-29 18:01:18.607,2.895,0.001,0.002,0.0,-0.019,-0.028,-0.988,-28.35,40.07,-81.35000000000001,0.9966,-0.0011,-0.0028,-0.0821,0.001,0.0,-0.003
2025-10-29 18:01:18.643,2.9,0.001,-0.002,-0.001,-0.019,-0.027,-0.987,-28.35,40.07,-81.35000000000001,0.9966,-0.0011,-0.0028,-0.0821,0.001,0.0,-0.003
2025-10-29 18:01:18.673,2.905,0.0,0.0,-0.002,-0.019,-0.028,-0.986,-28.03,39.92,-80.94,0.9966,-0.0011,-0.0028,-0.0821,0.001,0.0,-0.005
2025-10-29 18:01:18.673,2.91,0.001,0.0,0.0,-0.018000000000000002,-0.029,-0.988,-28.03,39.92,-80.94,0.9966,-0.0011,-0.0028,-0.0821,0.0,0.001,-0.002
2025-10-29 18:01:18.674,2.915,0.001,0.003,0.0,-0.017,-0.03,-0.988,-28.2,40.04,-81.2,0.9966,-0.0011,-0.0028,-0.0821,0.0,0.002,-0.003
2025-10-29 18:01:18.674,2.92,0.0,0.004,0.0,-0.018000000000000002,-0.027,-0.988,-28.2,40.04,-81.2,0.9966,-0.0011,-0.0028,-0.0821,0.001,0.0,-0.003
2025-10-29 18:01:18.701,2.925,0.0,0.0,0.0,-0.019,-0.028,-0.986,-28.2,40.04,-81.2,0.9966,-0.0011,-0.0028,-0.0821,0.001,0.0,-0.005
2025-10-29 18:01:18.727,2.93,0.0,0.0,0.0,-0.019,-0.027,-0.984,-28.52,39.08,-81.46000000000001,0.9966,-0.0011,-0.0028,-0.0821,0.001,0.0,-0.006
2025-10-29 18:01:18.727,2.935,0.0,0.0,0.0,-0.018000000000000002,-0.028,-0.985,-28.52,39.08,-81.46000000000001,0.9966,-0.0011,-0.0028,-0.0821,0.0,0.0,-0.005
2025-10-29 18:01:18.727,2.94,0.0,0.001,0.0,-0.017,-0.027,-0.986,-28.580000000000002,39.78,-81.14,0.9966,-0.0011,-0.0028,-0.0821,0.0,0.0,-0.005
2025-10-29 18:01:18.740,2.945,0.001,0.004,0.001,-0.019,-0.026000000000000002,-0.986,-28.580000000000002,39.78,-81.14,0.9966,-0.0011,-0.0028,-0.0821,0.001,-0.001,-0.005
2025-10-29 18:01:18.746,2.95,0.0,0.001,0.0,-0.018000000000000002,-0.028,-0.988,-28.580000000000002,39.78,-81.14,0.9966,-0.0011,-0.0028,-0.0821,0.0,0.0,-0.003
2025-10-29 18:01:18.746,2.955,0.0,0.0,0.0,-0.018000000000000002,-0.028,-0.985,-28.5,39.63,-80.56,0.9966,-0.0011,-0.0028,-0.0821,0.001,0.0,-0.006
2025-10-29 18:01:18.747,2.96,0.002,-0.001,0.0,-0.018000000000000002,-0.027,-0.986,-28.5,39.63,-80.56,0.9966,-0.0011,-0.0028,-0.0821,0.0,0.0,-0.004
2025-10-29 18:01:18.747,2.965,0.0,0.004,0.0,-0.019,-0.028,-0.986,-27.53,38.17,-80.88,0.9966,-0.0011,-0.0028,-0.0821,0.001,0.0,-0.005
2025-10-29 18:01:18.748,2.97,0.0,0.004,0.0,-0.019,-0.027,-0.987,-27.53,38.17,-80.88,0.9966,-0.0011,-0.0028,-0.0821,0.001,0.0,-0.004
2025-10-29 18:01:18.748,2.975,0.0,0.0,-0.001,-0.018000000000000002,-0.028,-0.988,-27.53,38.17,-80.88,0.9966,-0.0011,-0.0028,-0.0821,0.0,0.0,-0.003
2025-10-29 18:01:18.749,2.98,0.0,0.0,0.0,-0.017,-0.029,-0.988,-28.26,38.230000000000004,-80.18,0.9966,-0.0011,-0.0028,-0.0821,0.0,0.0,-0.003
2025-10-29 18:01:18.749,2.985,0.0,-0.003,0.0,-0.017,-0.028,-0.987,-28.26,38.230000000000004,-80.18,0.9966,-0.0011,-0.0028,-0.0821,0.0,0.0,-0.003
2025-10-29 18:01:18.766,2.99,-0.001,0.0,0.0,-0.018000000000000002,-0.027,-0.986,-28.93,39.78,-80.76,0.9966,-0.0011,-0.0028,-0.0821,0.001,0.0,-0.004
2025-10-29 18:01:18.767,2.995,0.0,0.001,0.0,-0.019,-0.029,-0.986,-28.93,39.78,-80.76,0.9966,-0.0011,-0.0028,-0.0821,0.001,0.0,-0.005
2025-10-29 18:01:18.767,3.0,0.0,0.005,-0.001,-0.019,-0.028,-0.986,-28.93,39.78,-80.76,0.9966,-0.0011,-0.0028,-0.0821,0.001,0.0,-0.005
2025-10-29 18:01:18.767,3.005,0.001,0.0,0.0,-0.018000000000000002,-0.028,-0.986,-28.29,39.43,-80.53,0.9966,-0.0011,-0.0028,-0.0821,0.0,0.0,-0.004
2025-10-29 18:01:18.768,3.01,0.0,0.0,0.0,-0.017,-0.028,-0.988,-28.29,39.43,-80.53,0.9966,-0.0011,-0.0028,-0.0821,0.0,0.0,-0.003
2025-10-29 18:01:18.768,3.015,-0.001,0.001,-0.001,-0.019,-0.027,-0.988,-28.35,40.25,-80.97,0.9966,-0.0011,-0.0028,-0.0821,0.002,0.0,-0.002
2025-10-29 18:01:18.775,3.02,0.0,0.0,0.0,-0.019,-0.027,-0.99,-28.35,40.25,-80.97,0.9966,-0.0011,-0.0028,-0.0821,0.001,0.0,-0.001
2025-10-29 18:01:18.775,3.025,-0.001,0.0,-0.002,-0.019,-0.029,-0.987,-28.35,40.25,-80.97,0.9966,-0.0011,-0.0028,-0.0821,0.001,0.0,-0.003
2025-10-29 18:01:18.776,3.03,0.0,0.003,0.0,-0.018000000000000002,-0.027,-0.986,-28.5,39.92,-81.2,0.9966,-0.0011,-0.0028,-0.0821,0.0,0.0,-0.005
2025-10-29 18:01:18.776,3.035,0.0,0.0,-0.002,-0.018000000000000002,-0.028,-0.985,-28.5,39.92,-81.2,0.9966,-0.0011,-0.0028,-0.0821,0.0,0.0,-0.006
2025-10-29 18:01:18.776,3.04,0.0,0.0,0.0,-0.017,-0.028,-0.986,-28.5,39.92,-81.2,0.9966,-0.0011,-0.0028,-0.0821,0.0,0.0,-0.005
2025-10-29 18:01:18.777,3.045,0.0,-0.003,0.0,-0.018000000000000002,-0.028,-0.986,-28.35,39.81,-81.32000000000001,0.9966,-0.0011,-0.0028,-0.0821,0.001,0.0,-0.005
2025-10-29 18:01:18.777,3.05,0.0,0.002,0.0,-0.018000000000000002,-0.027,-0.984,-28.35,39.81,-81.32000000000001,0.9966,-0.0011,-0.0028,-0.0821,0.001,0.0,-0.006
2025-10-29 18:01:18.777,3.055,-0.001,0.005,0.0,-0.018000000000000002,-0.028,-0.983,-28.67,39.84,-81.08,0.9966,-0.0011,-0.0028,-0.0821,0.0,0.0,-0.008
2025-10-29 18:01:18.781,3.06,0.0,0.005,-0.001,-0.019,-0.027,-0.984,-28.67,39.84,-81.08,0.9966,-0.0011,-0.0028,-0.0821,0.001,0.0,-0.007
2025-10-29 18:01:18.781,3.065,0.001,0.002,0.0,-0.018000000000000002,-0.027,-0.986,-28.67,39.84,-81.08,0.9966,-0.0011,-0.0028,-0.0821,0.001,0.0,-0.005
2025-10-29 18:01:18.782,3.07,0.002,-0.002,0.0,-0.02,-0.027,-0.985,-28.7,39.69,-80.59,0.9966,-0.0011,-0.0028,-0.0821,0.002,0.0,-0.005
2025-10-29 18:01:18.793,3.075,0.001,-0.003,0.0,-0.018000000000000002,-0.026000000000000002,-0.985,-28.7,39.69,-80.59,0.9966,-0.0011,-0.0028,-0.0821,0.0,-0.001,-0.006
2025-10-29 18:01:18.793,3.08,0.001,0.001,0.0,-0.02,-0.026000000000000002,-0.984,-28.35,38.84,-80.79,0.9966,-0.0011,-0.0028,-0.0821,0.002,-0.001,-0.006
2025-10-29 18:01:18.794,3.085,0.0,0.005,0.0,-0.019,-0.028,-0.987,-28.35,38.84,-80.79,0.9966,-0.0011,-0.0028,-0.0821,0.001,0.0,-0.004
2025-10-29 18:01:18.794,3.09,0.0,0.004,0.0,-0.018000000000000002,-0.027,-0.988,-28.35,38.84,-80.79,0.9966,-0.0011,-0.0028,-0.0821,0.0,0.0,-0.003
2025-10-29 18:01:18.794,3.095,0.0,0.0,0.0,-0.019,-0.027,-0.989,-28.64,39.49,-81.37,0.9966,-0.0011,-0.0028,-0.0821,0.001,0.0,-0.002
2025-10-29 18:01:18.795,3.1,0.0,0.0,0.0,-0.018000000000000002,-0.028,-0.988,-28.64,39.49,-81.37,0.9966,-0.0011,-0.0028,-0.0821,0.0,0.0,-0.003
2025-10-29 18:01:18.795,3.105,0.001,0.0,0.0,-0.018000000000000002,-0.028,-0.985,-28.55,38.4,-81.26,0.9966,-0.0012000000000000001,-0.0028,-0.0821,0.0,0.0,-0.005
2025-10-29 18:01:18.795,3.11,0.002,0.003,0.001,-0.017,-0.027,-0.985,-28.55,38.4,-81.26,0.9966,-0.0012000000000000001,-0.0028,-0.0821,0.0,0.0,-0.006
2025-10-29 18:01:18.797,3.115,0.001,0.0,0.0,-0.018000000000000002,-0.027,-0.986,-28.55,38.4,-81.26,0.9966,-0.0012000000000000001,-0.0028,-0.0821,0.0,0.0,-0.004
2025-10-29 18:01:18.802,3.12,0.001,0.003,0.0,-0.019,-0.029,-0.988,-27.94,39.31,-81.14,0.9966,-0.0012000000000000001,-0.0028,-0.0821,0.001,0.0,-0.002
2025-10-29 18:01:18.802,3.125,0.0,0.0,-0.001,-0.019,-0.028,-0.988,-27.94,39.31,-81.14,0.9966,-0.0012000000000000001,-0.0028,-0.0821,0.001,0.0,-0.003
2025-10-29 18:01:18.818,3.13,0.0,0.007,0.0,-0.018000000000000002,-0.028,-0.987,-28.88,39.72,-81.02,0.9966,-0.0012000000000000001,-0.0028,-0.0821,0.0,0.0,-0.003
2025-10-29 18:01:18.824,3.135,-0.001,0.002,0.0,-0.018000000000000002,-0.03,-0.988,-28.88,39.72,-81.02,0.9966,-0.0012000000000000001,-0.0028,-0.0821,0.001,0.002,-0.003
2025-10-29 18:01:18.824,3.14,-0.001,0.001,-0.001,-0.019,-0.028,-0.986,-28.88,39.72,-81.02,0.9966,-0.0012000000000000001,-0.0028,-0.0821,0.001,0.0,-0.004
2025-10-29 18:01:18.825,3.145,-0.001,0.0,0.0,-0.018000000000000002,-0.028,-0.987,-27.650000000000002,39.4,-80.94,0.9966,-0.0012000000000000001,-0.0028,-0.0821,0.0,0.0,-0.004
2025-10-29 18:01:18.825,3.15,0.0,0.0,-0.002,-0.019,-0.029,-0.985,-27.650000000000002,39.4,-80.94,0.9966,-0.0012000000000000001,-0.0028,-0.0821,0.001,0.001,-0.006
2025-10-29 18:01:18.838,3.155,0.001,0.001,-0.002,-0.018000000000000002,-0.026000000000000002,-0.988,-28.17,39.52,-81.37,0.9966,-0.0012000000000000001,-0.0028,-0.0821,0.0,-0.001,-0.003
2025-10-29 18:01:18.851,3.16,0.001,0.003,0.001,-0.018000000000000002,-0.028,-0.987,-28.17,39.52,-81.37,0.9966,-0.0012000000000000001,-0.0028,-0.0821,0.0,0.0,-0.004
2025-10-29 18:01:18.851,3.165,0.0,0.002,0.0,-0.018000000000000002,-0.027,-0.988,-28.17,39.52,-81.37,0.9966,-0.0012000000000000001,-0.0029000000000000002,-0.0821,0.0,0.0,-0.003
2025-10-29 18:01:18.862,3.17,-0.001,-0.001,0.0,-0.017,-0.027,-0.987,-28.41,39.9,-81.02,0.9966,-0.0012000000000000001,-0.0028,-0.0821,0.0,-0.001,-0.004
2025-10-29 18:01:18.872,3.175,0.0,0.002,0.0,-0.019,-0.027,-0.985,-28.41,39.9,-81.02,0.9966,-0.0011,-0.0029000000000000002,-0.0821,0.001,0.0,-0.005
2025-10-29 18:01:18.873,3.18,0.0,0.003,0.001,-0.019,-0.028,-0.984,-28.41,38.81,-81.35000000000001,0.9966,-0.0011,-0.0029000000000000002,-0.0821,0.001,0.0,-0.006
2025-10-29 18:01:18.873,3.185,0.0,0.0,0.0,-0.017,-0.028,-0.984,-28.41,38.81,-81.35000000000001,0.9966,-0.0011,-0.0029000000000000002,-0.0821,0.0,0.0,-0.006
2025-10-29 18:01:18.880,3.19,0.001,0.0,0.0,-0.018000000000000002,-0.027,-0.986,-28.41,38.81,-81.35000000000001,0.9966,-0.0011,-0.0029000000000000002,-0.0821,0.001,0.0,-0.005
2025-10-29 18:01:18.898,3.195,0.0,0.001,0.0,-0.018000000000000002,-0.027,-0.989,-28.14,39.25,-81.64,0.9966,-0.0011,-0.0029000000000000002,-0.0821,0.0,0.0,-0.002
2025-10-29 18:01:18.898,3.2,0.0,0.002,0.0,-0.018000000000000002,-0.028,-0.988,-28.14,39.25,-81.64,0.9966,-0.0011,-0.0029000000000000002,-0.0821,0.001,0.0,-0.002
2025-10-29 18:01:18.898,3.205,0.0,-0.002,0.0,-0.018000000000000002,-0.028,-0.987,-28.5,39.63,-82.22,0.9966,-0.0011,-0.0029000000000000002,-0.0821,0.0,0.0,-0.003
2025-10-29 18:01:18.918,3.21,0.0,0.002,0.0,-0.018000000000000002,-0.028,-0.986,-28.5,39.63,-82.22,0.9966,-0.0011,-0.0029000000000000002,-0.0821,0.0,0.0,-0.005
2025-10-29 18:01:18.927,3.215,0.0,0.002,0.0,-0.019,-0.028,-0.985,-28.5,39.63,-82.22,0.9966,-0.0011,-0.0029000000000000002,-0.0821,0.001,0.0,-0.006
2025-10-29 18:01:18.927,3.22,0.0,-0.003,0.001,-0.018000000000000002,-0.027,-0.986,-28.35,40.1,-81.61,0.9966,-0.0011,-0.0028,-0.0821,0.001,0.0,-0.004
2025-10-29 18:01:18.927,3.225,0.0,0.003,0.0,-0.018000000000000002,-0.028,-0.987,-28.35,40.1,-81.61,0.9966,-0.0011,-0.0029000000000000002,-0.0821,0.0,0.0,-0.003
2025-10-29 18:01:18.928,3.23,0.0,0.0,-0.002,-0.018000000000000002,-0.028,-0.988,-28.64,39.78,-81.43,0.9966,-0.0011,-0.0029000000000000002,-0.0821,0.0,0.0,-0.003
2025-10-29 18:01:18.938,3.235,0.0,0.0,-0.001,-0.017,-0.027,-0.987,-28.64,39.78,-81.43,0.9966,-0.0012000000000000001,-0.0029000000000000002,-0.0821,0.0,0.0,-0.003
2025-10-29 18:01:18.953,3.24,0.0,0.0,0.0,-0.018000000000000002,-0.027,-0.986,-28.64,39.78,-81.43,0.9966,-0.0011,-0.0029000000000000002,-0.0821,0.001,0.0,-0.005
2025-10-29 18:01:18.953,3.245,0.0,0.001,0.001,-0.018000000000000002,-0.026000000000000002,-0.986,-28.26,39.92,-80.85000000000001,0.9966,-0.0011,-0.0029000000000000002,-0.0821,0.0,-0.001,-0.005
2025-10-29 18:01:18.953,3.25,0.0,-0.001,0.0,-0.018000000000000002,-0.027,-0.986,-28.26,39.92,-80.85000000000001,0.9966,-0.0011,-0.0028,-0.0821,0.0,0.0,-0.005
2025-10-29 18:01:19.006,3.255,0.001,0.0,0.0,-0.019,-0.028,-0.985,-28.26,39.92,-80.85000000000001,0.9966,-0.0011,-0.0028,-0.0821,0.001,0.0,-0.005
2025-10-29 18:01:19.033,3.26,0.0,-0.002,0.0,-0.018000000000000002,-0.027,-0.984,-27.91,39.87,-81.11,0.9966,-0.0012000000000000001,-0.0028,-0.0821,0.0,0.0,-0.007
2025-10-29 18:01:19.034,3.265,0.0,-0.001,0.0,-0.018000000000000002,-0.028,-0.984,-27.91,39.87,-81.11,0.9966,-0.0012000000000000001,-0.0028,-0.0821,0.0,0.0,-0.006
2025-10-29 18:01:19.034,3.27,0.0,0.002,0.0,-0.018000000000000002,-0.027,-0.985,-28.38,39.69,-81.64,0.9966,-0.0011,-0.0028,-0.0821,0.0,0.0,-0.006
2025-10-29 18:01:19.034,3.275,0.0,0.003,-0.001,-0.019,-0.027,-0.985,-28.38,39.69,-81.64,0.9966,-0.0011,-0.0029000000000000002,-0.0821,0.001,0.0,-0.005
2025-10-29 18:01:19.035,3.28,0.001,0.002,0.0,-0.018000000000000002,-0.028,-0.986,-28.38,39.69,-81.64,0.9966,-0.0012000000000000001,-0.0029000000000000002,-0.0821,0.0,0.0,-0.005
2025-10-29 18:01:19.035,3.285,0.004,0.0,0.0,-0.018000000000000002,-0.028,-0.985,-28.09,39.52,-81.78,0.9966,-0.0012000000000000001,-0.0029000000000000002,-0.0821,0.0,0.0,-0.005
2025-10-29 18:01:19.049,3.29,0.0,0.0,0.0,-0.018000000000000002,-0.027,-0.988,-28.09,39.52,-81.78,0.9966,-0.0012000000000000001,-0.0029000000000000002,-0.0821,0.0,0.0,-0.002
2025-10-29 18:01:19.068,3.295,0.002,0.001,0.0,-0.018000000000000002,-0.028,-0.988,-28.38,39.4,-81.58,0.9966,-0.0012000000000000001,-0.0029000000000000002,-0.0821,0.0,0.0,-0.002
2025-10-29 18:01:19.068,3.3,0.0,0.004,0.0,-0.018000000000000002,-0.029,-0.989,-28.38,39.4,-81.58,0.9966,-0.0012000000000000001,-0.0029000000000000002,-0.0821,0.0,0.0,-0.001
2025-10-29 18:01:19.068,3.305,0.0,0.007,0.0,-0.018000000000000002,-0.028,-0.988,-28.38,39.4,-81.58,0.9966,-0.0012000000000000001,-0.0029000000000000002,-0.0821,0.0,0.0,-0.002
2025-10-29 18:01:19.072,3.31,0.0,0.0,-0.002,-0.019,-0.027,-0.988,-28.38,39.69,-81.55,0.9966,-0.0012000000000000001,-0.0029000000000000002,-0.0821,0.001,-0.001,-0.002
2025-10-29 18:01:19.101,3.315,0.0,-0.002,0.0,-0.019,-0.028,-0.99,-28.38,39.69,-81.55,0.9966,-0.0012000000000000001,-0.0028,-0.0821,0.001,0.0,-0.001
2025-10-29 18:01:19.101,3.32,0.0,-0.002,0.0,-0.018000000000000002,-0.029,-0.989,-28.32,40.13,-80.99,0.9966,-0.0012000000000000001,-0.0028,-0.0821,0.0,0.001,-0.002
2025-10-29 18:01:19.102,3.325,0.001,0.0,0.0,-0.018000000000000002,-0.028,-0.987,-28.32,40.13,-80.99,0.9966,-0.0012000000000000001,-0.0028,-0.0821,0.0,0.0,-0.004
2025-10-29 18:01:19.102,3.33,0.0,0.006,-0.001,-0.018000000000000002,-0.028,-0.988,-28.32,40.13,-80.99,0.9966,-0.0012000000000000001,-0.0028,-0.0821,0.001,0.0,-0.002
2025-10-29 18:01:19.102,3.335,-0.001,0.002,0.0,-0.018000000000000002,-0.028,-0.986,-28.44,39.75,-80.7,0.9966,-0.0012000000000000001,-0.0029000000000000002,-0.0821,0.0,0.0,-0.005
2025-10-29 18:01:19.103,3.34,0.0,-0.002,0.0,-0.019,-0.028,-0.986,-28.44,39.75,-80.7,0.9966,-0.0012000000000000001,-0.0028,-0.0821,0.001,0.0,-0.005
2025-10-29 18:01:19.103,3.345,-0.002,-0.003,0.0,-0.019,-0.029,-0.984,-28.38,40.1,-81.4,0.9966,-0.0012000000000000001,-0.0028,-0.0821,0.001,0.001,-0.006
2025-10-29 18:01:19.103,3.35,-0.001,-0.001,0.0,-0.018000000000000002,-0.027,-0.985,-28.38,40.1,-81.4,0.9966,-0.0012000000000000001,-0.0028,-0.0821,0.001,0.0,-0.006
2025-10-29 18:01:19.110,3.355,0.0,0.001,0.0,-0.018000000000000002,-0.028,-0.985,-28.38,40.1,-81.4,0.9966,-0.0012000000000000001,-0.0028,-0.0821,0.0,0.0,-0.006
2025-10-29 18:01:19.121,3.36,0.0,0.002,0.0,-0.017,-0.027,-0.985,-28.17,38.9,-81.29,0.9966,-0.0012000000000000001,-0.0028,-0.0821,0.0,0.0,-0.006
2025-10-29 18:01:19.121,3.365,0.0,0.003,-0.001,-0.017,-0.026000000000000002,-0.984,-28.17,38.9,-81.29,0.9966,-0.0012000000000000001,-0.0028,-0.0821,0.0,-0.001,-0.006
2025-10-29 18:01:19.122,3.37,0.001,0.0,0.0,-0.018000000000000002,-0.027,-0.984,-28.17,40.42,-81.93,0.9966,-0.0012000000000000001,-0.0028,-0.0821,0.0,0.0,-0.007
2025-10-29 18:01:19.122,3.375,0.0,0.0,0.0,-0.016,-0.027,-0.987,-28.17,40.42,-81.93,0.9966,-0.0012000000000000001,-0.0028,-0.0821,0.0,0.0,-0.004
2025-10-29 18:01:19.122,3.38,0.001,-0.002,-0.002,-0.018000000000000002,-0.028,-0.986,-28.17,40.42,-81.93,0.9966,-0.0012000000000000001,-0.0028,-0.0821,0.001,0.0,-0.004
2025-10-29 18:01:19.123,3.385,0.001,0.0,0.0,-0.016,-0.028,-0.986,-27.79,40.160000000000004,-82.05,0.9966,-0.0012000000000000001,-0.0028,-0.0821,-0.001,0.0,-0.004
2025-10-29 18:01:19.123,3.39,0.001,0.004,0.0,-0.018000000000000002,-0.028,-0.987,-27.79,40.160000000000004,-82.05,0.9966,-0.0012000000000000001,-0.0029000000000000002,-0.0821,0.001,0.0,-0.003
2025-10-29 18:01:19.123,3.395,0.0,0.0,-0.001,-0.019,-0.028,-0.987,-28.41,39.660000000000004,-82.08,0.9966,-0.0012000000000000001,-0.0029000000000000002,-0.0821,0.002,0.0,-0.003
2025-10-29 18:01:19.136,3.4,0.0,0.0,0.001,-0.018000000000000002,-0.027,-0.986,-28.41,39.660000000000004,-82.08,0.9966,-0.0012000000000000001,-0.0029000000000000002,-0.0821,0.0,0.0,-0.005
2025-10-29 18:01:19.136,3.405,0.0,0.0,0.001,-0.018000000000000002,-0.029,-0.985,-28.41,39.660000000000004,-82.08,0.9966,-0.0012000000000000001,-0.0029000000000000002,-0.0821,0.0,0.0,-0.005
2025-10-29 18:01:19.136,3.41,0.0,-0.003,0.0,-0.018000000000000002,-0.028,-0.986,-28.61,39.78,-82.05,0.9966,-0.0012000000000000001,-0.0028,-0.0821,0.0,0.0,-0.005
2025-10-29 18:01:19.137,3.415,0.001,0.0,-0.001,-0.018000000000000002,-0.028,-0.987,-28.61,39.78,-82.05,0.9966,-0.0012000000000000001,-0.0028,-0.0821,0.001,0.0,-0.004
2025-10-29 18:01:19.137,3.42,0.001,0.001,0.0,-0.018000000000000002,-0.028,-0.988,-28.38,39.95,-81.35000000000001,0.9966,-0.0012000000000000001,-0.0028,-0.0821,0.0,0.0,-0.003
2025-10-29 18:01:19.152,3.425,0.0,0.002,-0.002,-0.018000000000000002,-0.028,-0.988,-28.38,39.95,-81.35000000000001,0.9966,-0.0012000000000000001,-0.0029000000000000002,-0.0821,0.0,0.0,-0.003
2025-10-29 18:01:19.152,3.43,0.001,0.003,0.0,-0.018000000000000002,-0.028,-0.988,-28.38,39.95,-81.35000000000001,0.9966,-0.0012000000000000001,-0.0029000000000000002,-0.0821,0.001,0.0,-0.002
2025-10-29 18:01:19.152,3.435,0.0,0.002,0.0,-0.018000000000000002,-0.028,-0.987,-28.55,39.34,-81.81,0.9966,-0.0012000000000000001,-0.0029000000000000002,-0.0821,0.001,0.0,-0.003
2025-10-29 18:01:19.153,3.44,0.0,0.0,0.0,-0.017,-0.027,-0.987,-28.55,39.34,-81.81,0.9966,-0.0012000000000000001,-0.0029000000000000002,-0.0821,0.0,0.0,-0.004
2025-10-29 18:01:19.168,3.445,0.0,0.004,0.0,-0.018000000000000002,-0.028,-0.986,-28.060000000000002,38.87,-81.58,0.9966,-0.0012000000000000001,-0.0029000000000000002,-0.0821,0.001,0.0,-0.005
2025-10-29 18:01:19.184,3.45,0.0,0.002,0.0,-0.017,-0.028,-0.987,-28.060000000000002,38.87,-81.58,0.9966,-0.0012000000000000001,-0.0029000000000000002,-0.0821,0.0,0.0,-0.004
2025-10-29 18:01:19.185,3.455,0.0,0.001,0.0,-0.019,-0.026000000000000002,-0.985,-28.060000000000002,38.87,-81.58,0.9966,-0.0012000000000000001,-0.0029000000000000002,-0.0821,0.002,-0.001,-0.006
2025-10-29 18:01:19.185,3.46,-0.001,0.0,-0.001,-0.019,-0.029,-0.986,-28.44,39.43,-81.49,0.9966,-0.0012000000000000001,-0.0029000000000000002,-0.082,0.001,0.001,-0.005
2025-10-29 18:01:19.186,3.465,0.0,-0.002,0.0,-0.018000000000000002,-0.028,-0.985,-28.44,39.43,-81.49,0.9966,-0.0012000000000000001,-0.0029000000000000002,-0.082,0.0,0.0,-0.005
2025-10-29 18:01:19.186,3.47,0.0,0.002,0.0,-0.019,-0.029,-0.986,-27.560000000000002,39.43,-81.46000000000001,0.9966,-0.0012000000000000001,-0.0029000000000000002,-0.082,0.001,0.001,-0.004
2025-10-29 18:01:19.186,3.475,0.0,-0.001,0.0,-0.019,-0.028,-0.986,-27.560000000000002,39.95,-81.46000000000001,0.9966,-0.0012000000000000001,-0.0029000000000000002,-0.082,0.002,0.0,-0.005
2025-10-29 18:01:19.187,3.48,0.0,0.0,0.0,-0.018000000000000002,-0.028,-0.988,-27.560000000000002,39.95,-81.46000000000001,0.9966,-0.0012000000000000001,-0.0029000000000000002,-0.082,0.001,0.0,-0.003
2025-10-29 18:01:19.195,3.485,0.0,0.004,0.0,-0.018000000000000002,-0.027,-0.989,-28.09,39.75,-81.08,0.9966,-0.0012000000000000001,-0.0029000000000000002,-0.082,0.0,0.0,-0.002
2025-10-29 18:01:19.220,3.49,0.001,0.001,0.0,-0.018000000000000002,-0.028,-0.989,-28.09,39.75,-81.08,0.9966,-0.0012000000000000001,-0.0029000000000000002,-0.082,0.0,0.0,-0.001
2025-10-29 18:01:19.220,3.495,0.0,0.0,0.0,-0.018000000000000002,-0.028,-0.989,-28.09,39.75,-81.08,0.9966,-0.0012000000000000001,-0.0029000000000000002,-0.082,0.0,0.0,-0.001
2025-10-29 18:01:19.221,3.5,-0.001,0.0,0.0,-0.018000000000000002,-0.028,-0.99,-27.12,40.19,-80.99,0.9966,-0.0012000000000000001,-0.0029000000000000002,-0.082,0.0,0.0,0.0
2025-10-29 18:01:19.221,3.505,-0.003,0.001,0.0,-0.018000000000000002,-0.029,-0.99,-27.12,40.19,-80.99,0.9966,-0.0012000000000000001,-0.0029000000000000002,-0.082,0.001,0.001,0.0
2025-10-29 18:01:19.271,3.51,-0.002,-0.001,0.0,-0.018000000000000002,-0.03,-1.0010000000000001,-28.09,40.19,-81.23,0.9966,-0.0012000000000000001,-0.0029000000000000002,-0.082,0.0,0.002,0.01
2025-10-29 18:01:19.297,3.515,-0.005,0.001,0.0,-0.017,-0.027,-0.992,-28.09,40.19,-81.23,0.9966,-0.0012000000000000001,-0.0029000000000000002,-0.082,0.0,0.0,0.001
2025-10-29 18:01:19.297,3.52,-0.004,0.0,0.001,-0.017,-0.027,-0.982,-28.09,40.19,-81.23,0.9966,-0.0012000000000000001,-0.0029000000000000002,-0.082,0.0,0.0,-0.009000000000000001
2025-10-29 18:01:19.297,3.525,-0.004,0.0,0.0,-0.018000000000000002,-0.027,-0.985,-28.23,40.01,-81.84,0.9966,-0.0012000000000000001,-0.0028,-0.082,0.0,0.0,-0.005
2025-10-29 18:01:19.298,3.53,-0.003,-0.003,0.0,-0.019,-0.027,-0.971,-28.23,40.01,-81.84,0.9966,-0.0011,-0.0028,-0.082,0.001,0.0,-0.019
2025-10-29 18:01:19.298,3.535,-0.001,0.0,0.0,-0.019,-0.025,-0.972,-28.5,40.22,-80.82000000000001,0.9966,-0.0011,-0.0028,-0.082,0.001,-0.002,-0.019
2025-10-29 18:01:19.347,3.54,0.002,0.001,0.0,-0.018000000000000002,-0.025,-0.976,-28.5,40.22,-80.82000000000001,0.9966,-0.0012000000000000001,-0.0028,-0.082,0.0,-0.002,-0.015
2025-10-29 18:01:19.377,3.545,0.003,0.005,0.001,-0.019,-0.027,-0.98,-28.5,40.22,-80.82000000000001,0.9966,-0.0012000000000000001,-0.0029000000000000002,-0.082,0.001,0.0,-0.01
2025-10-29 18:01:19.377,3.55,0.003,0.004,0.001,-0.019,-0.027,-0.988,-28.88,39.4,-81.49,0.9966,-0.0012000000000000001,-0.0029000000000000002,-0.082,0.001,0.0,-0.002
2025-10-29 18:01:19.377,3.555,0.004,0.003,0.001,-0.018000000000000002,-0.027,-0.992,-28.88,39.4,-81.49,0.9966,-0.0012000000000000001,-0.0029000000000000002,-0.0821,0.0,0.0,0.0
2025-10-29 18:01:19.378,3.56,0.002,0.0,0.001,-0.019,-0.027,-0.993,-27.97,39.87,-81.17,0.9966,-0.0012000000000000001,-0.0029000000000000002,-0.0821,0.001,0.0,0.001
2025-10-29 18:01:19.405,3.565,0.002,0.0,0.0,-0.019,-0.028,-0.993,-27.97,39.87,-81.17,0.9966,-0.0012000000000000001,-0.0028,-0.0821,0.001,0.0,0.002
2025-10-29 18:01:19.442,3.57,0.001,0.003,0.0,-0.018000000000000002,-0.028,-0.995,-27.97,39.87,-81.17,0.9966,-0.0012000000000000001,-0.0028,-0.0821,0.0,0.0,0.003
2025-10-29 18:01:19.443,3.575,0.0,0.0,0.001,-0.017,-0.03,-0.995,-28.79,39.14,-81.26,0.9966,-0.0012000000000000001,-0.0029000000000000002,-0.0821,0.0,0.001,0.003
2025-10-29 18:01:19.443,3.58,-0.001,0.0,0.001,-0.017,-0.029,-0.993,-28.79,39.14,-81.26,0.9966,-0.0012000000000000001,-0.0029000000000000002,-0.0821,0.0,0.001,0.002
2025-10-29 18:01:19.443,3.585,-0.004,0.0,0.0,-0.017,-0.03,-0.992,-28.88,39.43,-81.37,0.9966,-0.0012000000000000001,-0.0029000000000000002,-0.0821,0.0,0.001,0.001
2025-10-29 18:01:19.444,3.59,-0.005,0.0,0.0,-0.017,-0.029,-0.987,-28.88,39.43,-81.37,0.9966,-0.0012000000000000001,-0.0029000000000000002,-0.0821,0.0,0.001,-0.003
2025-10-29 18:01:19.444,3.595,-0.004,0.001,0.0,-0.018000000000000002,-0.028,-0.982,-28.88,39.43,-81.37,0.9966,-0.0012000000000000001,-0.0029000000000000002,-0.082,0.001,0.0,-0.008
2025-10-29 18:01:19.444,3.6,-0.003,0.0,0.001,-0.018000000000000002,-0.028,-0.979,-28.41,38.87,-81.2,0.9966,-0.0012000000000000001,-0.0029000000000000002,-0.0821,0.001,0.0,-0.011
2025-10-29 18:01:19.445,3.605,-0.001,0.0,-0.001,-0.02,-0.026000000000000002,-0.977,-28.41,38.87,-81.2,0.9966,-0.0012000000000000001,-0.0029000000000000002,-0.082,0.002,-0.001,-0.014
2025-10-29 18:01:19.450,3.61,0.0,0.0,0.0,-0.02,-0.026000000000000002,-0.977,-28.79,39.84,-81.81,0.9966,-0.0012000000000000001,-0.0029000000000000002,-0.0821,0.002,-0.001,-0.014
2025-10-29 18:01:19.451,3.615,0.0,0.002,0.0,-0.019,-0.027,-0.976,-28.79,39.84,-81.81,0.9966,-0.0012000000000000001,-0.0029000000000000002,-0.082,0.001,0.0,-0.015
2025-10-29 18:01:19.451,3.62,0.001,0.005,0.0,-0.019,-0.027,-0.979,-28.79,39.84,-81.81,0.9966,-0.0012000000000000001,-0.0029000000000000002,-0.082,0.001,0.0,-0.012
2025-10-29 18:01:19.475,3.625,0.001,0.001,0.0,-0.018000000000000002,-0.028,-0.983,-28.47,39.4,-81.17,0.9966,-0.0012000000000000001,-0.0029000000000000002,-0.0821,0.0,0.0,-0.007
2025-10-29 18:01:19.475,3.63,0.004,0.007,0.0,-0.017,-0.027,-0.986,-28.47,39.4,-81.17,0.9966,-0.0012000000000000001,-0.0029000000000000002,-0.0821,0.0,0.0,-0.004
2025-10-29 18:01:19.475,3.635,0.003,0.008,0.0,-0.018000000000000002,-0.028,-0.99,-28.85,39.6,-80.88,0.9966,-0.0012000000000000001,-0.0029000000000000002,-0.0821,0.001,0.0,0.0
2025-10-29 18:01:19.476,3.64,0.002,0.007,0.0,-0.017,-0.029,-0.991,-28.85,39.6,-80.88,0.9966,-0.0012000000000000001,-0.0029000000000000002,-0.082,0.0,0.001,0.0
2025-10-29 18:01:19.476,3.645,0.002,0.002,0.001,-0.018000000000000002,-0.03,-0.994,-28.85,39.6,-80.88,0.9966,-0.0012000000000000001,-0.0029000000000000002,-0.0821,0.0,0.001,0.002
2025-10-29 18:01:19.476,3.65,0.0,-0.003,-0.002,-0.017,-0.029,-0.993,-29.05,39.43,-80.97,0.9966,-0.0012000000000000001,-0.0029000000000000002,-0.082,0.0,0.001,0.001
2025-10-29 18:01:19.477,3.655,0.0,0.002,0.0,-0.017,-0.028,-0.99,-29.05,39.43,-80.97,0.9966,-0.0012000000000000001,-0.0029000000000000002,-0.082,0.0,0.0,-0.001
