System_Time,Timestamp,Gyro_X,Gyro_Y,Gyro_Z,Acc_X,Acc_Y,Acc_Z,Mag_X,Mag_Y,Mag_Z,Quat_W,Quat_X,Quat_Y,Quat_Z,Linear_Acc_X,Linear_Acc_Y,Linear_Acc_Z
2025-11-06 18:34:09.363,63.42,0.038,-0.056,-0.003,-0.28600000000000003,-0.935,0.228,12.8,-6.72,-43.34,0.5959,-0.775,-0.0358,-0.2071,-0.01,-0.004,0.001
2025-11-06 18:34:09.364,63.425,0.042,-0.068,0.0,-0.28600000000000003,-0.935,0.228,11.540000000000001,-7.36,-43.7,0.5958,-0.7751,-0.0357,-0.20700000000000002,-0.01,-0.005,0.002
2025-11-06 18:34:09.364,63.43,0.048,-0.074,0.003,-0.28500000000000003,-0.936,0.227,11.540000000000001,-7.36,-43.7,0.5957,-0.7752,-0.0357,-0.2068,-0.01,-0.004,0.003
2025-11-06 18:34:09.364,63.435,0.057,-0.085,0.008,-0.28500000000000003,-0.936,0.226,11.31,-6.57,-43.67,0.5956,-0.7753,-0.035500000000000004,-0.2066,-0.01,-0.004,0.005
2025-11-06 18:34:09.364,63.44,0.07,-0.08700000000000001,0.01,-0.28500000000000003,-0.9380000000000001,0.227,11.31,-6.57,-43.67,0.5955,-0.7755000000000001,-0.0354,-0.20650000000000002,-0.01,-0.002,0.004
2025-11-06 18:34:09.364,63.445,0.08600000000000001,-0.088,0.016,-0.28400000000000003,-0.9390000000000001,0.225,11.31,-6.57,-43.67,0.5953,-0.7757000000000001,-0.035300000000000005,-0.2063,-0.011,-0.001,0.007
2025-11-06 18:34:09.364,63.45,0.094,-0.092,0.018000000000000002,-0.28400000000000003,-0.9380000000000001,0.225,12.13,-7.68,-44.37,0.5951000000000001,-0.7758,-0.0352,-0.20620000000000002,-0.011,-0.001,0.007
2025-11-06 18:34:09.364,63.455,0.099,-0.08600000000000001,0.018000000000000002,-0.28600000000000003,-0.9390000000000001,0.225,12.13,-7.68,-44.37,0.5949,-0.776,-0.0351,-0.20600000000000002,-0.009000000000000001,-0.001,0.008
2025-11-06 18:34:09.364,63.46,0.108,-0.088,0.018000000000000002,-0.28700000000000003,-0.937,0.225,12.36,-7.04,-43.81,0.5947,-0.7763,-0.035,-0.2058,-0.008,-0.002,0.009000000000000001
2025-11-06 18:34:09.364,63.465,0.109,-0.08600000000000001,0.019,-0.289,-0.937,0.224,12.36,-7.04,-43.81,0.5945,-0.7765000000000001,-0.0349,-0.20570000000000002,-0.006,-0.003,0.011
2025-11-06 18:34:09.364,63.47,0.107,-0.09,0.021,-0.29,-0.9380000000000001,0.224,12.36,-7.04,-43.81,0.5943,-0.7767000000000001,-0.034800000000000005,-0.20550000000000002,-0.005,-0.001,0.011
2025-11-06 18:34:09.364,63.475,0.108,-0.089,0.019,-0.29,-0.9380000000000001,0.227,11.66,-6.46,-44.43,0.5941000000000001,-0.7769,-0.0347,-0.2054,-0.005,-0.001,0.009000000000000001
2025-11-06 18:34:09.364,63.48,0.105,-0.088,0.021,-0.292,-0.9400000000000001,0.227,11.66,-6.46,-44.43,0.5939,-0.7771,-0.0346,-0.20520000000000002,-0.003,0.0,0.009000000000000001
2025-11-06 18:34:09.364,63.485,0.10300000000000001,-0.094,0.021,-0.292,-0.9410000000000001,0.229,12.01,-6.6000000000000005,-43.75,0.5937,-0.7773,-0.0344,-0.2051,-0.003,0.001,0.007
2025-11-06 18:34:09.364,63.49,0.097,-0.097,0.019,-0.292,-0.9410000000000001,0.233,12.01,-6.6000000000000005,-43.75,0.5935,-0.7775000000000001,-0.034300000000000004,-0.2049,-0.003,0.002,0.004
2025-11-06 18:34:09.364,63.495,0.094,-0.101,0.021,-0.291,-0.9430000000000001,0.23500000000000001,12.01,-6.6000000000000005,-43.75,0.5933,-0.7777000000000001,-0.0342,-0.20470000000000002,-0.004,0.004,0.003
2025-11-06 18:34:09.364,63.5,0.091,-0.107,0.021,-0.289,-0.9410000000000001,0.23600000000000002,11.8,-6.98,-43.61,0.5931000000000001,-0.7779,-0.034,-0.20450000000000002,-0.006,0.002,0.003
2025-11-06 18:34:09.364,63.505,0.08600000000000001,-0.115,0.021,-0.28800000000000003,-0.9420000000000001,0.23900000000000002,11.8,-6.98,-43.61,0.5929,-0.7781,-0.0339,-0.2043,-0.007,0.003,0.0
2025-11-06 18:34:09.364,63.51,0.075,-0.11800000000000001,0.026000000000000002,-0.289,-0.9430000000000001,0.246,11.4,-6.69,-43.61,0.5928,-0.7782,-0.0337,-0.2041,-0.005,0.004,-0.005
2025-11-06 18:34:09.364,63.515,0.07,-0.11900000000000001,0.029,-0.28600000000000003,-0.9430000000000001,0.248,11.4,-6.69,-43.61,0.5926,-0.7784000000000001,-0.0335,-0.2039,-0.009000000000000001,0.004,-0.007
2025-11-06 18:34:09.364,63.52,0.066,-0.11800000000000001,0.03,-0.28400000000000003,-0.9420000000000001,0.254,11.4,-6.69,-43.61,0.5925,-0.7786000000000001,-0.0333,-0.20370000000000002,-0.011,0.004,-0.012
2025-11-06 18:34:09.364,63.525,0.066,-0.116,0.034,-0.28500000000000003,-0.9420000000000001,0.256,11.19,-7.13,-43.550000000000004,0.5924,-0.7787000000000001,-0.033100000000000004,-0.20350000000000001,-0.01,0.004,-0.014
2025-11-06 18:34:09.364,63.53,0.066,-0.115,0.038,-0.28400000000000003,-0.9410000000000001,0.254,11.19,-7.13,-43.550000000000004,0.5922000000000001,-0.7789,-0.0329,-0.2033,-0.011,0.003,-0.012
2025-11-06 18:34:09.364,63.535,0.068,-0.114,0.04,-0.28500000000000003,-0.9410000000000001,0.253,11.13,-6.98,-43.46,0.5921000000000001,-0.7791,-0.0327,-0.2031,-0.01,0.003,-0.009000000000000001
2025-11-06 18:34:09.364,63.54,0.07,-0.11,0.041,-0.28700000000000003,-0.9420000000000001,0.248,11.13,-6.98,-43.46,0.5919,-0.7792,-0.0325,-0.203,-0.008,0.005,-0.005
2025-11-06 18:34:09.364,63.545,0.075,-0.109,0.043000000000000003,-0.29,-0.9430000000000001,0.248,11.13,-6.98,-43.46,0.5918,-0.7794000000000001,-0.0323,-0.2028,-0.005,0.005,-0.004
2025-11-06 18:34:09.364,63.55,0.083,-0.107,0.043000000000000003,-0.293,-0.9450000000000001,0.249,12.13,-6.92,-43.17,0.5916,-0.7796000000000001,-0.032100000000000004,-0.2026,-0.002,0.007,-0.004
2025-11-06 18:34:09.364,63.555,0.089,-0.109,0.043000000000000003,-0.294,-0.9460000000000001,0.249,12.13,-6.92,-43.17,0.5914,-0.7798,-0.031900000000000005,-0.2025,-0.001,0.008,-0.004
2025-11-06 18:34:09.364,63.56,0.1,-0.113,0.04,-0.298,-0.9460000000000001,0.254,11.89,-7.3,-42.96,0.5912000000000001,-0.78,-0.0317,-0.2023,0.002,0.009000000000000001,-0.008
2025-11-06 18:34:09.364,63.565,0.109,-0.112,0.035,-0.303,-0.9480000000000001,0.256,11.89,-7.3,-42.96,0.5909,-0.7802,-0.0315,-0.2021,0.007,0.011,-0.009000000000000001
2025-11-06 18:34:09.364,63.57,0.115,-0.112,0.032,-0.305,-0.9470000000000001,0.258,11.89,-7.3,-42.96,0.5907,-0.7805000000000001,-0.031400000000000004,-0.2019,0.009000000000000001,0.01,-0.011
2025-11-06 18:34:09.364,63.575,0.122,-0.108,0.03,-0.308,-0.9460000000000001,0.26,12.07,-7.07,-43.64,0.5905,-0.7807000000000001,-0.031200000000000002,-0.2018,0.011,0.01,-0.012
2025-11-06 18:34:09.364,63.58,0.128,-0.107,0.027,-0.31,-0.9450000000000001,0.259,12.07,-7.07,-43.64,0.5902000000000001,-0.781,-0.031100000000000003,-0.2016,0.014,0.008,-0.011
2025-11-06 18:34:09.364,63.585,0.128,-0.109,0.023,-0.312,-0.9430000000000001,0.26,12.3,-6.78,-43.49,0.5899,-0.7812,-0.0309,-0.20140000000000002,0.015,0.006,-0.011
2025-11-06 18:34:09.364,63.59,0.131,-0.10200000000000001,0.021,-0.312,-0.9390000000000001,0.259,12.3,-6.78,-43.49,0.5897,-0.7815000000000001,-0.0308,-0.20120000000000002,0.016,0.003,-0.009000000000000001
2025-11-06 18:34:09.364,63.595,0.131,-0.097,0.02,-0.312,-0.935,0.259,12.3,-6.78,-43.49,0.5894,-0.7817000000000001,-0.0307,-0.201,0.016,0.0,-0.008
2025-11-06 18:34:09.364,63.6,0.13,-0.094,0.021,-0.313,-0.931,0.256,11.75,-6.6000000000000005,-43.26,0.5891000000000001,-0.782,-0.030600000000000002,-0.20090000000000002,0.016,-0.003,-0.004
2025-11-06 18:34:09.364,63.605,0.132,-0.091,0.021,-0.311,-0.927,0.257,11.75,-6.6000000000000005,-43.26,0.5888,-0.7822,-0.030500000000000003,-0.20070000000000002,0.014,-0.007,-0.005
2025-11-06 18:34:09.364,63.61,0.128,-0.08600000000000001,0.02,-0.31,-0.925,0.255,11.75,-6.6000000000000005,-43.26,0.5886,-0.7825000000000001,-0.0304,-0.2006,0.014,-0.01,-0.002
2025-11-06 18:34:09.364,63.615,0.127,-0.088,0.019,-0.309,-0.923,0.254,13.120000000000001,-6.72,-42.79,0.5883,-0.7827000000000001,-0.0303,-0.20040000000000002,0.012,-0.011,-0.001
2025-11-06 18:34:09.364,63.62,0.129,-0.091,0.019,-0.306,-0.919,0.252,13.120000000000001,-6.72,-42.79,0.5881000000000001,-0.783,-0.030100000000000002,-0.2003,0.01,-0.015,0.001
2025-11-06 18:34:09.364,63.625,0.132,-0.093,0.022,-0.304,-0.919,0.253,12.21,-7.86,-43.14,0.5878,-0.7832,-0.030000000000000002,-0.2001,0.007,-0.015,0.001
2025-11-06 18:34:09.364,63.63,0.138,-0.095,0.023,-0.302,-0.919,0.254,12.21,-7.86,-43.14,0.5875,-0.7835000000000001,-0.029900000000000003,-0.19990000000000002,0.006,-0.014,0.001
2025-11-06 18:34:09.364,63.635,0.14300000000000002,-0.099,0.023,-0.3,-0.919,0.257,12.21,-7.86,-43.14,0.5872,-0.7837000000000001,-0.0298,-0.1998,0.004,-0.014,0.0
2025-11-06 18:34:09.364,63.64,0.153,-0.096,0.024,-0.3,-0.919,0.259,13.030000000000001,-7.19,-43.26,0.5869,-0.784,-0.0297,-0.1996,0.004,-0.014,-0.001
2025-11-06 18:34:09.364,63.645,0.158,-0.096,0.023,-0.3,-0.921,0.262,13.030000000000001,-7.19,-43.26,0.5866,-0.7843,-0.0296,-0.19940000000000002,0.003,-0.012,-0.003
2025-11-06 18:34:09.364,63.65,0.164,-0.093,0.024,-0.298,-0.926,0.266,11.98,-7.45,-43.37,0.5862,-0.7846000000000001,-0.029500000000000002,-0.1993,0.002,-0.006,-0.007
2025-11-06 18:34:09.364,63.655,0.169,-0.09,0.021,-0.301,-0.929,0.269,11.98,-7.45,-43.37,0.5859,-0.7849,-0.029400000000000003,-0.1991,0.004,-0.004,-0.009000000000000001
2025-11-06 18:34:09.364,63.66,0.17,-0.083,0.018000000000000002,-0.301,-0.931,0.269,11.98,-7.45,-43.37,0.5855,-0.7852,-0.029300000000000003,-0.199,0.005,-0.001,-0.008
2025-11-06 18:34:09.364,63.665,0.17200000000000001,-0.084,0.013000000000000001,-0.302,-0.933,0.27,11.540000000000001,-6.51,-43.34,0.5852,-0.7855000000000001,-0.029300000000000003,-0.1988,0.005,0.0,-0.008
2025-11-06 18:34:09.364,63.67,0.169,-0.08700000000000001,0.01,-0.303,-0.934,0.272,11.540000000000001,-6.51,-43.34,0.5848,-0.7858,-0.0292,-0.1986,0.007,0.002,-0.008
2025-11-06 18:34:09.364,63.675,0.165,-0.09,0.008,-0.305,-0.935,0.272,11.25,-6.6000000000000005,-42.910000000000004,0.5845,-0.7861,-0.0291,-0.19840000000000002,0.009000000000000001,0.003,-0.007
2025-11-06 18:34:09.364,63.68,0.163,-0.08700000000000001,0.001,-0.305,-0.934,0.271,11.25,-6.6000000000000005,-42.910000000000004,0.5842,-0.7864,-0.0291,-0.1983,0.009000000000000001,0.002,-0.005
2025-11-06 18:34:09.364,63.685,0.159,-0.094,0.0,-0.305,-0.936,0.271,11.25,-6.6000000000000005,-42.910000000000004,0.5839,-0.7867000000000001,-0.029,-0.1981,0.009000000000000001,0.004,-0.004
2025-11-06 18:34:09.364,63.69,0.155,-0.093,-0.004,-0.304,-0.936,0.27,11.83,-6.54,-42.730000000000004,0.5836,-0.787,-0.029,-0.19790000000000002,0.008,0.004,-0.003
2025-11-06 18:34:09.364,63.695,0.158,-0.101,-0.007,-0.305,-0.934,0.272,11.83,-6.54,-42.730000000000004,0.5833,-0.7872,-0.028900000000000002,-0.1976,0.01,0.003,-0.004
2025-11-06 18:34:09.364,63.7,0.163,-0.106,-0.008,-0.306,-0.933,0.274,12.040000000000001,-6.54,-42.58,0.5829,-0.7875000000000001,-0.028900000000000002,-0.19740000000000002,0.011,0.001,-0.005
2025-11-06 18:34:09.364,63.705,0.169,-0.107,-0.01,-0.306,-0.933,0.276,12.040000000000001,-6.54,-42.58,0.5826,-0.7878000000000001,-0.028800000000000003,-0.19720000000000001,0.011,0.001,-0.006
2025-11-06 18:34:09.364,63.71,0.186,-0.101,-0.011,-0.307,-0.93,0.274,12.040000000000001,-6.54,-42.58,0.5822,-0.7882,-0.028800000000000003,-0.19690000000000002,0.012,0.0,-0.003
2025-11-06 18:34:09.364,63.715,0.199,-0.097,-0.011,-0.309,-0.926,0.275,11.78,-7.16,-42.410000000000004,0.5818,-0.7885000000000001,-0.028800000000000003,-0.1967,0.013000000000000001,-0.003,-0.003
2025-11-06 18:34:09.364,63.72,0.20800000000000002,-0.094,-0.01,-0.311,-0.922,0.273,11.78,-7.16,-42.410000000000004,0.5814,-0.7889,-0.028800000000000003,-0.1965,0.016,-0.007,0.0
2025-11-06 18:34:09.364,63.725,0.219,-0.091,-0.008,-0.311,-0.92,0.273,11.4,-6.86,-42.35,0.5810000000000001,-0.7893,-0.028800000000000003,-0.1963,0.017,-0.01,0.0
2025-11-06 18:34:09.364,63.73,0.23,-0.09,-0.006,-0.313,-0.916,0.275,11.4,-6.86,-42.35,0.5805,-0.7896000000000001,-0.028800000000000003,-0.1961,0.018000000000000002,-0.013000000000000001,0.0
2025-11-06 18:34:09.364,63.735,0.241,-0.08600000000000001,-0.005,-0.315,-0.913,0.277,11.4,-6.86,-42.35,0.5801000000000001,-0.79,-0.028800000000000003,-0.19590000000000002,0.02,-0.016,-0.001
2025-11-06 18:34:09.364,63.74,0.255,-0.081,-0.002,-0.317,-0.91,0.281,12.07,-6.69,-41.68,0.5795,-0.7905000000000001,-0.028800000000000003,-0.1957,0.022,-0.018000000000000002,-0.003
2025-11-06 18:34:09.366,63.745,0.263,-0.078,0.0,-0.318,-0.907,0.28500000000000003,12.07,-6.69,-41.68,0.5790000000000001,-0.7909,-0.028800000000000003,-0.1956,0.024,-0.021,-0.007
2025-11-06 18:34:09.366,63.75,0.267,-0.07200000000000001,0.001,-0.321,-0.905,0.29,12.13,-6.25,-42.730000000000004,0.5785,-0.7913,-0.028800000000000003,-0.19540000000000002,0.027,-0.022,-0.01
2025-11-06 18:34:09.366,63.755,0.271,-0.062,0.002,-0.321,-0.908,0.294,12.13,-6.25,-42.730000000000004,0.5779000000000001,-0.7918000000000001,-0.028900000000000002,-0.1953,0.027,-0.019,-0.012
2025-11-06 18:34:09.366,63.76,0.272,-0.055,0.004,-0.321,-0.907,0.297,12.13,-6.25,-42.730000000000004,0.5774,-0.7922,-0.028900000000000002,-0.1951,0.026000000000000002,-0.02,-0.014
2025-11-06 18:34:09.366,63.765,0.266,-0.049,0.006,-0.321,-0.907,0.301,11.950000000000001,-6.43,-42.06,0.5768,-0.7926000000000001,-0.028900000000000002,-0.195,0.027,-0.019,-0.016
2025-11-06 18:34:09.366,63.77,0.257,-0.043000000000000003,0.005,-0.322,-0.908,0.303,11.950000000000001,-6.43,-42.06,0.5763,-0.793,-0.029,-0.19490000000000002,0.028,-0.018000000000000002,-0.017
2025-11-06 18:34:09.366,63.775,0.23800000000000002,-0.038,0.005,-0.327,-0.908,0.306,11.63,-6.19,-42.26,0.5758,-0.7934,-0.029,-0.19490000000000002,0.032,-0.017,-0.019
2025-11-06 18:34:09.366,63.78,0.223,-0.03,0.004,-0.327,-0.909,0.307,11.63,-6.19,-42.26,0.5753,-0.7938000000000001,-0.0291,-0.1948,0.032,-0.016,-0.019
2025-11-06 18:34:09.366,63.785,0.203,-0.027,0.003,-0.327,-0.91,0.31,11.63,-6.19,-42.26,0.5749000000000001,-0.7941,-0.0291,-0.1948,0.032,-0.015,-0.021
2025-11-06 18:34:09.366,63.79,0.185,-0.024,0.001,-0.325,-0.911,0.311,11.8,-7.71,-42.56,0.5745,-0.7944,-0.0292,-0.1947,0.03,-0.013000000000000001,-0.021
2025-11-06 18:34:09.366,63.795,0.168,-0.025,0.0,-0.323,-0.912,0.312,11.8,-7.71,-42.56,0.5741,-0.7947000000000001,-0.0292,-0.1947,0.028,-0.012,-0.021
2025-11-06 18:34:09.366,63.8,0.156,-0.022,-0.002,-0.322,-0.914,0.311,12.42,-7.48,-42.0,0.5738,-0.7949,-0.0292,-0.19460000000000002,0.028,-0.009000000000000001,-0.02
2025-11-06 18:34:09.366,63.805,0.14100000000000001,-0.02,-0.003,-0.321,-0.92,0.312,12.42,-7.48,-42.0,0.5735,-0.7951,-0.029300000000000003,-0.19460000000000002,0.027,-0.003,-0.019
2025-11-06 18:34:09.366,63.81,0.136,-0.024,-0.002,-0.32,-0.925,0.31,12.42,-7.48,-42.0,0.5732,-0.7954,-0.029300000000000003,-0.1945,0.026000000000000002,0.001,-0.017
2025-11-06 18:34:09.366,63.815,0.138,-0.027,-0.001,-0.318,-0.929,0.311,12.1,-6.51,-41.77,0.5729000000000001,-0.7956000000000001,-0.029300000000000003,-0.19440000000000002,0.024,0.005,-0.016
2025-11-06 18:34:09.366,63.82,0.135,-0.032,-0.002,-0.316,-0.931,0.309,12.1,-6.51,-41.77,0.5726,-0.7958000000000001,-0.029400000000000003,-0.19440000000000002,0.022,0.007,-0.014
2025-11-06 18:34:09.366,63.825,0.131,-0.038,0.0,-0.316,-0.936,0.307,11.6,-6.57,-41.88,0.5724,-0.796,-0.029400000000000003,-0.1943,0.022,0.012,-0.011
2025-11-06 18:34:09.366,63.83,0.127,-0.056,-0.001,-0.315,-0.935,0.305,11.6,-6.57,-41.88,0.5721,-0.7962,-0.029400000000000003,-0.1942,0.021,0.011,-0.009000000000000001
2025-11-06 18:34:09.366,63.835,0.12,-0.061,-0.003,-0.314,-0.932,0.305,11.6,-6.57,-41.88,0.5719000000000001,-0.7964,-0.029300000000000003,-0.194,0.02,0.009000000000000001,-0.008
2025-11-06 18:34:09.366,63.84,0.114,-0.063,-0.007,-0.314,-0.931,0.304,11.42,-6.63,-41.800000000000004,0.5716,-0.7966000000000001,-0.029300000000000003,-0.19390000000000002,0.02,0.007,-0.006
2025-11-06 18:34:09.366,63.845,0.108,-0.068,-0.009000000000000001,-0.312,-0.931,0.303,11.42,-6.63,-41.800000000000004,0.5714,-0.7968000000000001,-0.029300000000000003,-0.1937,0.018000000000000002,0.008,-0.005
2025-11-06 18:34:09.366,63.85,0.101,-0.073,-0.016,-0.31,-0.928,0.3,11.42,-6.63,-41.800000000000004,0.5712,-0.797,-0.029300000000000003,-0.19360000000000002,0.017,0.005,-0.002
2025-11-06 18:34:09.366,63.855,0.098,-0.082,-0.021,-0.306,-0.927,0.3,11.83,-6.25,-42.38,0.5710000000000001,-0.7972,-0.0292,-0.19340000000000002,0.013000000000000001,0.004,-0.001
2025-11-06 18:34:09.366,63.86,0.1,-0.092,-0.027,-0.304,-0.923,0.298,11.83,-6.25,-42.38,0.5709000000000001,-0.7974,-0.0292,-0.19310000000000002,0.011,0.0,0.001
2025-11-06 18:34:09.366,63.865,0.095,-0.098,-0.032,-0.304,-0.923,0.297,12.13,-6.1000000000000005,-42.0,0.5707,-0.7976000000000001,-0.0292,-0.19290000000000002,0.011,0.0,0.002
2025-11-06 18:34:09.366,63.87,0.094,-0.10200000000000001,-0.036000000000000004,-0.302,-0.922,0.297,12.13,-6.1000000000000005,-42.0,0.5705,-0.7977000000000001,-0.0292,-0.19260000000000002,0.01,0.0,0.003
2025-11-06 18:34:09.366,63.875,0.095,-0.106,-0.039,-0.302,-0.924,0.295,12.13,-6.1000000000000005,-42.0,0.5704,-0.7979,-0.0291,-0.19240000000000002,0.01,0.001,0.005
2025-11-06 18:34:09.366,63.88,0.094,-0.108,-0.045,-0.299,-0.922,0.294,11.72,-6.54,-42.18,0.5702,-0.7981,-0.0291,-0.19210000000000002,0.007,0.0,0.007
2025-11-06 18:34:09.366,63.885,0.096,-0.112,-0.049,-0.295,-0.919,0.296,11.72,-6.54,-42.18,0.5700000000000001,-0.7983,-0.0291,-0.1918,0.003,-0.003,0.006
2025-11-06 18:34:09.366,63.89,0.094,-0.121,-0.054,-0.293,-0.916,0.297,11.75,-6.22,-41.97,0.5699000000000001,-0.7985,-0.0291,-0.1915,0.002,-0.005,0.005
2025-11-06 18:34:09.366,63.895,0.095,-0.128,-0.059000000000000004,-0.289,-0.912,0.3,11.75,-6.22,-41.97,0.5697,-0.7987000000000001,-0.0291,-0.19110000000000002,-0.001,-0.009000000000000001,0.003
2025-11-06 18:34:09.366,63.9,0.095,-0.13,-0.063,-0.28600000000000003,-0.906,0.302,11.75,-6.22,-41.97,0.5696,-0.7989,-0.0291,-0.1907,-0.003,-0.015,0.002
2025-11-06 18:34:09.366,63.905,0.094,-0.135,-0.067,-0.28700000000000003,-0.901,0.302,12.27,-6.28,-42.38,0.5694,-0.7991,-0.0291,-0.1904,-0.002,-0.02,0.002
2025-11-06 18:34:09.366,63.91,0.093,-0.137,-0.07200000000000001,-0.28300000000000003,-0.897,0.303,12.27,-6.28,-42.38,0.5693,-0.7993,-0.0291,-0.19,-0.005,-0.024,0.001
2025-11-06 18:34:09.366,63.915,0.093,-0.14400000000000002,-0.076,-0.279,-0.894,0.302,12.33,-6.13,-42.38,0.5691,-0.7995,-0.0291,-0.18960000000000002,-0.008,-0.027,0.002
2025-11-06 18:34:09.366,63.92,0.08700000000000001,-0.161,-0.082,-0.277,-0.891,0.302,12.33,-6.13,-42.38,0.5690000000000001,-0.7997000000000001,-0.0291,-0.18910000000000002,-0.01,-0.03,0.004
2025-11-06 18:34:09.366,63.925,0.084,-0.176,-0.089,-0.274,-0.891,0.3,12.33,-6.13,-42.38,0.5689000000000001,-0.7998000000000001,-0.0291,-0.1887,-0.013000000000000001,-0.03,0.006
2025-11-06 18:34:09.366,63.93,0.079,-0.191,-0.096,-0.271,-0.89,0.301,12.39,-6.34,-42.12,0.5688,-0.8,-0.029,-0.18810000000000002,-0.015,-0.031,0.005
2025-11-06 18:34:09.366,63.935,0.078,-0.217,-0.10200000000000001,-0.268,-0.889,0.302,12.39,-6.34,-42.12,0.5687,-0.8002,-0.029,-0.1875,-0.017,-0.032,0.005
2025-11-06 18:34:09.366,63.94,0.085,-0.233,-0.107,-0.263,-0.892,0.307,12.3,-6.37,-41.56,0.5686,-0.8005,-0.028900000000000002,-0.1869,-0.021,-0.029,0.001
2025-11-06 18:34:09.366,63.945,0.091,-0.262,-0.11800000000000001,-0.253,-0.898,0.311,12.3,-6.37,-41.56,0.5685,-0.8007000000000001,-0.028900000000000002,-0.1862,-0.03,-0.023,-0.001
2025-11-06 18:34:09.366,63.95,0.096,-0.294,-0.126,-0.246,-0.905,0.316,12.3,-6.37,-41.56,0.5684,-0.801,-0.028800000000000003,-0.1854,-0.036000000000000004,-0.016,-0.005
2025-11-06 18:34:09.366,63.955,0.1,-0.324,-0.134,-0.24,-0.913,0.324,12.620000000000001,-6.63,-41.97,0.5683,-0.8013,-0.0286,-0.18460000000000001,-0.041,-0.007,-0.011
2025-11-06 18:34:09.366,63.96,0.10400000000000001,-0.356,-0.14200000000000002,-0.233,-0.922,0.333,12.620000000000001,-6.63,-41.97,0.5682,-0.8016000000000001,-0.0285,-0.1836,-0.047,0.0,-0.019
2025-11-06 18:34:09.366,63.965,0.107,-0.396,-0.151,-0.221,-0.931,0.341,12.83,-6.86,-41.88,0.5680000000000001,-0.8019000000000001,-0.028300000000000002,-0.1826,-0.058,0.01,-0.027
2025-11-06 18:34:09.366,63.97,0.112,-0.429,-0.155,-0.212,-0.9390000000000001,0.356,12.83,-6.86,-41.88,0.5679000000000001,-0.8022,-0.0281,-0.18150000000000002,-0.065,0.019,-0.04
2025-11-06 18:34:09.366,63.975,0.114,-0.468,-0.162,-0.194,-0.9490000000000001,0.368,12.83,-6.86,-41.88,0.5678000000000001,-0.8026000000000001,-0.027800000000000002,-0.18030000000000002,-0.081,0.029,-0.051000000000000004
2025-11-06 18:34:09.366,63.98,0.115,-0.486,-0.163,-0.18,-0.9540000000000001,0.373,12.59,-6.1000000000000005,-41.910000000000004,0.5677,-0.803,-0.027600000000000003,-0.1791,-0.093,0.034,-0.054
2025-11-06 18:34:09.366,63.985,0.117,-0.502,-0.163,-0.168,-0.9550000000000001,0.375,12.59,-6.1000000000000005,-41.910000000000004,0.5675,-0.8033,-0.0273,-0.1779,-0.105,0.035,-0.055
2025-11-06 18:34:09.366,63.99,0.121,-0.509,-0.159,-0.156,-0.9540000000000001,0.377,12.450000000000001,-5.72,-42.2,0.5674,-0.8037000000000001,-0.027,-0.1766,-0.114,0.034,-0.056
2025-11-06 18:34:09.366,63.995,0.128,-0.515,-0.155,-0.148,-0.9490000000000001,0.376,12.450000000000001,-5.72,-42.2,0.5673,-0.8041,-0.026600000000000002,-0.1753,-0.122,0.029,-0.054
2025-11-06 18:34:09.366,64.0,0.139,-0.518,-0.15,-0.14300000000000002,-0.9440000000000001,0.372,12.450000000000001,-5.72,-42.2,0.5671,-0.8045,-0.0263,-0.17400000000000002,-0.125,0.024,-0.048
2025-11-06 18:34:09.366,64.005,0.152,-0.531,-0.14100000000000001,-0.14200000000000002,-0.936,0.365,12.89,-6.16,-42.03,0.5669000000000001,-0.805,-0.026000000000000002,-0.17270000000000002,-0.124,0.016,-0.04
2025-11-06 18:34:09.367,64.01,0.164,-0.532,-0.14,-0.146,-0.934,0.358,12.89,-6.16,-42.03,0.5666,-0.8054,-0.0256,-0.1714,-0.11900000000000001,0.014,-0.032
2025-11-06 18:34:09.367,64.015,0.17500000000000002,-0.537,-0.137,-0.152,-0.932,0.35000000000000003,14.030000000000001,-6.22,-42.29,0.5664,-0.8059000000000001,-0.0252,-0.1701,-0.111,0.011,-0.023
2025-11-06 18:34:09.367,64.02,0.183,-0.544,-0.132,-0.159,-0.932,0.343,14.030000000000001,-6.22,-42.29,0.5661,-0.8064,-0.024900000000000002,-0.1688,-0.10300000000000001,0.012,-0.015
2025-11-06 18:34:09.367,64.025,0.191,-0.54,-0.129,-0.169,-0.932,0.335,14.030000000000001,-6.22,-42.29,0.5658000000000001,-0.8069000000000001,-0.0245,-0.1675,-0.091,0.012,-0.005
2025-11-06 18:34:09.367,64.03,0.2,-0.528,-0.124,-0.179,-0.934,0.324,13.24,-6.43,-42.410000000000004,0.5655,-0.8074,-0.0241,-0.16620000000000001,-0.08,0.013000000000000001,0.007
2025-11-06 18:34:09.367,64.035,0.21,-0.509,-0.122,-0.19,-0.933,0.32,13.24,-6.43,-42.410000000000004,0.5651,-0.8079000000000001,-0.0238,-0.165,-0.068,0.012,0.012
2025-11-06 18:34:09.367,64.04,0.228,-0.466,-0.11900000000000001,-0.202,-0.933,0.32,13.68,-6.19,-41.71,0.5648000000000001,-0.8084,-0.0235,-0.16390000000000002,-0.054,0.012,0.014
2025-11-06 18:34:09.367,64.045,0.23900000000000002,-0.429,-0.117,-0.20700000000000002,-0.935,0.322,13.68,-6.19,-41.71,0.5644,-0.8089000000000001,-0.023200000000000002,-0.1628,-0.047,0.015,0.013000000000000001
2025-11-06 18:34:09.367,64.05,0.253,-0.389,-0.112,-0.214,-0.9390000000000001,0.324,13.68,-6.19,-41.71,0.5639000000000001,-0.8094,-0.023,-0.1618,-0.039,0.019,0.013000000000000001
2025-11-06 18:34:09.367,64.055,0.264,-0.34900000000000003,-0.106,-0.219,-0.9440000000000001,0.33,13.85,-6.13,-41.15,0.5634,-0.8099000000000001,-0.0229,-0.161,-0.033,0.024,0.009000000000000001
2025-11-06 18:34:09.367,64.06,0.277,-0.305,-0.099,-0.222,-0.9520000000000001,0.336,13.85,-6.13,-41.15,0.5629000000000001,-0.8104,-0.0228,-0.1602,-0.029,0.032,0.005
2025-11-06 18:34:09.367,64.065,0.28300000000000003,-0.257,-0.091,-0.225,-0.9590000000000001,0.342,13.41,-6.1000000000000005,-41.71,0.5624,-0.8109000000000001,-0.0228,-0.1595,-0.025,0.04,0.001
2025-11-06 18:34:09.367,64.07,0.29,-0.187,-0.078,-0.229,-0.969,0.34500000000000003,13.41,-6.1000000000000005,-41.71,0.5618000000000001,-0.8114,-0.0228,-0.159,-0.02,0.05,0.0
2025-11-06 18:34:09.367,64.075,0.289,-0.14200000000000002,-0.069,-0.23,-0.975,0.34700000000000003,13.41,-6.1000000000000005,-41.71,0.5613,-0.8119000000000001,-0.0229,-0.15860000000000002,-0.018000000000000002,0.056,0.0
2025-11-06 18:34:09.367,64.08,0.28500000000000003,-0.099,-0.062,-0.231,-0.982,0.34400000000000003,13.09,-7.07,-42.0,0.5607,-0.8123,-0.023,-0.1583,-0.017,0.064,0.004
2025-11-06 18:34:09.367,64.085,0.28300000000000003,-0.063,-0.052000000000000005,-0.231,-0.991,0.34,13.09,-7.07,-42.0,0.5601,-0.8128000000000001,-0.023100000000000002,-0.15810000000000002,-0.017,0.073,0.009000000000000001
2025-11-06 18:34:09.367,64.09,0.28200000000000003,-0.035,-0.041,-0.228,-0.998,0.332,13.09,-7.07,-42.0,0.5596,-0.8132,-0.0233,-0.1579,-0.02,0.08,0.019
2025-11-06 18:34:09.367,64.095,0.28200000000000003,0.005,-0.032,-0.222,-1.0010000000000001,0.327,13.620000000000001,-6.890000000000001,-41.06,0.559,-0.8136,-0.0234,-0.1579,-0.025,0.084,0.026000000000000002
2025-11-06 18:34:09.367,64.1,0.276,0.029,-0.031,-0.219,-1.004,0.324,13.620000000000001,-6.890000000000001,-41.06,0.5584,-0.8140000000000001,-0.023700000000000002,-0.1578,-0.028,0.08700000000000001,0.03
2025-11-06 18:34:09.367,64.105,0.269,0.062,-0.031,-0.214,-1.004,0.32,15.05,-6.19,-41.62,0.5579000000000001,-0.8143,-0.0239,-0.1579,-0.033,0.088,0.035
2025-11-06 18:34:09.367,64.11,0.263,0.099,-0.034,-0.21,-0.999,0.315,15.05,-6.19,-41.62,0.5573,-0.8146,-0.024200000000000003,-0.158,-0.037,0.083,0.041
2025-11-06 18:34:09.367,64.115,0.258,0.14100000000000001,-0.038,-0.211,-0.992,0.305,15.05,-6.19,-41.62,0.5568000000000001,-0.8150000000000001,-0.0246,-0.1583,-0.036000000000000004,0.076,0.051000000000000004
2025-11-06 18:34:09.367,64.12,0.255,0.182,-0.045,-0.211,-0.98,0.28700000000000003,13.27,-5.5200000000000005,-40.95,0.5563,-0.8152,-0.025,-0.15860000000000002,-0.037,0.065,0.07100000000000001
2025-11-06 18:34:09.367,64.125,0.253,0.22,-0.049,-0.213,-0.968,0.278,13.27,-5.5200000000000005,-40.95,0.5558000000000001,-0.8155,-0.0256,-0.1589,-0.035,0.053,0.08
2025-11-06 18:34:09.367,64.13,0.257,0.25,-0.053,-0.218,-0.9560000000000001,0.27,13.97,-6.28,-40.660000000000004,0.5553,-0.8158000000000001,-0.0261,-0.1593,-0.03,0.041,0.089
2025-11-06 18:34:09.367,64.135,0.263,0.28600000000000003,-0.06,-0.213,-0.9470000000000001,0.261,13.97,-6.28,-40.660000000000004,0.5547000000000001,-0.8160000000000001,-0.0267,-0.1598,-0.035,0.032,0.098
2025-11-06 18:34:09.367,64.14,0.265,0.291,-0.051000000000000004,-0.217,-0.931,0.264,13.97,-6.28,-40.660000000000004,0.5542,-0.8163,-0.0273,-0.1603,-0.032,0.016,0.096
2025-11-06 18:34:09.367,64.145,0.267,0.309,-0.047,-0.219,-0.919,0.267,12.83,-5.84,-40.83,0.5536,-0.8165,-0.028,-0.16090000000000002,-0.03,0.005,0.094
2025-11-06 18:34:09.367,64.15,0.268,0.34600000000000003,-0.039,-0.22,-0.897,0.274,12.83,-5.84,-40.83,0.553,-0.8168000000000001,-0.0286,-0.1615,-0.03,-0.016,0.08700000000000001
2025-11-06 18:34:09.367,64.155,0.271,0.369,-0.031,-0.215,-0.882,0.281,12.89,-5.9,-40.660000000000004,0.5525,-0.8170000000000001,-0.029300000000000003,-0.1622,-0.035,-0.03,0.081
2025-11-06 18:34:09.367,64.16,0.272,0.398,-0.017,-0.214,-0.868,0.293,12.89,-5.9,-40.660000000000004,0.5519000000000001,-0.8172,-0.030000000000000002,-0.16290000000000002,-0.037,-0.043000000000000003,0.069
2025-11-06 18:34:09.367,64.165,0.279,0.43,-0.008,-0.212,-0.854,0.308,12.89,-5.9,-40.660000000000004,0.5512,-0.8174,-0.0307,-0.1638,-0.04,-0.057,0.055
2025-11-06 18:34:09.367,64.17,0.289,0.467,0.002,-0.21,-0.844,0.319,13.120000000000001,-6.92,-40.77,0.5506,-0.8177000000000001,-0.031400000000000004,-0.1647,-0.042,-0.066,0.044
2025-11-06 18:34:09.367,64.175,0.294,0.501,0.016,-0.20600000000000002,-0.837,0.33,13.120000000000001,-6.92,-40.77,0.5499,-0.8179000000000001,-0.0322,-0.16570000000000001,-0.048,-0.073,0.034
2025-11-06 18:34:09.367,64.18,0.301,0.528,0.034,-0.2,-0.8310000000000001,0.34600000000000003,13.0,-5.8100000000000005,-40.19,0.5492,-0.8181,-0.0329,-0.1668,-0.055,-0.077,0.019
2025-11-06 18:34:09.367,64.185,0.309,0.584,0.052000000000000005,-0.197,-0.8280000000000001,0.359,13.0,-5.8100000000000005,-40.19,0.5485,-0.8183,-0.0337,-0.1681,-0.06,-0.079,0.006
2025-11-06 18:34:09.367,64.19,0.316,0.614,0.07,-0.19,-0.8290000000000001,0.371,13.0,-5.8100000000000005,-40.19,0.5477000000000001,-0.8185,-0.0345,-0.1694,-0.068,-0.077,-0.003
2025-11-06 18:34:09.367,64.195,0.322,0.644,0.08700000000000001,-0.178,-0.835,0.381,13.09,-5.87,-40.04,0.5469,-0.8187000000000001,-0.035300000000000005,-0.1708,-0.081,-0.07,-0.013000000000000001
2025-11-06 18:34:09.367,64.2,0.328,0.663,0.10300000000000001,-0.166,-0.844,0.39,13.09,-5.87,-40.04,0.5461,-0.8189000000000001,-0.0361,-0.1723,-0.094,-0.061,-0.021
2025-11-06 18:34:09.367,64.205,0.334,0.674,0.12,-0.151,-0.856,0.398,12.68,-6.0200000000000005,-40.07,0.5453,-0.8191,-0.0369,-0.1738,-0.111,-0.048,-0.028
2025-11-06 18:34:09.367,64.21,0.34600000000000003,0.685,0.14200000000000002,-0.134,-0.881,0.40800000000000003,12.68,-6.0200000000000005,-40.07,0.5444,-0.8193,-0.037700000000000004,-0.1753,-0.129,-0.021,-0.036000000000000004
2025-11-06 18:34:09.367,64.215,0.354,0.678,0.154,-0.126,-0.903,0.41000000000000003,12.68,-6.0200000000000005,-40.07,0.5435,-0.8195,-0.038400000000000004,-0.1769,-0.139,0.001,-0.038
2025-11-06 18:34:09.367,64.22,0.359,0.674,0.164,-0.11900000000000001,-0.929,0.418,12.83,-5.87,-39.54,0.5426,-0.8198000000000001,-0.0391,-0.1784,-0.148,0.027,-0.044
2025-11-06 18:34:09.367,64.225,0.364,0.669,0.171,-0.117,-0.9550000000000001,0.425,12.83,-5.87,-39.54,0.5417000000000001,-0.8200000000000001,-0.0398,-0.18000000000000002,-0.152,0.055,-0.049
2025-11-06 18:34:09.367,64.23,0.37,0.661,0.17500000000000002,-0.117,-0.983,0.43,12.56,-5.75,-38.81,0.5408000000000001,-0.8203,-0.0405,-0.18150000000000002,-0.153,0.084,-0.053
2025-11-06 18:34:09.367,64.235,0.37,0.649,0.177,-0.121,-1.0110000000000001,0.434,12.56,-5.75,-38.81,0.5398000000000001,-0.8205,-0.041100000000000005,-0.183,-0.151,0.113,-0.056
2025-11-06 18:34:09.367,64.24,0.36,0.632,0.17300000000000001,-0.131,-1.048,0.436,12.56,-5.75,-38.81,0.5389,-0.8208000000000001,-0.0417,-0.1845,-0.14200000000000002,0.151,-0.055
2025-11-06 18:34:09.368,64.245,0.34600000000000003,0.617,0.166,-0.14400000000000002,-1.068,0.435,12.13,-5.64,-39.63,0.538,-0.8210000000000001,-0.042300000000000004,-0.186,-0.132,0.17200000000000001,-0.053
2025-11-06 18:34:09.368,64.25,0.33,0.614,0.157,-0.157,-1.082,0.431,12.13,-5.64,-39.63,0.5372,-0.8212,-0.043000000000000003,-0.1874,-0.12,0.186,-0.048
2025-11-06 18:34:09.368,64.255,0.311,0.591,0.137,-0.166,-1.087,0.404,12.07,-5.5200000000000005,-38.550000000000004,0.5364,-0.8213,-0.0436,-0.1887,-0.113,0.192,-0.02
2025-11-06 18:34:09.368,64.26,0.294,0.592,0.136,-0.20800000000000002,-1.09,0.427,12.07,-5.5200000000000005,-38.550000000000004,0.5356000000000001,-0.8215,-0.0442,-0.19010000000000002,-0.07200000000000001,0.196,-0.042
2025-11-06 18:34:09.368,64.265,0.28600000000000003,0.619,0.125,-0.221,-1.083,0.399,12.07,-5.5200000000000005,-38.550000000000004,0.5349,-0.8216,-0.0449,-0.1915,-0.062,0.189,-0.015
2025-11-06 18:34:09.368,64.27,0.269,0.619,0.112,-0.23800000000000002,-1.061,0.384,12.33,-5.75,-37.910000000000004,0.5342,-0.8217,-0.0456,-0.19290000000000002,-0.046,0.167,0.0
2025-11-06 18:34:09.368,64.275,0.255,0.606,0.109,-0.254,-1.042,0.366,12.33,-5.75,-37.910000000000004,0.5335,-0.8218000000000001,-0.0463,-0.1942,-0.032,0.148,0.018000000000000002
2025-11-06 18:34:09.368,64.28,0.241,0.584,0.113,-0.262,-1.016,0.352,11.98,-5.78,-37.53,0.5329,-0.8219000000000001,-0.046900000000000004,-0.1956,-0.026000000000000002,0.122,0.031
2025-11-06 18:34:09.368,64.285,0.23,0.5750000000000001,0.111,-0.269,-0.987,0.339,11.98,-5.78,-37.53,0.5322,-0.8219000000000001,-0.0475,-0.19690000000000002,-0.021,0.094,0.044
2025-11-06 18:34:09.368,64.29,0.222,0.544,0.12,-0.261,-0.961,0.33,11.98,-5.78,-37.53,0.5316000000000001,-0.8220000000000001,-0.048100000000000004,-0.1981,-0.03,0.067,0.053
2025-11-06 18:34:09.368,64.295,0.223,0.517,0.134,-0.264,-0.923,0.331,12.01,-5.93,-37.730000000000004,0.531,-0.8221,-0.048600000000000004,-0.1993,-0.029,0.031,0.051000000000000004
2025-11-06 18:34:09.368,64.3,0.233,0.49,0.14100000000000001,-0.259,-0.902,0.332,12.01,-5.93,-37.730000000000004,0.5304,-0.8221,-0.049,-0.2005,-0.035,0.01,0.05
2025-11-06 18:34:09.368,64.305,0.258,0.446,0.156,-0.256,-0.877,0.343,12.07,-5.7,-37.59,0.5297000000000001,-0.8223,-0.0494,-0.2015,-0.04,-0.013000000000000001,0.038
2025-11-06 18:34:09.368,64.31,0.279,0.405,0.17200000000000001,-0.247,-0.861,0.356,12.07,-5.7,-37.59,0.529,-0.8225,-0.0497,-0.2026,-0.051000000000000004,-0.028,0.026000000000000002
2025-11-06 18:34:09.368,64.315,0.299,0.365,0.184,-0.248,-0.848,0.372,12.07,-5.7,-37.59,0.5282,-0.8228000000000001,-0.0499,-0.20350000000000001,-0.052000000000000005,-0.04,0.01
2025-11-06 18:34:09.368,64.32,0.32,0.341,0.194,-0.247,-0.836,0.389,12.01,-5.61,-36.68,0.5274,-0.8231,-0.050100000000000006,-0.2044,-0.055,-0.051000000000000004,-0.005
2025-11-06 18:34:09.368,64.325,0.333,0.32,0.20400000000000001,-0.242,-0.8190000000000001,0.41200000000000003,12.01,-5.61,-36.68,0.5265000000000001,-0.8234,-0.050300000000000004,-0.2053,-0.062,-0.066,-0.027
2025-11-06 18:34:09.368,64.33,0.343,0.31,0.20800000000000002,-0.243,-0.808,0.427,12.01,-5.61,-36.68,0.5256000000000001,-0.8237,-0.0504,-0.2061,-0.062,-0.076,-0.04
2025-11-06 18:34:09.368,64.335,0.357,0.302,0.21,-0.245,-0.798,0.439,11.66,-6.75,-37.21,0.5247,-0.8241,-0.0505,-0.20700000000000002,-0.061,-0.085,-0.052000000000000005
2025-11-06 18:34:09.368,64.34,0.37,0.299,0.20600000000000002,-0.247,-0.795,0.445,11.66,-6.75,-37.21,0.5238,-0.8245,-0.0507,-0.2078,-0.061,-0.08700000000000001,-0.057
2025-11-06 18:34:09.368,64.345,0.384,0.294,0.203,-0.252,-0.795,0.446,11.75,-6.63,-36.88,0.5228,-0.8249000000000001,-0.050800000000000005,-0.2086,-0.058,-0.08600000000000001,-0.057
2025-11-06 18:34:09.368,64.35,0.401,0.28400000000000003,0.198,-0.257,-0.797,0.444,11.75,-6.63,-36.88,0.5218,-0.8253,-0.051000000000000004,-0.2094,-0.054,-0.083,-0.053
2025-11-06 18:34:09.368,64.355,0.426,0.269,0.193,-0.266,-0.8,0.437,11.75,-6.63,-36.88,0.5208,-0.8257,-0.0511,-0.2101,-0.047,-0.079,-0.044
2025-11-06 18:34:09.368,64.36,0.454,0.244,0.187,-0.274,-0.802,0.431,11.31,-6.84,-36.5,0.5197,-0.8263,-0.051300000000000005,-0.21080000000000002,-0.04,-0.076,-0.037
2025-11-06 18:34:09.368,64.365,0.47500000000000003,0.226,0.183,-0.281,-0.807,0.427,11.31,-6.84,-36.5,0.5185000000000001,-0.8268000000000001,-0.0514,-0.2114,-0.033,-0.07,-0.031
2025-11-06 18:34:09.368,64.37,0.495,0.20500000000000002,0.17500000000000002,-0.28700000000000003,-0.8130000000000001,0.423,11.040000000000001,-5.29,-36.68,0.5174,-0.8274,-0.0516,-0.21200000000000002,-0.029,-0.063,-0.025
2025-11-06 18:34:09.368,64.375,0.511,0.19,0.169,-0.28800000000000003,-0.8200000000000001,0.419,11.040000000000001,-5.29,-36.68,0.5162,-0.8280000000000001,-0.051800000000000006,-0.21250000000000002,-0.029,-0.055,-0.018000000000000002
2025-11-06 18:34:09.368,64.38,0.525,0.179,0.165,-0.291,-0.8280000000000001,0.41500000000000004,11.040000000000001,-5.29,-36.68,0.5149,-0.8286,-0.0519,-0.21300000000000002,-0.027,-0.046,-0.012
2025-11-06 18:34:09.368,64.385,0.536,0.171,0.163,-0.297,-0.838,0.41100000000000003,11.1,-4.79,-35.72,0.5137,-0.8293,-0.0521,-0.21350000000000002,-0.022,-0.034,-0.005
2025-11-06 18:34:09.368,64.39,0.545,0.178,0.165,-0.3,-0.849,0.41100000000000003,11.1,-4.79,-35.72,0.5124000000000001,-0.8299000000000001,-0.0522,-0.21400000000000002,-0.019,-0.022,-0.004
2025-11-06 18:34:09.368,64.395,0.56,0.218,0.167,-0.306,-0.858,0.41100000000000003,11.78,-5.49,-35.39,0.5111,-0.8306,-0.052500000000000005,-0.2146,-0.015,-0.012,-0.001
2025-11-06 18:34:09.368,64.4,0.549,0.222,0.183,-0.312,-0.866,0.419,11.78,-5.49,-35.39,0.5098,-0.8312,-0.052700000000000004,-0.2152,-0.01,-0.002,-0.007
2025-11-06 18:34:09.368,64.405,0.548,0.258,0.198,-0.324,-0.875,0.419,11.78,-5.49,-35.39,0.5084000000000001,-0.8318000000000001,-0.0529,-0.2159,0.0,0.007,-0.004
2025-11-06 18:34:09.368,64.41,0.541,0.28300000000000003,0.222,-0.332,-0.883,0.419,10.58,-5.14,-35.31,0.5071,-0.8324,-0.053000000000000005,-0.2167,0.006,0.017,-0.003
2025-11-06 18:34:09.368,64.415,0.538,0.319,0.252,-0.35100000000000003,-0.891,0.422,10.58,-5.14,-35.31,0.5058,-0.8330000000000001,-0.053200000000000004,-0.21760000000000002,0.024,0.026000000000000002,-0.003
2025-11-06 18:34:09.368,64.42,0.523,0.339,0.28,-0.359,-0.894,0.40800000000000003,10.49,-5.08,-34.4,0.5045000000000001,-0.8335,-0.0533,-0.2185,0.029,0.03,0.012
2025-11-06 18:34:09.368,64.425,0.503,0.355,0.315,-0.396,-0.883,0.436,10.49,-5.08,-34.4,0.5032,-0.8340000000000001,-0.0533,-0.21960000000000002,0.064,0.02,-0.014
2025-11-06 18:34:09.368,64.43,0.499,0.398,0.341,-0.395,-0.885,0.425,10.49,-5.08,-34.4,0.5018,-0.8345,-0.0534,-0.22080000000000002,0.062,0.025,-0.001
2025-11-06 18:34:09.369,64.435,0.49,0.431,0.365,-0.405,-0.881,0.424,9.9,-5.05,-33.76,0.5005000000000001,-0.8350000000000001,-0.0534,-0.222,0.069,0.022,0.0
2025-11-06 18:34:09.369,64.44,0.481,0.46,0.386,-0.41200000000000003,-0.877,0.421,9.9,-5.05,-33.76,0.49920000000000003,-0.8354,-0.0534,-0.22340000000000002,0.073,0.019,0.004
2025-11-06 18:34:09.369,64.445,0.47700000000000004,0.47500000000000003,0.40700000000000003,-0.423,-0.872,0.426,10.02,-4.61,-33.84,0.4979,-0.8358,-0.0534,-0.2248,0.081,0.016,0.001
2025-11-06 18:34:09.369,64.45,0.47300000000000003,0.526,0.423,-0.432,-0.862,0.431,10.02,-4.61,-33.84,0.4965,-0.8362,-0.0534,-0.2263,0.088,0.007,-0.003
2025-11-06 18:34:09.369,64.455,0.47500000000000003,0.549,0.43,-0.439,-0.856,0.433,10.02,-4.61,-33.84,0.49520000000000003,-0.8366,-0.0534,-0.22790000000000002,0.091,0.003,-0.003
2025-11-06 18:34:09.369,64.46,0.47800000000000004,0.5640000000000001,0.435,-0.44,-0.852,0.433,9.61,-4.94,-33.99,0.4938,-0.8369000000000001,-0.0534,-0.2296,0.089,0.001,-0.002
2025-11-06 18:34:09.369,64.465,0.47800000000000004,0.577,0.437,-0.445,-0.848,0.433,9.61,-4.94,-33.99,0.4924,-0.8373,-0.0534,-0.23120000000000002,0.091,0.0,-0.001
2025-11-06 18:34:09.369,64.47,0.484,0.588,0.439,-0.45,-0.843,0.432,9.09,-4.61,-33.84,0.49100000000000005,-0.8376,-0.053500000000000006,-0.23290000000000002,0.094,-0.004,0.0
2025-11-06 18:34:09.369,64.475,0.489,0.596,0.446,-0.459,-0.838,0.434,9.09,-4.61,-33.84,0.48960000000000004,-0.8380000000000001,-0.053500000000000006,-0.2346,0.099,-0.007,0.0
2025-11-06 18:34:09.369,64.48,0.487,0.602,0.446,-0.463,-0.834,0.434,9.09,-4.61,-33.84,0.4882,-0.8383,-0.0536,-0.2364,0.1,-0.009000000000000001,0.0
2025-11-06 18:34:09.369,64.485,0.482,0.605,0.449,-0.47000000000000003,-0.8310000000000001,0.436,9.120000000000001,-5.05,-33.61,0.4868,-0.8386,-0.0536,-0.2381,0.10400000000000001,-0.01,0.0
2025-11-06 18:34:09.369,64.49,0.48,0.614,0.45,-0.47300000000000003,-0.8290000000000001,0.435,9.120000000000001,-5.05,-33.61,0.4854,-0.8389000000000001,-0.053700000000000005,-0.2398,0.10300000000000001,-0.01,0.001
2025-11-06 18:34:09.369,64.495,0.47100000000000003,0.618,0.455,-0.47900000000000004,-0.8270000000000001,0.433,9.0,-4.99,-34.2,0.48400000000000004,-0.8392000000000001,-0.053700000000000005,-0.2416,0.106,-0.011,0.004
2025-11-06 18:34:09.369,64.5,0.464,0.616,0.454,-0.482,-0.8280000000000001,0.428,9.0,-4.99,-34.2,0.4827,-0.8395,-0.053700000000000005,-0.2434,0.106,-0.008,0.01
2025-11-06 18:34:09.369,64.505,0.455,0.62,0.457,-0.489,-0.8280000000000001,0.43,9.0,-4.99,-34.2,0.4813,-0.8398,-0.053700000000000005,-0.2451,0.11,-0.006,0.008
2025-11-06 18:34:09.369,64.51,0.455,0.628,0.459,-0.492,-0.8310000000000001,0.43,8.0,-4.91,-32.97,0.47990000000000005,-0.8400000000000001,-0.0538,-0.2469,0.109,-0.002,0.01
2025-11-06 18:34:09.369,64.515,0.45,0.624,0.457,-0.488,-0.836,0.433,8.0,-4.91,-32.97,0.4786,-0.8403,-0.0538,-0.2487,0.10300000000000001,0.005,0.008
2025-11-06 18:34:09.369,64.52,0.451,0.621,0.456,-0.49,-0.842,0.436,8.24,-4.79,-32.09,0.4772,-0.8405,-0.0538,-0.2505,0.10200000000000001,0.012,0.006
2025-11-06 18:34:09.369,64.525,0.45,0.61,0.454,-0.484,-0.849,0.439,8.24,-4.79,-32.09,0.47590000000000005,-0.8408,-0.0538,-0.25220000000000004,0.092,0.021,0.004
2025-11-06 18:34:09.369,64.53,0.444,0.589,0.451,-0.481,-0.856,0.451,8.24,-4.79,-32.09,0.47450000000000003,-0.8410000000000001,-0.0538,-0.2539,0.08600000000000001,0.03,-0.007
2025-11-06 18:34:09.369,64.535,0.438,0.587,0.445,-0.47300000000000003,-0.865,0.461,7.86,-4.99,-31.8,0.4732,-0.8413,-0.0538,-0.2556,0.075,0.042,-0.015
2025-11-06 18:34:09.369,64.54,0.422,0.586,0.437,-0.463,-0.871,0.461,7.86,-4.99,-31.8,0.47190000000000004,-0.8415,-0.0538,-0.25720000000000004,0.062,0.049,-0.014
2025-11-06 18:34:09.369,64.545,0.397,0.5660000000000001,0.43,-0.449,-0.871,0.463,7.57,-5.55,-31.21,0.4707,-0.8417,-0.0538,-0.25880000000000003,0.045,0.052000000000000005,-0.016
2025-11-06 18:34:09.369,64.55,0.368,0.539,0.42,-0.432,-0.872,0.453,7.57,-5.55,-31.21,0.46950000000000003,-0.8418,-0.0538,-0.2604,0.025,0.054,-0.005
2025-11-06 18:34:09.369,64.555,0.34,0.504,0.41200000000000003,-0.442,-0.87,0.461,7.57,-5.55,-31.21,0.46840000000000004,-0.8420000000000001,-0.053700000000000005,-0.2619,0.032,0.054,-0.012
2025-11-06 18:34:09.370,64.56,0.322,0.512,0.401,-0.426,-0.865,0.456,7.16,-4.91,-31.54,0.46740000000000004,-0.8421000000000001,-0.0536,-0.2634,0.014,0.05,-0.007
2025-11-06 18:34:09.370,64.565,0.291,0.496,0.392,-0.418,-0.857,0.447,7.16,-4.91,-31.54,0.46640000000000004,-0.8422000000000001,-0.053500000000000006,-0.26480000000000004,0.003,0.044,0.001
2025-11-06 18:34:09.370,64.57,0.246,0.468,0.377,-0.40800000000000003,-0.849,0.442,7.16,-4.91,-31.54,0.4656,-0.8422000000000001,-0.0534,-0.2662,-0.008,0.037,0.006
2025-11-06 18:34:09.370,64.575,0.211,0.45,0.37,-0.40700000000000003,-0.842,0.428,8.33,-4.99,-31.16,0.46480000000000005,-0.8423,-0.0533,-0.2675,-0.012,0.031,0.02
2025-11-06 18:34:09.370,64.58,0.17500000000000002,0.419,0.365,-0.41100000000000003,-0.833,0.43,8.33,-4.99,-31.16,0.4641,-0.8422000000000001,-0.0531,-0.26880000000000004,-0.01,0.023,0.018000000000000002
2025-11-06 18:34:09.370,64.585,0.163,0.41500000000000004,0.359,-0.405,-0.8260000000000001,0.426,7.01,-5.64,-30.75,0.4635,-0.8422000000000001,-0.0529,-0.27,-0.019,0.017,0.022
2025-11-06 18:34:09.370,64.59,0.14100000000000001,0.395,0.362,-0.404,-0.8230000000000001,0.418,7.01,-5.64,-30.75,0.46290000000000003,-0.8422000000000001,-0.052700000000000004,-0.2712,-0.022,0.015,0.029
2025-11-06 18:34:09.370,64.595,0.139,0.397,0.363,-0.41500000000000004,-0.8190000000000001,0.422,7.01,-5.64,-30.75,0.4622,-0.8421000000000001,-0.0524,-0.27240000000000003,-0.014,0.012,0.025
2025-11-06 18:34:09.370,64.6,0.133,0.4,0.363,-0.418,-0.8190000000000001,0.42,5.99,-4.91,-30.72,0.4617,-0.8421000000000001,-0.0522,-0.2737,-0.013000000000000001,0.013000000000000001,0.026000000000000002
2025-11-06 18:34:09.370,64.605,0.133,0.41200000000000003,0.368,-0.445,-0.8150000000000001,0.437,5.99,-4.91,-30.72,0.461,-0.8420000000000001,-0.0519,-0.27490000000000003,0.01,0.01,0.009000000000000001
2025-11-06 18:34:09.370,64.615,0.14400000000000002,0.47200000000000003,0.37,-0.47100000000000003,-0.8140000000000001,0.447,6.1000000000000005,-5.0200000000000005,-30.34,0.45980000000000004,-0.8418,-0.0516,-0.2777,0.032,0.011,-0.001
2025-11-06 18:34:09.371,64.62,0.156,0.504,0.368,-0.495,-0.809,0.453,6.1000000000000005,-5.0200000000000005,-30.34,0.4591,-0.8417,-0.051500000000000004,-0.2791,0.052000000000000005,0.007,-0.007
2025-11-06 18:34:09.371,64.625,0.17400000000000002,0.551,0.368,-0.515,-0.804,0.461,5.5200000000000005,-6.13,-29.580000000000002,0.45840000000000003,-0.8416,-0.0514,-0.2807,0.07,0.003,-0.015
2025-11-06 18:34:09.371,64.63,0.184,0.5690000000000001,0.367,-0.54,-0.799,0.46900000000000003,5.5200000000000005,-6.13,-29.580000000000002,0.4576,-0.8415,-0.0514,-0.2822,0.092,0.0,-0.025
2025-11-06 18:34:09.371,64.635,0.196,0.598,0.363,-0.547,-0.794,0.47300000000000003,4.73,-4.79,-30.16,0.45690000000000003,-0.8414,-0.0514,-0.28390000000000004,0.097,-0.003,-0.028
2025-11-06 18:34:09.371,64.64,0.202,0.605,0.36,-0.556,-0.789,0.467,4.73,-4.79,-30.16,0.4561,-0.8412000000000001,-0.0514,-0.28550000000000003,0.10200000000000001,-0.007,-0.024
2025-11-06 18:34:09.371,64.645,0.202,0.591,0.355,-0.559,-0.785,0.461,4.73,-4.79,-30.16,0.45530000000000004,-0.8411000000000001,-0.051500000000000004,-0.2871,0.10300000000000001,-0.01,-0.018000000000000002
2025-11-06 18:34:09.371,64.65,0.20800000000000002,0.5720000000000001,0.353,-0.551,-0.784,0.454,5.78,-5.4,-30.1,0.4545,-0.8410000000000001,-0.051500000000000004,-0.2887,0.092,-0.01,-0.011
2025-11-06 18:34:09.371,64.655,0.216,0.553,0.34800000000000003,-0.541,-0.785,0.446,5.78,-5.4,-30.1,0.45370000000000005,-0.8409000000000001,-0.051500000000000004,-0.2902,0.08,-0.008,-0.004
2025-11-06 18:34:09.371,64.66,0.216,0.53,0.34400000000000003,-0.535,-0.792,0.436,4.58,-5.05,-30.310000000000002,0.4529,-0.8409000000000001,-0.051500000000000004,-0.2916,0.07100000000000001,0.0,0.005
2025-11-06 18:34:09.371,64.665,0.216,0.511,0.341,-0.528,-0.797,0.442,4.58,-5.05,-30.310000000000002,0.4521,-0.8408,-0.051500000000000004,-0.2931,0.062,0.007,0.0
2025-11-06 18:34:09.371,64.67,0.211,0.515,0.338,-0.517,-0.8,0.442,4.58,-5.05,-30.310000000000002,0.45130000000000003,-0.8407,-0.051500000000000004,-0.29450000000000004,0.049,0.01,0.0
2025-11-06 18:34:09.371,64.675,0.197,0.511,0.33,-0.506,-0.801,0.436,4.47,-5.17,-29.52,0.4505,-0.8406,-0.051500000000000004,-0.2959,0.035,0.013000000000000001,0.005
2025-11-06 18:34:09.371,64.68,0.176,0.504,0.321,-0.493,-0.805,0.428,4.47,-5.17,-29.52,0.44980000000000003,-0.8405,-0.051500000000000004,-0.2973,0.02,0.018000000000000002,0.012
2025-11-06 18:34:09.371,64.685,0.14300000000000002,0.466,0.309,-0.482,-0.809,0.42,3.77,-4.88,-29.61,0.44920000000000004,-0.8404,-0.0514,-0.29860000000000003,0.007,0.022,0.02
2025-11-06 18:34:09.371,64.69,0.126,0.451,0.304,-0.484,-0.811,0.433,3.77,-4.88,-29.61,0.44870000000000004,-0.8402000000000001,-0.0514,-0.2998,0.006,0.026000000000000002,0.007
2025-11-06 18:34:09.371,64.695,0.12,0.443,0.299,-0.482,-0.8170000000000001,0.431,3.77,-4.88,-29.61,0.4481,-0.8401000000000001,-0.051300000000000005,-0.30110000000000003,0.003,0.033,0.008
2025-11-06 18:34:09.371,64.7,0.116,0.429,0.294,-0.48,-0.8210000000000001,0.429,3.94,-5.2,-29.84,0.4476,-0.8400000000000001,-0.0512,-0.3023,-0.001,0.038,0.01
2025-11-06 18:34:09.371,64.705,0.109,0.41300000000000003,0.292,-0.47600000000000003,-0.8210000000000001,0.43,3.94,-5.2,-29.84,0.4471,-0.8398,-0.0511,-0.3034,-0.006,0.039,0.008
2025-11-06 18:34:09.371,64.71,0.105,0.399,0.289,-0.47300000000000003,-0.8200000000000001,0.431,3.44,-5.0200000000000005,-30.02,0.4465,-0.8397,-0.051000000000000004,-0.30460000000000004,-0.012,0.039,0.007
2025-11-06 18:34:09.371,64.715,0.098,0.366,0.289,-0.47000000000000003,-0.8150000000000001,0.428,3.44,-5.0200000000000005,-30.02,0.4461,-0.8396,-0.0509,-0.30560000000000004,-0.016,0.035,0.009000000000000001
2025-11-06 18:34:09.371,64.72,0.1,0.35000000000000003,0.293,-0.47200000000000003,-0.807,0.436,3.44,-5.0200000000000005,-30.02,0.4456,-0.8395,-0.0507,-0.30670000000000003,-0.016,0.028,0.001
2025-11-06 18:34:09.371,64.725,0.11,0.34600000000000003,0.296,-0.47200000000000003,-0.796,0.436,3.21,-5.34,-30.13,0.4451,-0.8394,-0.0505,-0.30770000000000003,-0.019,0.017,0.001
2025-11-06 18:34:09.371,64.78,0.191,0.176,0.257,-0.494,-0.685,0.484,2.95,-5.2,-28.47,0.43870000000000003,-0.8394,-0.0485,-0.3169,-0.016,-0.081,-0.05
2025-11-06 18:34:09.371,64.785,0.20800000000000002,0.14200000000000002,0.248,-0.491,-0.6880000000000001,0.48,3.36,-5.46,-29.28,0.438,-0.8396,-0.0482,-0.3174,-0.02,-0.077,-0.045
2025-11-06 18:34:09.371,64.79,0.218,0.106,0.23900000000000002,-0.492,-0.6900000000000001,0.481,3.36,-5.46,-29.28,0.4373,-0.8398,-0.048,-0.3179,-0.021,-0.073,-0.045
2025-11-06 18:34:09.371,64.795,0.233,0.085,0.23,-0.487,-0.6900000000000001,0.47000000000000003,3.36,-5.46,-29.28,0.43660000000000004,-0.8400000000000001,-0.0478,-0.3183,-0.026000000000000002,-0.07200000000000001,-0.034
2025-11-06 18:34:09.371,64.8,0.242,0.049,0.211,-0.484,-0.6910000000000001,0.458,2.39,-5.23,-28.85,0.4359,-0.8403,-0.0476,-0.3186,-0.03,-0.07100000000000001,-0.021
2025-11-06 18:34:09.371,64.805,0.241,0.033,0.2,-0.485,-0.6880000000000001,0.449,2.39,-5.23,-28.85,0.43520000000000003,-0.8405,-0.047400000000000005,-0.31880000000000003,-0.03,-0.073,-0.011
2025-11-06 18:34:09.371,64.81,0.232,0.013000000000000001,0.187,-0.482,-0.681,0.441,2.39,-5.23,-28.85,0.43460000000000004,-0.8408,-0.0472,-0.319,-0.033,-0.079,-0.002
2025-11-06 18:34:09.371,64.815,0.223,0.003,0.177,-0.482,-0.676,0.437,3.09,-5.46,-28.7,0.434,-0.8411000000000001,-0.047,-0.31920000000000004,-0.035,-0.083,0.002
2025-11-06 18:34:09.371,64.82,0.20800000000000002,0.0,0.17300000000000001,-0.48,-0.669,0.434,3.09,-5.46,-28.7,0.4334,-0.8414,-0.0468,-0.31930000000000003,-0.037,-0.089,0.006
2025-11-06 18:34:09.371,64.825,0.197,-0.013000000000000001,0.165,-0.48,-0.661,0.434,3.21,-5.2,-27.71,0.4328,-0.8416,-0.0466,-0.3194,-0.038,-0.096,0.006
2025-11-06 18:34:09.371,64.83,0.189,-0.011,0.169,-0.486,-0.655,0.44,3.21,-5.2,-27.71,0.4323,-0.8419000000000001,-0.046400000000000004,-0.3196,-0.033,-0.10200000000000001,0.0
2025-11-06 18:34:09.371,64.835,0.197,0.0,0.177,-0.482,-0.65,0.442,3.21,-5.2,-27.71,0.43170000000000003,-0.8421000000000001,-0.046200000000000005,-0.31970000000000004,-0.037,-0.106,0.0
2025-11-06 18:34:09.373,64.84,0.193,-0.018000000000000002,0.187,-0.47900000000000004,-0.643,0.451,1.6300000000000001,-5.32,-28.64,0.43110000000000004,-0.8424,-0.0459,-0.31980000000000003,-0.041,-0.111,-0.008
2025-11-06 18:34:09.373,64.845,0.197,-0.03,0.197,-0.47900000000000004,-0.642,0.463,1.6300000000000001,-5.32,-28.64,0.4305,-0.8426,-0.0456,-0.32,-0.041,-0.112,-0.02
2025-11-06 18:34:09.373,64.85,0.216,-0.03,0.213,-0.47600000000000003,-0.64,0.47500000000000003,1.87,-5.17,-27.82,0.4299,-0.8429000000000001,-0.0453,-0.3201,-0.045,-0.112,-0.03
2025-11-06 18:34:09.373,64.855,0.23800000000000002,-0.035,0.222,-0.47600000000000003,-0.641,0.489,1.87,-5.17,-27.82,0.4292,-0.8432000000000001,-0.045000000000000005,-0.32020000000000004,-0.046,-0.11,-0.043000000000000003
2025-11-06 18:34:09.373,64.86,0.261,-0.042,0.228,-0.47700000000000004,-0.643,0.5,1.87,-5.17,-27.82,0.42850000000000005,-0.8436,-0.044700000000000004,-0.32030000000000003,-0.046,-0.106,-0.053
2025-11-06 18:34:09.373,64.865,0.289,-0.05,0.23,-0.47900000000000004,-0.646,0.51,1.92,-5.23,-27.71,0.4277,-0.8440000000000001,-0.0444,-0.3204,-0.045,-0.10200000000000001,-0.062
2025-11-06 18:34:09.373,64.87,0.304,-0.049,0.225,-0.47900000000000004,-0.653,0.507,1.92,-5.23,-27.71,0.4268,-0.8444,-0.0441,-0.3205,-0.046,-0.094,-0.057
2025-11-06 18:34:09.373,64.875,0.31,-0.051000000000000004,0.219,-0.47900000000000004,-0.663,0.499,1.9000000000000001,-4.5600000000000005,-28.03,0.42600000000000005,-0.8448,-0.0438,-0.3206,-0.046,-0.082,-0.048
2025-11-06 18:34:09.373,64.88,0.314,-0.057,0.20700000000000002,-0.47700000000000004,-0.673,0.486,1.9000000000000001,-4.5600000000000005,-28.03,0.42510000000000003,-0.8452000000000001,-0.0436,-0.3206,-0.048,-0.07200000000000001,-0.034
2025-11-06 18:34:09.373,64.885,0.313,-0.065,0.193,-0.47700000000000004,-0.684,0.467,1.9000000000000001,-4.5600000000000005,-28.03,0.4243,-0.8456,-0.043300000000000005,-0.3206,-0.049,-0.06,-0.012
2025-11-06 18:34:09.373,64.89,0.306,-0.083,0.17400000000000002,-0.481,-0.6940000000000001,0.453,1.81,-4.96,-27.82,0.42350000000000004,-0.8461000000000001,-0.0431,-0.3206,-0.046,-0.049,0.002
2025-11-06 18:34:09.373,64.895,0.297,-0.096,0.154,-0.483,-0.7020000000000001,0.443,1.81,-4.96,-27.82,0.4227,-0.8465,-0.043000000000000003,-0.3205,-0.044,-0.041,0.013000000000000001
2025-11-06 18:34:09.373,64.9,0.28400000000000003,-0.112,0.137,-0.49,-0.706,0.437,1.75,-4.99,-27.330000000000002,0.42200000000000004,-0.8469,-0.042800000000000005,-0.3204,-0.037,-0.035,0.021
2025-11-06 18:34:09.373,64.905,0.271,-0.129,0.123,-0.497,-0.709,0.433,1.75,-4.99,-27.330000000000002,0.4214,-0.8473,-0.0426,-0.32020000000000004,-0.03,-0.032,0.026000000000000002
2025-11-06 18:34:09.373,64.91,0.246,-0.156,0.109,-0.505,-0.711,0.426,1.75,-4.99,-27.330000000000002,0.4208,-0.8477,-0.0424,-0.3199,-0.022,-0.029,0.034
2025-11-06 18:34:09.373,64.915,0.226,-0.165,0.10200000000000001,-0.53,-0.707,0.443,0.96,-4.12,-27.3,0.4202,-0.8481000000000001,-0.0422,-0.31970000000000004,0.002,-0.032,0.019
2025-11-06 18:34:09.373,64.92,0.214,-0.151,0.098,-0.533,-0.711,0.451,0.96,-4.12,-27.3,0.4197,-0.8485,-0.042,-0.3194,0.005,-0.028,0.012
2025-11-06 18:34:09.373,64.925,0.192,-0.169,0.109,-0.539,-0.709,0.455,1.11,-4.38,-27.650000000000002,0.4192,-0.8488,-0.041800000000000004,-0.31920000000000004,0.01,-0.028,0.009000000000000001
2025-11-06 18:34:09.373,64.93,0.183,-0.185,0.11800000000000001,-0.554,-0.709,0.467,1.11,-4.38,-27.650000000000002,0.4187,-0.8492000000000001,-0.0415,-0.3189,0.026000000000000002,-0.027,-0.001
2025-11-06 18:34:09.373,64.935,0.181,-0.151,0.131,-0.5680000000000001,-0.706,0.492,1.11,-4.38,-27.650000000000002,0.4182,-0.8495,-0.0412,-0.31870000000000004,0.04,-0.029,-0.024
2025-11-06 18:34:09.373,64.94,0.185,-0.129,0.14100000000000001,-0.5720000000000001,-0.712,0.495,1.37,-4.88,-27.740000000000002,0.4177,-0.8498,-0.0409,-0.3185,0.043000000000000003,-0.023,-0.026000000000000002
2025-11-06 18:34:09.373,64.945,0.187,-0.12,0.158,-0.588,-0.712,0.508,1.37,-4.88,-27.740000000000002,0.4172,-0.8502000000000001,-0.040600000000000004,-0.3184,0.059000000000000004,-0.022,-0.038
2025-11-06 18:34:09.373,64.95,0.201,-0.099,0.168,-0.59,-0.718,0.512,2.36,-4.53,-26.54,0.4166,-0.8505,-0.0403,-0.3183,0.061,-0.015,-0.042
2025-11-06 18:34:09.373,64.955,0.214,-0.084,0.17200000000000001,-0.599,-0.72,0.517,2.36,-4.53,-26.54,0.41600000000000004,-0.8508,-0.04,-0.3183,0.07,-0.012,-0.046
2025-11-06 18:34:09.373,64.96,0.232,-0.063,0.167,-0.609,-0.722,0.52,2.36,-4.53,-26.54,0.41540000000000005,-0.8511000000000001,-0.0398,-0.3183,0.079,-0.009000000000000001,-0.048
2025-11-06 18:34:09.373,64.965,0.252,-0.036000000000000004,0.164,-0.613,-0.724,0.517,1.08,-4.38,-27.060000000000002,0.4147,-0.8514,-0.0396,-0.3184,0.082,-0.006,-0.043000000000000003
2025-11-06 18:34:09.373,64.97,0.263,-0.027,0.153,-0.615,-0.722,0.51,1.08,-4.38,-27.060000000000002,0.41400000000000003,-0.8518,-0.039400000000000004,-0.3184,0.083,-0.007,-0.035
2025-11-06 18:34:09.373,64.975,0.266,-0.021,0.14,-0.616,-0.718,0.498,1.25,-3.85,-26.48,0.4133,-0.8521000000000001,-0.0393,-0.3185,0.085,-0.011,-0.023
2025-11-06 18:34:09.373,64.98,0.27,-0.012,0.125,-0.608,-0.714,0.486,1.25,-3.85,-26.48,0.4126,-0.8524,-0.0393,-0.3186,0.076,-0.014,-0.01
2025-11-06 18:34:09.373,64.985,0.263,-0.019,0.112,-0.599,-0.714,0.48,1.25,-3.85,-26.48,0.41190000000000004,-0.8527,-0.0392,-0.3186,0.066,-0.012,-0.002
2025-11-06 18:34:09.373,64.99,0.255,-0.022,0.10400000000000001,-0.587,-0.713,0.47500000000000003,0.9,-3.94,-26.98,0.4113,-0.8530000000000001,-0.0392,-0.3186,0.054,-0.012,0.003
2025-11-06 18:34:09.373,64.995,0.242,-0.033,0.097,-0.5730000000000001,-0.716,0.46900000000000003,0.9,-3.94,-26.98,0.4107,-0.8533000000000001,-0.0391,-0.31870000000000004,0.04,-0.009000000000000001,0.01
2025-11-06 18:34:09.374,65.0,0.229,-0.049,0.093,-0.5630000000000001,-0.719,0.465,0.84,-3.77,-26.92,0.4101,-0.8536,-0.039,-0.3186,0.03,-0.005,0.015
2025-11-06 18:34:09.374,65.005,0.209,-0.07200000000000001,0.094,-0.549,-0.724,0.463,0.84,-3.77,-26.92,0.4096,-0.8539,-0.038900000000000004,-0.3186,0.016,0.0,0.018000000000000002
2025-11-06 18:34:09.374,65.01,0.202,-0.101,0.099,-0.536,-0.728,0.465,0.84,-3.77,-26.92,0.4091,-0.8542000000000001,-0.0388,-0.3184,0.002,0.004,0.018000000000000002
2025-11-06 18:34:09.374,65.015,0.192,-0.124,0.10300000000000001,-0.525,-0.73,0.468,1.19,-3.88,-26.6,0.4086,-0.8545,-0.0386,-0.31820000000000004,-0.008,0.007,0.015
2025-11-06 18:34:09.374,65.02,0.181,-0.165,0.113,-0.515,-0.732,0.47100000000000003,1.19,-3.88,-26.6,0.4081,-0.8548,-0.0383,-0.318,-0.017,0.01,0.013000000000000001
2025-11-06 18:34:09.374,65.025,0.171,-0.20600000000000002,0.11900000000000001,-0.501,-0.734,0.47900000000000004,1.28,-3.97,-26.6,0.4077,-0.8552000000000001,-0.038,-0.3176,-0.031,0.013000000000000001,0.007
2025-11-06 18:34:09.374,65.03,0.16,-0.256,0.125,-0.489,-0.736,0.484,1.28,-3.97,-26.6,0.4073,-0.8555,-0.0376,-0.31720000000000004,-0.043000000000000003,0.016,0.003
2025-11-06 18:34:09.374,65.035,0.145,-0.328,0.129,-0.47300000000000003,-0.743,0.492,1.28,-3.97,-26.6,0.40690000000000004,-0.8560000000000001,-0.037200000000000004,-0.3166,-0.058,0.024,-0.002
2025-11-06 18:34:09.374,65.04,0.131,-0.373,0.127,-0.46900000000000003,-0.747,0.499,1.4000000000000001,-3.8200000000000003,-27.150000000000002,0.4066,-0.8564,-0.0366,-0.3159,-0.063,0.029,-0.007
2025-11-06 18:34:09.374,65.045,0.11900000000000001,-0.41200000000000003,0.122,-0.464,-0.753,0.5,1.4000000000000001,-3.8200000000000003,-27.150000000000002,0.4063,-0.8569,-0.0361,-0.3151,-0.066,0.035,-0.007
2025-11-06 18:34:09.374,65.05,0.111,-0.449,0.114,-0.46,-0.758,0.505,1.4000000000000001,-3.8200000000000003,-27.150000000000002,0.406,-0.8573000000000001,-0.035500000000000004,-0.31420000000000003,-0.07,0.041,-0.01
2025-11-06 18:34:09.374,65.055,0.10300000000000001,-0.491,0.10400000000000001,-0.457,-0.757,0.505,1.54,-4.96,-26.86,0.4058,-0.8578,-0.0349,-0.31320000000000003,-0.073,0.041,-0.009000000000000001
2025-11-06 18:34:09.376,65.06,0.091,-0.517,0.089,-0.452,-0.76,0.509,1.54,-4.96,-26.86,0.4056,-0.8583000000000001,-0.034300000000000004,-0.3121,-0.076,0.044,-0.011
2025-11-06 18:34:09.376,65.065,0.075,-0.54,0.064,-0.448,-0.761,0.509,1.37,-4.0,-26.89,0.40540000000000004,-0.8588,-0.0337,-0.311,-0.079,0.045,-0.01
2025-11-06 18:34:09.376,65.07,0.067,-0.548,0.046,-0.451,-0.759,0.509,1.37,-4.0,-26.89,0.4053,-0.8593000000000001,-0.033100000000000004,-0.3098,-0.075,0.044,-0.008
2025-11-06 18:34:09.376,65.075,0.065,-0.548,0.025,-0.458,-0.756,0.509,1.37,-4.0,-26.89,0.4052,-0.8598,-0.032600000000000004,-0.30870000000000003,-0.066,0.041,-0.007
2025-11-06 18:34:09.376,65.08,0.068,-0.541,0.004,-0.47100000000000003,-0.752,0.508,1.57,-4.18,-26.57,0.4051,-0.8603000000000001,-0.032100000000000004,-0.3075,-0.052000000000000005,0.037,-0.004
2025-11-06 18:34:09.376,65.085,0.07200000000000001,-0.534,-0.013000000000000001,-0.485,-0.746,0.507,1.57,-4.18,-26.57,0.405,-0.8608,-0.0317,-0.3063,-0.037,0.03,-0.002
2025-11-06 18:34:09.376,65.09,0.079,-0.503,-0.034,-0.507,-0.736,0.495,1.1400000000000001,-3.5300000000000002,-26.740000000000002,0.405,-0.8612000000000001,-0.031400000000000004,-0.3052,-0.013000000000000001,0.02,0.011
2025-11-06 18:34:09.376,65.095,0.073,-0.488,-0.036000000000000004,-0.527,-0.73,0.496,1.1400000000000001,-3.5300000000000002,-26.740000000000002,0.40490000000000004,-0.8617,-0.031,-0.30410000000000004,0.006,0.014,0.011
2025-11-06 18:34:09.376,65.1,0.057,-0.458,-0.026000000000000002,-0.561,-0.718,0.503,1.1400000000000001,-3.5300000000000002,-26.740000000000002,0.4048,-0.8621000000000001,-0.0307,-0.30310000000000004,0.042,0.003,0.005
2025-11-06 18:34:09.376,65.105,0.062,-0.41600000000000004,-0.016,-0.581,-0.719,0.504,1.98,-3.8200000000000003,-26.89,0.4047,-0.8624,-0.0304,-0.3022,0.062,0.003,0.006
2025-11-06 18:34:09.376,65.11,0.056,-0.383,-0.001,-0.6,-0.722,0.506,1.98,-3.8200000000000003,-26.89,0.4046,-0.8628,-0.030100000000000002,-0.3013,0.082,0.006,0.004
2025-11-06 18:34:09.376,65.115,0.043000000000000003,-0.343,0.014,-0.619,-0.728,0.512,1.6,-3.74,-26.740000000000002,0.4046,-0.8631000000000001,-0.0297,-0.30060000000000003,0.10300000000000001,0.012,0.0
2025-11-06 18:34:09.376,65.12,0.039,-0.295,0.035,-0.646,-0.733,0.519,1.6,-3.74,-26.740000000000002,0.4045,-0.8633000000000001,-0.029400000000000003,-0.3,0.13,0.017,-0.005
2025-11-06 18:34:09.376,65.125,0.033,-0.232,0.051000000000000004,-0.665,-0.733,0.524,1.6,-3.74,-26.740000000000002,0.40440000000000004,-0.8636,-0.0291,-0.2995,0.15,0.018000000000000002,-0.01
2025-11-06 18:34:09.376,65.13,0.016,-0.138,0.069,-0.683,-0.731,0.526,1.84,-3.91,-27.09,0.4043,-0.8637,-0.028800000000000003,-0.2993,0.168,0.016,-0.011
2025-11-06 18:34:09.376,65.135,-0.008,-0.085,0.081,-0.6930000000000001,-0.728,0.526,1.84,-3.91,-27.09,0.4043,-0.8637,-0.0285,-0.2992,0.178,0.013000000000000001,-0.012
2025-11-06 18:34:09.376,65.14,-0.025,-0.028,0.08700000000000001,-0.6970000000000001,-0.727,0.523,1.75,-3.74,-27.03,0.4043,-0.8637,-0.028300000000000002,-0.2992,0.181,0.012,-0.008
2025-11-06 18:34:09.376,65.145,-0.042,0.013000000000000001,0.091,-0.6890000000000001,-0.727,0.516,1.75,-3.74,-27.03,0.4043,-0.8637,-0.0281,-0.2994,0.17300000000000001,0.012,-0.001
2025-11-06 18:34:09.376,65.15,-0.069,0.035,0.098,-0.683,-0.725,0.525,1.75,-3.74,-27.03,0.40440000000000004,-0.8636,-0.0279,-0.2995,0.167,0.01,-0.011
2025-11-06 18:34:09.376,65.155,-0.065,0.107,0.101,-0.669,-0.717,0.519,2.04,-3.88,-27.36,0.40440000000000004,-0.8635,-0.027700000000000002,-0.2999,0.152,0.003,-0.005
2025-11-06 18:34:09.376,65.16,-0.055,0.135,0.099,-0.655,-0.714,0.511,2.04,-3.88,-27.36,0.4045,-0.8633000000000001,-0.027600000000000003,-0.3003,0.137,0.0,0.001
2025-11-06 18:34:09.376,65.165,-0.039,0.154,0.09,-0.64,-0.706,0.5,2.04,-3.97,-27.03,0.4045,-0.8632000000000001,-0.0275,-0.3007,0.122,-0.008,0.011
2025-11-06 18:34:09.376,65.17,-0.028,0.157,0.078,-0.628,-0.6990000000000001,0.489,2.04,-3.97,-27.03,0.4045,-0.863,-0.0274,-0.30110000000000003,0.109,-0.015,0.021
2025-11-06 18:34:09.376,65.175,-0.02,0.151,0.063,-0.618,-0.6920000000000001,0.47900000000000004,2.04,-3.97,-27.03,0.40440000000000004,-0.8629,-0.0274,-0.3015,0.098,-0.021,0.031
2025-11-06 18:34:09.376,65.18,-0.015,0.133,0.042,-0.609,-0.682,0.453,1.72,-3.94,-26.92,0.40440000000000004,-0.8628,-0.0274,-0.302,0.089,-0.032,0.056
2025-11-06 18:34:09.376,65.185,-0.011,0.116,0.022,-0.607,-0.674,0.436,1.72,-3.94,-26.92,0.40440000000000004,-0.8627,-0.0274,-0.3023,0.08600000000000001,-0.04,0.073
2025-11-06 18:34:09.376,65.19,-0.016,0.092,0.004,-0.605,-0.67,0.424,1.49,-3.44,-27.09,0.40440000000000004,-0.8626,-0.0275,-0.3025,0.084,-0.044,0.084
2025-11-06 18:34:09.376,65.195,-0.023,0.06,-0.011,-0.608,-0.667,0.418,1.49,-3.44,-27.09,0.4045,-0.8625,-0.0275,-0.30260000000000004,0.08700000000000001,-0.047,0.09
2025-11-06 18:34:09.377,65.2,-0.037,0.016,-0.028,-0.609,-0.663,0.419,1.49,-3.44,-27.09,0.4046,-0.8624,-0.027600000000000003,-0.3027,0.088,-0.051000000000000004,0.089
2025-11-06 18:34:09.377,65.205,-0.042,-0.038,-0.041,-0.609,-0.659,0.425,1.98,-3.8000000000000003,-26.19,0.4047,-0.8624,-0.027600000000000003,-0.30260000000000004,0.088,-0.056,0.083
2025-11-06 18:34:09.377,65.21,-0.039,-0.113,-0.054,-0.603,-0.651,0.442,1.98,-3.8000000000000003,-26.19,0.40490000000000004,-0.8624,-0.027600000000000003,-0.3023,0.082,-0.063,0.065
2025-11-06 18:34:09.377,65.215,-0.023,-0.193,-0.064,-0.598,-0.649,0.461,1.69,-4.03,-26.92,0.405,-0.8625,-0.0275,-0.3018,0.077,-0.065,0.047
2025-11-06 18:34:09.377,65.22,-0.011,-0.254,-0.067,-0.588,-0.648,0.485,1.69,-4.03,-26.92,0.4051,-0.8627,-0.0274,-0.3012,0.068,-0.066,0.024
2025-11-06 18:34:09.377,65.225,-0.001,-0.32,-0.069,-0.581,-0.65,0.512,1.69,-4.03,-26.92,0.4051,-0.8629,-0.027200000000000002,-0.3005,0.062,-0.064,-0.002
2025-11-06 18:34:09.377,65.23,0.013000000000000001,-0.389,-0.064,-0.5730000000000001,-0.665,0.536,2.5100000000000002,-4.2,-26.62,0.4052,-0.8632000000000001,-0.027,-0.29960000000000003,0.055,-0.048,-0.024
2025-11-06 18:34:09.377,65.235,0.033,-0.444,-0.05,-0.5680000000000001,-0.684,0.559,2.5100000000000002,-4.2,-26.62,0.4052,-0.8636,-0.0267,-0.29860000000000003,0.051000000000000004,-0.029,-0.046
2025-11-06 18:34:09.377,65.24,0.044,-0.46900000000000003,-0.016,-0.5640000000000001,-0.709,0.581,1.84,-3.77,-26.68,0.4051,-0.864,-0.0263,-0.29760000000000003,0.049,-0.003,-0.066
2025-11-06 18:34:09.377,65.245,0.055,-0.484,0.011,-0.56,-0.727,0.595,1.84,-3.77,-26.68,0.405,-0.8644000000000001,-0.0258,-0.29650000000000004,0.047,0.014,-0.078
2025-11-06 18:34:09.377,65.25,0.046,-0.462,0.03,-0.559,-0.743,0.592,1.84,-3.77,-26.68,0.40490000000000004,-0.8648,-0.025400000000000002,-0.29560000000000003,0.047,0.03,-0.074
2025-11-06 18:34:09.377,65.255,0.041,-0.424,0.046,-0.553,-0.754,0.59,1.87,-3.59,-27.060000000000002,0.40490000000000004,-0.8651000000000001,-0.024900000000000002,-0.2947,0.041,0.041,-0.07
2025-11-06 18:34:09.377,65.26,0.039,-0.391,0.059000000000000004,-0.549,-0.76,0.583,1.87,-3.59,-27.060000000000002,0.4048,-0.8655,-0.0244,-0.2939,0.038,0.047,-0.062
2025-11-06 18:34:09.377,65.265,0.057,-0.366,0.075,-0.544,-0.767,0.58,2.45,-3.47,-26.71,0.4046,-0.8658,-0.0239,-0.2932,0.034,0.055,-0.057
2025-11-06 18:34:09.377,65.27,0.079,-0.331,0.08700000000000001,-0.533,-0.763,0.578,2.45,-3.47,-26.71,0.40440000000000004,-0.8661000000000001,-0.0235,-0.29250000000000004,0.024,0.051000000000000004,-0.054
2025-11-06 18:34:09.377,65.275,0.083,-0.298,0.095,-0.524,-0.762,0.5730000000000001,2.45,-3.47,-26.71,0.4042,-0.8664000000000001,-0.023,-0.29200000000000004,0.016,0.051000000000000004,-0.049
2025-11-06 18:34:09.377,65.28,0.069,-0.273,0.096,-0.514,-0.754,0.5730000000000001,2.42,-4.53,-27.03,0.404,-0.8667,-0.022600000000000002,-0.29150000000000004,0.006,0.043000000000000003,-0.047
2025-11-06 18:34:09.377,65.285,0.042,-0.244,0.095,-0.499,-0.745,0.5680000000000001,2.42,-4.53,-27.03,0.4038,-0.8669,-0.0222,-0.29100000000000004,-0.008,0.035,-0.042
2025-11-06 18:34:09.377,65.29,0.012,-0.224,0.08700000000000001,-0.481,-0.739,0.559,2.22,-4.53,-26.8,0.4037,-0.8671000000000001,-0.0218,-0.2906,-0.026000000000000002,0.029,-0.033
2025-11-06 18:34:09.378,65.295,-0.017,-0.20400000000000001,0.077,-0.46,-0.735,0.54,2.22,-4.12,-26.8,0.4037,-0.8673000000000001,-0.021400000000000002,-0.2902,-0.046,0.024,-0.013000000000000001
2025-11-06 18:34:09.378,65.3,-0.052000000000000005,-0.20400000000000001,0.057,-0.426,-0.724,0.522,2.22,-4.12,-26.8,0.4038,-0.8674000000000001,-0.0211,-0.2898,-0.08,0.014,0.004
2025-11-06 18:34:09.378,65.305,-0.07,-0.20400000000000001,0.046,-0.41000000000000003,-0.724,0.507,2.0100000000000002,-4.15,-26.39,0.404,-0.8674000000000001,-0.0207,-0.2894,-0.095,0.013000000000000001,0.02
2025-11-06 18:34:09.378,65.31,-0.084,-0.226,0.035,-0.392,-0.718,0.496,2.0100000000000002,-4.15,-26.39,0.4042,-0.8675,-0.0204,-0.28900000000000003,-0.113,0.008,0.031
2025-11-06 18:34:09.378,65.315,-0.08600000000000001,-0.26,0.03,-0.376,-0.715,0.493,2.0100000000000002,-4.15,-26.39,0.40440000000000004,-0.8676,-0.02,-0.2884,-0.129,0.004,0.034
2025-11-06 18:34:09.378,65.32,-0.08600000000000001,-0.297,0.024,-0.361,-0.708,0.498,1.81,-3.71,-26.45,0.4046,-0.8677,-0.0196,-0.2878,-0.14200000000000002,-0.001,0.029
2025-11-06 18:34:09.378,65.325,-0.084,-0.34400000000000003,0.021,-0.34900000000000003,-0.7020000000000001,0.51,1.81,-3.71,-26.45,0.4048,-0.8679,-0.019200000000000002,-0.2871,-0.154,-0.008,0.017
2025-11-06 18:34:09.378,65.33,-0.095,-0.41100000000000003,0.016,-0.34500000000000003,-0.6910000000000001,0.522,1.98,-4.53,-26.54,0.405,-0.8681000000000001,-0.0187,-0.2862,-0.158,-0.019,0.006
2025-11-06 18:34:09.378,65.335,-0.10400000000000001,-0.442,0.008,-0.34900000000000003,-0.681,0.528,1.98,-4.53,-26.54,0.4052,-0.8683000000000001,-0.0181,-0.2853,-0.152,-0.029,0.0
2025-11-06 18:34:09.378,65.34,-0.111,-0.455,0.0,-0.355,-0.67,0.533,1.98,-4.53,-26.54,0.4055,-0.8685,-0.0176,-0.2843,-0.146,-0.04,-0.004
2025-11-06 18:34:09.378,65.345,-0.116,-0.454,-0.011,-0.366,-0.658,0.538,2.07,-3.71,-26.650000000000002,0.4058,-0.8687,-0.0171,-0.2833,-0.133,-0.052000000000000005,-0.008
2025-11-06 18:34:09.378,65.35,-0.11900000000000001,-0.438,-0.025,-0.382,-0.648,0.546,2.07,-3.71,-26.650000000000002,0.4061,-0.8689,-0.0167,-0.2823,-0.116,-0.063,-0.016
2025-11-06 18:34:09.378,65.355,-0.121,-0.417,-0.038,-0.404,-0.637,0.55,2.54,-4.38,-27.03,0.40650000000000003,-0.869,-0.016300000000000002,-0.28140000000000004,-0.093,-0.075,-0.019
2025-11-06 18:34:09.378,65.36,-0.122,-0.388,-0.05,-0.418,-0.625,0.55,2.54,-4.38,-27.03,0.4068,-0.8691000000000001,-0.0159,-0.2805,-0.078,-0.08700000000000001,-0.019
2025-11-06 18:34:09.378,65.365,-0.122,-0.342,-0.064,-0.436,-0.61,0.546,2.54,-4.38,-27.03,0.4071,-0.8693000000000001,-0.015600000000000001,-0.2797,-0.059000000000000004,-0.10200000000000001,-0.016
2025-11-06 18:34:09.378,65.37,-0.121,-0.306,-0.07100000000000001,-0.442,-0.595,0.538,1.95,-3.77,-27.44,0.40750000000000003,-0.8693000000000001,-0.0154,-0.279,-0.052000000000000005,-0.11900000000000001,-0.007
2025-11-06 18:34:09.378,65.375,-0.117,-0.261,-0.074,-0.451,-0.581,0.529,1.95,-3.77,-27.44,0.4078,-0.8694000000000001,-0.0152,-0.27840000000000004,-0.042,-0.134,0.001
2025-11-06 18:34:09.378,65.38,-0.108,-0.218,-0.077,-0.463,-0.5660000000000001,0.519,2.45,-3.5,-27.3,0.4081,-0.8694000000000001,-0.0151,-0.2778,-0.03,-0.149,0.01
2025-11-06 18:34:09.378,65.385,-0.08600000000000001,-0.168,-0.082,-0.485,-0.553,0.505,2.45,-3.5,-27.3,0.40840000000000004,-0.8694000000000001,-0.0151,-0.27740000000000004,-0.007,-0.163,0.024
2025-11-06 18:34:09.378,65.39,-0.059000000000000004,-0.126,-0.08600000000000001,-0.505,-0.544,0.498,2.45,-3.5,-27.3,0.4086,-0.8695,-0.0151,-0.277,0.013000000000000001,-0.17300000000000001,0.031
2025-11-06 18:34:09.378,65.395,-0.01,-0.069,-0.089,-0.53,-0.537,0.494,2.54,-3.97,-27.97,0.4087,-0.8695,-0.0152,-0.2768,0.038,-0.18,0.035
2025-11-06 18:34:09.378,65.4,0.018000000000000002,-0.038,-0.091,-0.546,-0.533,0.495,2.54,-3.97,-27.97,0.4087,-0.8695,-0.0154,-0.2766,0.054,-0.184,0.034
2025-11-06 18:34:09.378,65.405,0.046,-0.008,-0.091,-0.559,-0.531,0.5,2.54,-3.74,-27.85,0.4086,-0.8696,-0.015600000000000001,-0.2765,0.068,-0.186,0.029
2025-11-06 18:34:09.378,65.41,0.067,0.025,-0.089,-0.5660000000000001,-0.527,0.507,2.54,-3.74,-27.85,0.4086,-0.8696,-0.0159,-0.2765,0.075,-0.19,0.022
2025-11-06 18:34:09.378,65.415,0.09,0.054,-0.08700000000000001,-0.5690000000000001,-0.525,0.517,2.54,-3.74,-27.85,0.40840000000000004,-0.8697,-0.0162,-0.2765,0.078,-0.192,0.012
2025-11-06 18:34:09.378,65.42,0.11,0.092,-0.08700000000000001,-0.5680000000000001,-0.52,0.521,2.33,-4.23,-28.26,0.4082,-0.8697,-0.0165,-0.2766,0.077,-0.197,0.008
2025-11-06 18:34:09.378,65.425,0.123,0.11,-0.089,-0.5640000000000001,-0.519,0.524,2.33,-4.23,-28.26,0.40800000000000003,-0.8698,-0.016900000000000002,-0.2767,0.073,-0.197,0.005
2025-11-06 18:34:09.378,65.43,0.126,0.111,-0.099,-0.558,-0.519,0.526,2.71,-4.0600000000000005,-27.68,0.4078,-0.8698,-0.017400000000000002,-0.27690000000000003,0.067,-0.197,0.004
2025-11-06 18:34:09.380,65.435,0.13,0.106,-0.112,-0.553,-0.519,0.527,2.71,-4.0600000000000005,-27.68,0.4076,-0.8699,-0.0178,-0.277,0.062,-0.197,0.003
2025-11-06 18:34:09.380,65.44,0.126,0.092,-0.131,-0.543,-0.52,0.523,2.71,-4.0600000000000005,-27.68,0.40740000000000004,-0.8699,-0.0183,-0.2771,0.052000000000000005,-0.196,0.007
2025-11-06 18:34:09.380,65.445,0.11800000000000001,0.06,-0.152,-0.522,-0.526,0.525,2.86,-4.18,-26.89,0.4072,-0.87,-0.0187,-0.277,0.032,-0.19,0.005
2025-11-06 18:34:09.380,65.45,0.106,0.012,-0.17,-0.502,-0.54,0.535,2.86,-4.18,-26.89,0.4071,-0.8701000000000001,-0.019200000000000002,-0.27690000000000003,0.012,-0.176,-0.003
2025-11-06 18:34:09.380,65.455,0.105,-0.022,-0.176,-0.481,-0.553,0.546,2.63,-3.77,-27.76,0.40700000000000003,-0.8702000000000001,-0.0196,-0.2767,-0.006,-0.163,-0.013000000000000001
2025-11-06 18:34:09.380,65.46,0.10400000000000001,-0.058,-0.184,-0.46,-0.5640000000000001,0.555,2.63,-3.77,-27.76,0.40690000000000004,-0.8704000000000001,-0.0201,-0.27640000000000003,-0.026000000000000002,-0.151,-0.021
2025-11-06 18:34:09.380,65.465,0.10300000000000001,-0.091,-0.188,-0.44,-0.5710000000000001,0.561,2.63,-3.77,-27.76,0.4068,-0.8705,-0.0205,-0.276,-0.046,-0.145,-0.026000000000000002
2025-11-06 18:34:09.380,65.47,0.111,-0.11800000000000001,-0.191,-0.423,-0.5740000000000001,0.561,3.5,-3.71,-27.47,0.4067,-0.8707,-0.020900000000000002,-0.2755,-0.062,-0.14100000000000001,-0.025
2025-11-06 18:34:09.380,65.475,0.13,-0.155,-0.201,-0.392,-0.577,0.552,3.5,-3.71,-27.47,0.40650000000000003,-0.8709,-0.0212,-0.275,-0.092,-0.139,-0.016
2025-11-06 18:34:09.380,65.48,0.158,-0.192,-0.212,-0.377,-0.577,0.548,3.09,-3.68,-27.560000000000002,0.4063,-0.8712000000000001,-0.0216,-0.2743,-0.105,-0.139,-0.011
2025-11-06 18:34:09.380,65.485,0.189,-0.223,-0.223,-0.362,-0.577,0.546,3.09,-3.68,-27.560000000000002,0.4061,-0.8715,-0.022000000000000002,-0.2736,-0.11900000000000001,-0.138,-0.007
2025-11-06 18:34:09.380,65.49,0.23,-0.259,-0.23500000000000001,-0.34900000000000003,-0.577,0.547,3.09,-3.68,-27.560000000000002,0.4057,-0.8719,-0.022500000000000003,-0.2728,-0.131,-0.138,-0.007
2025-11-06 18:34:09.380,65.495,0.271,-0.296,-0.253,-0.338,-0.577,0.545,4.09,-3.74,-27.59,0.4053,-0.8724000000000001,-0.0229,-0.27190000000000003,-0.139,-0.138,-0.004
2025-11-06 18:34:09.380,65.5,0.309,-0.334,-0.272,-0.332,-0.579,0.548,4.09,-3.74,-27.59,0.40490000000000004,-0.8729,-0.0234,-0.27090000000000003,-0.14400000000000002,-0.136,-0.004
2025-11-06 18:34:09.380,65.505,0.336,-0.359,-0.298,-0.329,-0.584,0.557,4.09,-3.74,-27.59,0.4043,-0.8735,-0.024,-0.26980000000000004,-0.145,-0.131,-0.012
2025-11-06 18:34:09.380,65.51,0.381,-0.404,-0.328,-0.337,-0.594,0.561,3.8000000000000003,-3.68,-27.03,0.4037,-0.8741,-0.0246,-0.2686,-0.134,-0.12,-0.013000000000000001
2025-11-06 18:34:09.380,65.515,0.392,-0.433,-0.35000000000000003,-0.34600000000000003,-0.606,0.5670000000000001,3.8000000000000003,-3.68,-27.03,0.4031,-0.8748,-0.0252,-0.2672,-0.123,-0.108,-0.017
2025-11-06 18:34:09.380,65.52,0.393,-0.47000000000000003,-0.374,-0.359,-0.618,0.5690000000000001,4.88,-3.21,-26.830000000000002,0.4025,-0.8755000000000001,-0.0258,-0.26580000000000004,-0.107,-0.095,-0.016
2025-11-06 18:34:09.380,65.525,0.385,-0.509,-0.392,-0.374,-0.633,0.5730000000000001,4.88,-3.21,-26.830000000000002,0.402,-0.8762000000000001,-0.026500000000000003,-0.26430000000000003,-0.09,-0.08,-0.017
2025-11-06 18:34:09.380,65.53,0.363,-0.556,-0.41100000000000003,-0.388,-0.646,0.5750000000000001,3.88,-3.21,-26.54,0.4015,-0.8769,-0.027100000000000003,-0.2627,-0.07200000000000001,-0.068,-0.016
2025-11-06 18:34:09.380,65.535,0.307,-0.606,-0.429,-0.401,-0.662,0.579,3.88,-2.89,-26.54,0.4011,-0.8776,-0.027700000000000002,-0.2609,-0.056,-0.052000000000000005,-0.017
2025-11-06 18:34:09.380,65.54,0.268,-0.63,-0.438,-0.40800000000000003,-0.668,0.578,3.88,-2.89,-26.54,0.40090000000000003,-0.8782000000000001,-0.028200000000000003,-0.2591,-0.046,-0.046,-0.014
2025-11-06 18:34:09.380,65.545,0.23700000000000002,-0.633,-0.441,-0.41500000000000004,-0.666,0.584,3.94,-2.98,-27.27,0.4007,-0.8788,-0.028800000000000003,-0.25720000000000004,-0.036000000000000004,-0.049,-0.018000000000000002
2025-11-06 18:34:09.380,65.55,0.21,-0.622,-0.443,-0.421,-0.66,0.593,3.94,-2.98,-27.27,0.4005,-0.8794000000000001,-0.029300000000000003,-0.2554,-0.026000000000000002,-0.055,-0.025
2025-11-06 18:34:09.380,65.555,0.185,-0.609,-0.441,-0.43,-0.648,0.606,3.94,-2.98,-27.27,0.4005,-0.8799,-0.0298,-0.2536,-0.015,-0.067,-0.036000000000000004
2025-11-06 18:34:09.380,65.56,0.166,-0.596,-0.439,-0.435,-0.637,0.62,4.61,-2.63,-26.89,0.40040000000000003,-0.8804000000000001,-0.0304,-0.2519,-0.007,-0.078,-0.049
2025-11-06 18:34:09.380,65.565,0.154,-0.5680000000000001,-0.433,-0.437,-0.623,0.628,4.61,-2.63,-26.89,0.40040000000000003,-0.8809,-0.0309,-0.25020000000000003,-0.002,-0.092,-0.055
2025-11-06 18:34:09.380,65.57,0.155,-0.548,-0.428,-0.432,-0.617,0.63,5.0200000000000005,-2.5100000000000002,-26.86,0.40040000000000003,-0.8813000000000001,-0.031400000000000004,-0.24860000000000002,-0.003,-0.099,-0.055
2025-11-06 18:34:09.380,65.575,0.166,-0.521,-0.421,-0.424,-0.613,0.622,5.0200000000000005,-2.5100000000000002,-26.86,0.40030000000000004,-0.8818,-0.032,-0.24700000000000003,-0.008,-0.10300000000000001,-0.046
2025-11-06 18:34:09.380,65.58,0.184,-0.498,-0.418,-0.41500000000000004,-0.61,0.61,5.0200000000000005,-2.5100000000000002,-26.86,0.4002,-0.8822000000000001,-0.0325,-0.24550000000000002,-0.014,-0.107,-0.032
2025-11-06 18:34:09.380,65.585,0.202,-0.48,-0.41500000000000004,-0.403,-0.609,0.597,5.78,-2.16,-26.92,0.4,-0.8827,-0.033100000000000004,-0.24400000000000002,-0.023,-0.108,-0.018000000000000002
2025-11-06 18:34:09.380,65.59,0.20800000000000002,-0.462,-0.41600000000000004,-0.396,-0.607,0.578,5.78,-2.16,-26.92,0.39990000000000003,-0.8831,-0.033800000000000004,-0.2426,-0.028,-0.111,0.002
2025-11-06 18:34:09.380,65.595,0.201,-0.436,-0.41100000000000003,-0.393,-0.602,0.557,6.25,-1.9000000000000001,-27.560000000000002,0.3997,-0.8836,-0.0344,-0.2412,-0.027,-0.116,0.025
2025-11-06 18:34:09.380,65.6,0.192,-0.433,-0.40800000000000003,-0.394,-0.599,0.542,6.25,-1.9000000000000001,-27.560000000000002,0.3996,-0.884,-0.035,-0.2399,-0.024,-0.12,0.041
2025-11-06 18:34:09.380,65.605,0.177,-0.439,-0.402,-0.398,-0.596,0.529,6.25,-1.9000000000000001,-27.560000000000002,0.3995,-0.8844000000000001,-0.0356,-0.23850000000000002,-0.017,-0.124,0.056
2025-11-06 18:34:09.380,65.61,0.156,-0.446,-0.396,-0.397,-0.596,0.517,6.92,-3.47,-26.89,0.39940000000000003,-0.8848,-0.0362,-0.2371,-0.016,-0.125,0.069
2025-11-06 18:34:09.380,65.615,0.126,-0.462,-0.384,-0.398,-0.596,0.507,6.92,-3.47,-26.89,0.39940000000000003,-0.8851,-0.0366,-0.23570000000000002,-0.012,-0.125,0.08
2025-11-06 18:34:09.380,65.62,0.094,-0.482,-0.368,-0.397,-0.596,0.503,7.13,-3.33,-27.0,0.3995,-0.8854000000000001,-0.0371,-0.2343,-0.01,-0.126,0.085
2025-11-06 18:34:09.380,65.625,0.066,-0.501,-0.353,-0.395,-0.594,0.501,7.13,-3.33,-27.0,0.3996,-0.8858,-0.0374,-0.2328,-0.009000000000000001,-0.128,0.088
2025-11-06 18:34:09.380,65.63,0.035,-0.532,-0.327,-0.395,-0.588,0.501,7.13,-3.33,-27.0,0.3997,-0.8861,-0.037700000000000004,-0.2313,-0.007,-0.134,0.089
2025-11-06 18:34:09.380,65.635,0.024,-0.554,-0.312,-0.393,-0.589,0.507,7.22,-2.89,-27.44,0.39990000000000003,-0.8864000000000001,-0.0379,-0.2298,-0.006,-0.134,0.084
2025-11-06 18:34:09.380,65.64,0.011,-0.5730000000000001,-0.305,-0.392,-0.591,0.514,7.22,-2.89,-27.44,0.4002,-0.8867,-0.038,-0.22820000000000001,-0.004,-0.132,0.079
2025-11-06 18:34:09.380,65.645,0.0,-0.587,-0.295,-0.389,-0.598,0.518,7.51,-3.06,-27.060000000000002,0.40040000000000003,-0.887,-0.0381,-0.2267,-0.004,-0.126,0.077
2025-11-06 18:34:09.380,65.65,-0.015,-0.594,-0.28300000000000003,-0.391,-0.612,0.522,7.51,-3.06,-27.060000000000002,0.4007,-0.8872,-0.038200000000000005,-0.22510000000000002,0.0,-0.112,0.074
2025-11-06 18:34:09.380,65.655,-0.024,-0.592,-0.276,-0.39,-0.623,0.523,7.51,-3.06,-27.060000000000002,0.40090000000000003,-0.8875000000000001,-0.038200000000000005,-0.2235,0.001,-0.10200000000000001,0.074
2025-11-06 18:34:09.380,65.66,-0.028,-0.5720000000000001,-0.271,-0.392,-0.633,0.52,7.68,-2.83,-27.5,0.4012,-0.8878,-0.0383,-0.222,0.006,-0.093,0.077
2025-11-06 18:34:09.380,65.665,-0.028,-0.559,-0.272,-0.392,-0.633,0.522,7.68,-2.83,-27.5,0.4015,-0.888,-0.0383,-0.2205,0.009000000000000001,-0.093,0.076
2025-11-06 18:34:09.380,65.67,-0.033,-0.54,-0.274,-0.39,-0.632,0.525,8.21,-2.95,-27.650000000000002,0.40180000000000005,-0.8882,-0.038400000000000004,-0.219,0.01,-0.094,0.075
2025-11-06 18:34:09.380,65.675,-0.048,-0.526,-0.276,-0.385,-0.627,0.524,8.21,-2.95,-27.650000000000002,0.4021,-0.8884000000000001,-0.0385,-0.21760000000000002,0.006,-0.1,0.076
2025-11-06 18:34:09.380,65.68,-0.07,-0.519,-0.278,-0.374,-0.617,0.52,8.21,-2.95,-27.650000000000002,0.4025,-0.8886000000000001,-0.0386,-0.2162,-0.001,-0.111,0.081
2025-11-06 18:34:09.380,65.685,-0.092,-0.521,-0.278,-0.364,-0.607,0.518,8.38,-2.16,-28.0,0.40290000000000004,-0.8887,-0.038700000000000005,-0.21480000000000002,-0.009000000000000001,-0.122,0.083
2025-11-06 18:34:09.380,65.69,-0.116,-0.518,-0.277,-0.354,-0.592,0.519,8.38,-2.16,-28.0,0.40340000000000004,-0.8889,-0.038700000000000005,-0.2134,-0.016,-0.138,0.082
2025-11-06 18:34:09.380,65.695,-0.14400000000000002,-0.519,-0.271,-0.34500000000000003,-0.58,0.524,8.36,-2.13,-28.12,0.40390000000000004,-0.889,-0.0388,-0.21200000000000002,-0.023,-0.15,0.077
2025-11-06 18:34:09.380,65.7,-0.176,-0.507,-0.263,-0.341,-0.5670000000000001,0.525,8.36,-2.13,-28.12,0.4045,-0.889,-0.0388,-0.2106,-0.024,-0.164,0.076
2025-11-06 18:34:09.380,65.705,-0.211,-0.485,-0.253,-0.34800000000000003,-0.557,0.531,8.36,-2.13,-28.12,0.4052,-0.889,-0.0388,-0.2093,-0.015,-0.176,0.07
2025-11-06 18:34:09.380,65.71,-0.252,-0.468,-0.241,-0.362,-0.549,0.53,8.56,-1.69,-28.52,0.406,-0.889,-0.038700000000000005,-0.2081,0.001,-0.185,0.07
2025-11-06 18:34:09.380,65.715,-0.28700000000000003,-0.448,-0.225,-0.376,-0.543,0.53,8.56,-1.69,-28.52,0.4068,-0.8889,-0.0386,-0.2069,0.016,-0.192,0.07
2025-11-06 18:34:09.380,65.72,-0.304,-0.439,-0.212,-0.396,-0.542,0.532,9.03,-1.57,-28.93,0.4077,-0.8887,-0.0385,-0.20570000000000002,0.038,-0.195,0.068
2025-11-06 18:34:09.380,65.725,-0.322,-0.44,-0.199,-0.41400000000000003,-0.539,0.537,9.03,-1.57,-28.93,0.40850000000000003,-0.8886000000000001,-0.038400000000000004,-0.2046,0.058,-0.198,0.062
2025-11-06 18:34:09.380,65.73,-0.339,-0.431,-0.187,-0.431,-0.538,0.546,9.03,-1.57,-28.93,0.40950000000000003,-0.8884000000000001,-0.038200000000000005,-0.20350000000000001,0.077,-0.201,0.052000000000000005
2025-11-06 18:34:09.380,65.735,-0.35000000000000003,-0.421,-0.179,-0.445,-0.541,0.555,9.47,-1.78,-28.82,0.41040000000000004,-0.8882,-0.038,-0.2024,0.093,-0.199,0.043000000000000003
2025-11-06 18:34:09.380,65.74,-0.35000000000000003,-0.4,-0.17400000000000002,-0.455,-0.543,0.556,9.47,-1.78,-28.82,0.4113,-0.8881,-0.0378,-0.20140000000000002,0.105,-0.199,0.041
2025-11-06 18:34:09.380,65.745,-0.338,-0.389,-0.17400000000000002,-0.456,-0.548,0.553,9.290000000000001,-1.52,-29.52,0.4122,-0.8879,-0.037700000000000004,-0.20040000000000002,0.108,-0.195,0.043000000000000003
2025-11-06 18:34:09.383,65.75,-0.329,-0.384,-0.176,-0.454,-0.549,0.543,9.290000000000001,-1.52,-29.52,0.4131,-0.8877,-0.0375,-0.19940000000000002,0.108,-0.196,0.052000000000000005
2025-11-06 18:34:09.383,65.755,-0.323,-0.395,-0.181,-0.446,-0.553,0.539,9.290000000000001,-1.52,-29.52,0.41400000000000003,-0.8875000000000001,-0.0374,-0.19840000000000002,0.10200000000000001,-0.193,0.056
2025-11-06 18:34:09.383,65.76,-0.33,-0.41500000000000004,-0.189,-0.433,-0.554,0.534,9.38,-2.04,-29.55,0.41490000000000005,-0.8873000000000001,-0.037200000000000004,-0.19740000000000002,0.09,-0.193,0.061
2025-11-06 18:34:09.383,65.765,-0.342,-0.435,-0.198,-0.41600000000000004,-0.556,0.529,9.38,-2.04,-29.55,0.4158,-0.8872,-0.0371,-0.1962,0.075,-0.193,0.065
2025-11-06 18:34:09.383,65.77,-0.356,-0.449,-0.20400000000000001,-0.387,-0.556,0.516,9.38,-2.04,-29.55,0.4168,-0.887,-0.0369,-0.1951,0.048,-0.194,0.077
2025-11-06 18:34:09.383,65.79,-0.508,-0.489,-0.241,-0.309,-0.541,0.463,9.73,-2.04,-29.52,0.42150000000000004,-0.8858,-0.0362,-0.19010000000000002,-0.02,-0.217,0.126
2025-11-06 18:34:09.383,65.795,-0.549,-0.49,-0.253,-0.28700000000000003,-0.531,0.458,9.73,-2.04,-29.52,0.42300000000000004,-0.8854000000000001,-0.036000000000000004,-0.1888,-0.039,-0.228,0.13
2025-11-06 18:34:09.383,65.8,-0.5760000000000001,-0.486,-0.276,-0.262,-0.507,0.463,9.99,-3.21,-29.96,0.42450000000000004,-0.885,-0.0359,-0.1875,-0.062,-0.254,0.122
2025-11-06 18:34:09.383,65.805,-0.5760000000000001,-0.47600000000000003,-0.297,-0.248,-0.487,0.47200000000000003,9.99,-3.21,-29.96,0.42600000000000005,-0.8846,-0.0358,-0.1862,-0.073,-0.276,0.112
2025-11-06 18:34:09.383,65.81,-0.579,-0.467,-0.319,-0.243,-0.463,0.491,10.05,-2.07,-30.63,0.42750000000000005,-0.8841,-0.0357,-0.1849,-0.076,-0.301,0.09
2025-11-06 18:34:09.383,65.815,-0.585,-0.444,-0.341,-0.242,-0.44,0.532,10.05,-2.07,-30.63,0.42900000000000005,-0.8836,-0.0358,-0.1836,-0.075,-0.326,0.047
2025-11-06 18:34:09.383,65.82,-0.603,-0.41500000000000004,-0.366,-0.24,-0.41600000000000004,0.588,10.05,-2.07,-30.63,0.43060000000000004,-0.8831,-0.0359,-0.1824,-0.075,-0.35100000000000003,-0.01
2025-11-06 18:34:09.383,65.825,-0.629,-0.371,-0.391,-0.242,-0.4,0.648,11.31,-2.77,-31.54,0.43220000000000003,-0.8825000000000001,-0.0361,-0.1812,-0.07,-0.368,-0.07200000000000001
2025-11-06 18:34:09.383,65.83,-0.654,-0.331,-0.432,-0.274,-0.399,0.6980000000000001,11.31,-2.77,-31.54,0.434,-0.8819,-0.0364,-0.1801,-0.036000000000000004,-0.371,-0.124
2025-11-06 18:34:09.383,65.835,-0.676,-0.321,-0.463,-0.307,-0.427,0.726,10.870000000000001,-2.22,-31.39,0.43570000000000003,-0.8812000000000001,-0.0368,-0.17900000000000002,0.0,-0.34500000000000003,-0.155
2025-11-06 18:34:09.383,65.84,-0.708,-0.317,-0.505,-0.331,-0.47300000000000003,0.747,10.870000000000001,-2.22,-31.39,0.43760000000000004,-0.8805000000000001,-0.0373,-0.1779,0.026000000000000002,-0.301,-0.177
2025-11-06 18:34:09.383,65.845,-0.74,-0.329,-0.555,-0.34800000000000003,-0.543,0.757,10.870000000000001,-2.22,-31.39,0.4395,-0.8798,-0.0378,-0.1766,0.046,-0.234,-0.188
2025-11-06 18:34:09.383,65.85,-0.778,-0.355,-0.612,-0.36,-0.636,0.757,11.540000000000001,-1.84,-32.21,0.44160000000000005,-0.879,-0.0385,-0.1753,0.062,-0.145,-0.188
2025-11-06 18:34:09.383,65.855,-0.84,-0.388,-0.678,-0.365,-0.752,0.757,11.540000000000001,-1.84,-32.21,0.44380000000000003,-0.8781,-0.0392,-0.1738,0.073,-0.032,-0.189
2025-11-06 18:34:09.383,65.86,-0.968,-0.378,-0.772,-0.357,-0.9460000000000001,0.747,12.83,-2.22,-32.21,0.4464,-0.8771,-0.040100000000000004,-0.1723,0.07,0.158,-0.178
2025-11-06 18:34:09.383,65.865,-1.022,-0.295,-0.8270000000000001,-0.34900000000000003,-1.068,0.704,12.83,-2.22,-32.21,0.4491,-0.8759,-0.0412,-0.1709,0.068,0.275,-0.136
2025-11-06 18:34:09.383,65.87,-1.058,-0.199,-0.87,-0.326,-1.193,0.656,12.83,-2.22,-32.21,0.4519,-0.8747,-0.0424,-0.1696,0.049,0.395,-0.089
2025-11-06 18:34:09.383,65.875,-1.05,-0.091,-0.886,-0.311,-1.2730000000000001,0.623,11.75,-2.68,-33.0,0.4546,-0.8734000000000001,-0.0438,-0.1686,0.039,0.47100000000000003,-0.058
2025-11-06 18:34:09.383,65.88,-1.004,0.0,-0.87,-0.293,-1.339,0.594,11.75,-2.68,-33.0,0.4572,-0.8721,-0.0453,-0.1678,0.026000000000000002,0.533,-0.032
2025-11-06 18:34:09.383,65.885,-0.929,0.029,-0.8260000000000001,-0.279,-1.3820000000000001,0.586,12.07,-3.06,-33.82,0.4597,-0.8709,-0.0468,-0.167,0.016,0.5710000000000001,-0.027
2025-11-06 18:34:09.383,65.89,-0.745,-0.014,-0.728,-0.26,-1.3860000000000001,0.602,12.07,-3.06,-33.82,0.4616,-0.8699,-0.048100000000000004,-0.1663,0.0,0.5730000000000001,-0.046
2025-11-06 18:34:09.383,65.895,-0.612,-0.083,-0.667,-0.241,-1.36,0.633,12.07,-3.06,-33.82,0.46330000000000005,-0.8691000000000001,-0.0492,-0.1655,-0.016,0.545,-0.08
2025-11-06 18:34:09.385,65.9,-0.521,-0.138,-0.622,-0.221,-1.318,0.669,12.27,-2.36,-33.730000000000004,0.4647,-0.8685,-0.0502,-0.1646,-0.033,0.501,-0.12
2025-11-06 18:34:09.385,65.905,-0.447,-0.14200000000000002,-0.595,-0.231,-1.2650000000000001,0.72,12.27,-2.36,-33.730000000000004,0.466,-0.8679,-0.0512,-0.1636,-0.021,0.448,-0.17400000000000002
2025-11-06 18:34:09.385,65.91,-0.39,-0.096,-0.59,-0.24,-1.21,0.774,12.94,-2.2800000000000002,-33.730000000000004,0.4671,-0.8674000000000001,-0.0522,-0.1628,-0.01,0.393,-0.23
2025-11-06 18:34:09.385,65.915,-0.34700000000000003,-0.016,-0.604,-0.28200000000000003,-1.166,0.833,12.94,-2.2800000000000002,-33.730000000000004,0.4681,-0.8669,-0.0534,-0.1622,0.033,0.34700000000000003,-0.292
2025-11-06 18:34:09.385,65.92,-0.262,0.07100000000000001,-0.633,-0.318,-1.1440000000000001,0.885,12.94,-2.2800000000000002,-33.730000000000004,0.46900000000000003,-0.8665,-0.054700000000000006,-0.16160000000000002,0.07100000000000001,0.324,-0.34600000000000003
2025-11-06 18:34:09.385,65.925,-0.092,0.198,-0.681,-0.358,-1.1260000000000001,0.9530000000000001,13.030000000000001,-2.92,-34.11,0.46940000000000004,-0.8662000000000001,-0.056400000000000006,-0.1613,0.113,0.307,-0.41500000000000004
2025-11-06 18:34:09.385,65.93,0.048,0.271,-0.727,-0.384,-1.1320000000000001,1.0050000000000001,13.030000000000001,-2.92,-34.11,0.4696,-0.866,-0.058300000000000005,-0.16110000000000002,0.14100000000000001,0.313,-0.467
2025-11-06 18:34:09.385,65.935,0.156,0.321,-0.776,-0.403,-1.143,1.05,13.68,-1.6,-33.7,0.46950000000000003,-0.866,-0.060500000000000005,-0.16090000000000002,0.162,0.324,-0.512
2025-11-06 18:34:09.385,65.94,0.247,0.371,-0.8290000000000001,-0.41600000000000004,-1.18,1.086,13.68,-1.6,-33.7,0.4692,-0.866,-0.06280000000000001,-0.1607,0.177,0.361,-0.547
2025-11-06 18:34:09.385,65.945,0.28700000000000003,0.399,-0.89,-0.422,-1.2530000000000001,1.113,13.68,-1.6,-33.7,0.46890000000000004,-0.866,-0.0653,-0.1605,0.187,0.434,-0.5720000000000001
2025-11-06 18:34:09.385,65.95,0.28400000000000003,0.453,-0.929,-0.424,-1.339,1.1340000000000001,13.68,-3.0100000000000002,-33.76,0.4685,-0.866,-0.068,-0.16040000000000001,0.193,0.521,-0.59
2025-11-06 18:34:09.385,65.955,0.266,0.489,-0.9400000000000001,-0.40700000000000003,-1.4060000000000001,1.1340000000000001,13.68,-3.0100000000000002,-33.76,0.4682,-0.866,-0.0707,-0.1603,0.179,0.588,-0.588
2025-11-06 18:34:09.385,65.96,0.246,0.529,-0.936,-0.384,-1.483,1.094,14.38,-1.6,-33.87,0.46790000000000004,-0.8659,-0.07350000000000001,-0.16040000000000001,0.159,0.664,-0.546
2025-11-06 18:34:09.385,65.965,0.248,0.555,-0.914,-0.341,-1.532,1.052,14.38,-1.6,-33.87,0.4677,-0.8658,-0.0762,-0.1605,0.11900000000000001,0.712,-0.502
2025-11-06 18:34:09.385,65.97,0.268,0.557,-0.876,-0.28600000000000003,-1.556,1.0,14.38,-1.6,-33.87,0.46730000000000005,-0.8657,-0.0789,-0.1607,0.067,0.736,-0.448
2025-11-06 18:34:09.385,65.975,0.318,0.528,-0.812,-0.209,-1.538,0.925,14.58,-1.72,-33.0,0.46680000000000005,-0.8657,-0.0814,-0.1608,-0.007,0.716,-0.373
2025-11-06 18:34:09.385,65.98,0.394,0.47300000000000003,-0.727,-0.17,-1.496,0.889,14.58,-1.72,-33.0,0.4661,-0.8658,-0.08370000000000001,-0.16090000000000002,-0.044,0.674,-0.337
2025-11-06 18:34:09.385,65.985,0.458,0.421,-0.666,-0.137,-1.471,0.853,14.58,-0.61,-33.32,0.46530000000000005,-0.8661000000000001,-0.0858,-0.161,-0.076,0.649,-0.3
2025-11-06 18:34:09.386,65.99,0.503,0.39,-0.607,-0.12,-1.443,0.8260000000000001,14.58,-0.61,-33.32,0.46430000000000005,-0.8664000000000001,-0.0878,-0.16110000000000002,-0.091,0.621,-0.271
2025-11-06 18:34:09.387,65.995,0.527,0.4,-0.557,-0.094,-1.42,0.787,14.58,-0.61,-33.32,0.46330000000000005,-0.8667,-0.0896,-0.1612,-0.116,0.598,-0.23
2025-11-06 18:34:09.387,66.0,0.533,0.424,-0.524,-0.079,-1.393,0.747,15.63,-1.25,-32.44,0.4622,-0.8671000000000001,-0.0915,-0.16140000000000002,-0.131,0.5720000000000001,-0.189
2025-11-06 18:34:09.387,66.005,0.525,0.497,-0.483,-0.067,-1.34,0.67,15.63,-1.25,-32.44,0.4611,-0.8674000000000001,-0.09330000000000001,-0.1618,-0.14200000000000002,0.518,-0.112
2025-11-06 18:34:09.387,66.01,0.498,0.549,-0.45,-0.07200000000000001,-1.3,0.623,15.55,-0.55,-32.65,0.46,-0.8676,-0.0951,-0.1623,-0.136,0.47800000000000004,-0.064
2025-11-06 18:34:09.387,66.015,0.485,0.5670000000000001,-0.441,-0.082,-1.248,0.551,15.55,-0.55,-32.65,0.459,-0.8679,-0.0969,-0.163,-0.126,0.426,0.007
2025-11-06 18:34:09.387,66.02,0.481,0.543,-0.447,-0.093,-1.207,0.492,15.55,-0.55,-32.65,0.458,-0.8681000000000001,-0.09870000000000001,-0.1635,-0.116,0.384,0.067
2025-11-06 18:34:09.387,66.025,0.486,0.488,-0.448,-0.10400000000000001,-1.151,0.439,14.76,0.32,-32.0,0.45690000000000003,-0.8684000000000001,-0.1004,-0.164,-0.10400000000000001,0.328,0.121
2025-11-06 18:34:09.387,66.03,0.497,0.435,-0.443,-0.108,-1.088,0.404,14.76,0.32,-32.0,0.4559,-0.8687,-0.10210000000000001,-0.1643,-0.101,0.265,0.156
2025-11-06 18:34:09.387,66.035,0.499,0.388,-0.456,-0.115,-1.0230000000000001,0.392,14.76,0.32,-32.0,0.4549,-0.869,-0.1037,-0.1645,-0.093,0.201,0.168
2025-11-06 18:34:09.387,66.04,0.49,0.326,-0.458,-0.105,-0.9490000000000001,0.392,14.96,0.52,-31.8,0.4539,-0.8693000000000001,-0.1053,-0.1645,-0.10300000000000001,0.127,0.168
2025-11-06 18:34:09.387,66.045,0.47900000000000004,0.28700000000000003,-0.457,-0.098,-0.887,0.395,14.96,0.52,-31.8,0.4529,-0.8696,-0.1068,-0.1645,-0.109,0.066,0.166
2025-11-06 18:34:09.387,66.05,0.47300000000000003,0.223,-0.461,-0.088,-0.8270000000000001,0.39,15.08,1.19,-31.01,0.452,-0.8699,-0.10830000000000001,-0.16440000000000002,-0.11900000000000001,0.007,0.17
2025-11-06 18:34:09.387,66.055,0.47800000000000004,0.16,-0.47200000000000003,-0.082,-0.769,0.393,15.08,1.19,-31.01,0.4511,-0.8703000000000001,-0.1097,-0.1641,-0.124,-0.049,0.168
2025-11-06 18:34:09.387,66.06,0.49,0.093,-0.491,-0.078,-0.719,0.396,15.08,1.19,-31.01,0.45020000000000004,-0.8707,-0.1111,-0.1636,-0.127,-0.098,0.166
2025-11-06 18:34:09.387,66.065,0.506,0.026000000000000002,-0.532,-0.075,-0.654,0.41200000000000003,14.84,1.6300000000000001,-31.1,0.44930000000000003,-0.8711000000000001,-0.1125,-0.16290000000000002,-0.128,-0.161,0.151
2025-11-06 18:34:09.387,66.07,0.497,-0.037,-0.5650000000000001,-0.082,-0.621,0.426,14.84,1.6300000000000001,-31.1,0.4484,-0.8715,-0.1139,-0.1621,-0.11900000000000001,-0.193,0.138
2025-11-06 18:34:09.387,66.075,0.47000000000000003,-0.098,-0.604,-0.095,-0.598,0.445,15.52,1.25,-31.01,0.4476,-0.8719,-0.1153,-0.16110000000000002,-0.10400000000000001,-0.216,0.121
2025-11-06 18:34:09.387,66.08,0.42,-0.17,-0.65,-0.105,-0.584,0.463,15.52,1.25,-31.01,0.447,-0.8723000000000001,-0.1168,-0.15990000000000001,-0.091,-0.229,0.10400000000000001
2025-11-06 18:34:09.387,66.085,0.35100000000000003,-0.23700000000000002,-0.7000000000000001,-0.109,-0.591,0.483,15.52,1.25,-31.01,0.4465,-0.8725,-0.1182,-0.1585,-0.083,-0.221,0.08600000000000001
2025-11-06 18:34:09.387,66.2,-0.47700000000000004,0.158,-0.34500000000000003,-0.171,-0.809,0.6,17.71,2.2800000000000002,-32.85,0.47590000000000005,-0.8549,-0.1449,-0.1468,0.037,-0.04,-0.07100000000000001
2025-11-06 18:34:09.387,66.205,-0.494,0.151,-0.374,-0.159,-0.8290000000000001,0.608,17.71,2.2800000000000002,-32.85,0.47700000000000004,-0.8541000000000001,-0.1457,-0.1469,0.027,-0.021,-0.081
2025-11-06 18:34:09.387,66.21,-0.529,0.145,-0.418,-0.138,-0.865,0.607,17.71,2.2800000000000002,-32.85,0.4783,-0.8532000000000001,-0.14650000000000002,-0.14700000000000002,0.008,0.013000000000000001,-0.082
2025-11-06 18:34:09.387,66.215,-0.558,0.157,-0.457,-0.11900000000000001,-0.898,0.599,17.77,2.42,-33.44,0.4796,-0.8523000000000001,-0.14750000000000002,-0.14700000000000002,-0.009000000000000001,0.044,-0.076
2025-11-06 18:34:09.387,66.22,-0.5720000000000001,0.161,-0.48,-0.115,-0.919,0.592,17.77,2.42,-33.44,0.48100000000000004,-0.8514,-0.14850000000000002,-0.14700000000000002,-0.011,0.063,-0.07
2025-11-06 18:34:09.387,66.225,-0.5740000000000001,0.17200000000000001,-0.499,-0.11,-0.9500000000000001,0.586,17.91,2.63,-32.82,0.4823,-0.8504,-0.1496,-0.14700000000000002,-0.014,0.092,-0.066
2025-11-06 18:34:09.387,66.23,-0.5740000000000001,0.201,-0.509,-0.112,-0.975,0.577,17.91,2.63,-32.82,0.4837,-0.8494,-0.1507,-0.1471,-0.009000000000000001,0.115,-0.059000000000000004
2025-11-06 18:34:09.387,66.235,-0.5650000000000001,0.233,-0.518,-0.1,-1.012,0.56,17.91,2.63,-32.82,0.48500000000000004,-0.8484,-0.1519,-0.1472,-0.02,0.151,-0.044
2025-11-06 18:34:09.387,66.24,-0.554,0.28,-0.509,-0.117,-1.041,0.539,18.82,1.84,-32.79,0.4863,-0.8475,-0.1531,-0.1474,0.0,0.177,-0.026000000000000002
2025-11-06 18:34:09.387,66.245,-0.554,0.329,-0.485,-0.11900000000000001,-1.062,0.517,18.82,1.84,-32.79,0.48760000000000003,-0.8465,-0.15430000000000002,-0.14780000000000001,0.002,0.196,-0.005
2025-11-06 18:34:09.387,66.25,-0.551,0.384,-0.452,-0.139,-1.07,0.499,18.41,3.12,-33.14,0.4888,-0.8454,-0.1555,-0.14830000000000002,0.023,0.202,0.009000000000000001
2025-11-06 18:34:09.387,66.255,-0.549,0.436,-0.418,-0.153,-1.074,0.47500000000000003,18.41,3.12,-33.14,0.4899,-0.8444,-0.1567,-0.149,0.038,0.20400000000000001,0.03
2025-11-06 18:34:09.387,66.26,-0.552,0.48,-0.374,-0.167,-1.066,0.456,18.41,3.12,-33.14,0.49110000000000004,-0.8434,-0.1579,-0.14980000000000002,0.052000000000000005,0.194,0.047
2025-11-06 18:34:09.387,66.265,-0.559,0.512,-0.327,-0.179,-1.052,0.433,19.52,2.77,-33.11,0.4922,-0.8424,-0.159,-0.1507,0.065,0.178,0.066
2025-11-06 18:34:09.387,66.27,-0.554,0.546,-0.261,-0.191,-1.012,0.405,19.52,2.77,-33.11,0.4933,-0.8414,-0.16,-0.15180000000000002,0.076,0.135,0.091
2025-11-06 18:34:09.387,66.275,-0.559,0.5660000000000001,-0.198,-0.192,-0.983,0.402,19.52,2.77,-33.11,0.4943,-0.8404,-0.1608,-0.153,0.077,0.105,0.09
2025-11-06 18:34:09.387,66.28,-0.5660000000000001,0.5680000000000001,-0.148,-0.193,-0.9500000000000001,0.40800000000000003,18.38,3.06,-33.2,0.4954,-0.8394,-0.16160000000000002,-0.1542,0.076,0.07100000000000001,0.081
2025-11-06 18:34:09.387,66.285,-0.562,0.583,-0.11,-0.179,-0.917,0.421,18.38,3.06,-33.2,0.4964,-0.8384,-0.1623,-0.15560000000000002,0.061,0.037,0.064
2025-11-06 18:34:09.387,66.29,-0.552,0.589,-0.081,-0.168,-0.882,0.431,17.97,3.18,-33.2,0.4973,-0.8374,-0.163,-0.1569,0.048,0.001,0.051000000000000004
2025-11-06 18:34:09.387,66.295,-0.544,0.577,-0.058,-0.14300000000000002,-0.85,0.444,17.97,3.18,-33.2,0.4983,-0.8365,-0.1636,-0.1583,0.022,-0.031,0.034
2025-11-06 18:34:09.387,66.3,-0.533,0.5750000000000001,-0.052000000000000005,-0.116,-0.806,0.462,17.97,3.18,-33.2,0.49920000000000003,-0.8356,-0.1641,-0.1597,-0.006,-0.076,0.013000000000000001
2025-11-06 18:34:09.387,66.305,-0.47200000000000003,0.538,-0.052000000000000005,-0.08,-0.771,0.48,17.88,2.83,-33.58,0.5,-0.8347,-0.1647,-0.161,-0.043000000000000003,-0.111,-0.007
2025-11-06 18:34:09.387,66.31,-0.433,0.512,-0.07200000000000001,-0.062,-0.76,0.491,17.88,2.83,-33.58,0.5008,-0.8339000000000001,-0.1653,-0.1621,-0.061,-0.123,-0.021
2025-11-06 18:34:09.387,66.315,-0.391,0.481,-0.10300000000000001,-0.048,-0.762,0.505,17.97,2.89,-33.08,0.5014000000000001,-0.8332,-0.16590000000000002,-0.1632,-0.076,-0.122,-0.037
2025-11-06 18:34:09.387,66.32,-0.364,0.442,-0.14100000000000001,-0.031,-0.784,0.516,17.97,2.89,-33.08,0.5021,-0.8325,-0.1666,-0.1641,-0.094,-0.101,-0.05
2025-11-06 18:34:09.387,66.325,-0.358,0.41200000000000003,-0.188,-0.026000000000000002,-0.8160000000000001,0.523,17.97,2.89,-33.08,0.5027,-0.8318000000000001,-0.16740000000000002,-0.16490000000000002,-0.099,-0.068,-0.057
2025-11-06 18:34:09.387,66.33,-0.396,0.365,-0.246,-0.027,-0.885,0.521,18.18,2.68,-33.32,0.5035000000000001,-0.8310000000000001,-0.16820000000000002,-0.1655,-0.097,-0.001,-0.056
2025-11-06 18:34:09.387,66.335,-0.435,0.318,-0.281,-0.028,-0.9380000000000001,0.51,18.18,2.68,-33.32,0.5044000000000001,-0.8302,-0.169,-0.166,-0.094,0.05,-0.046
2025-11-06 18:34:09.387,66.34,-0.47800000000000004,0.278,-0.295,-0.036000000000000004,-0.987,0.491,18.03,3.04,-33.38,0.5054000000000001,-0.8294,-0.16970000000000002,-0.16640000000000002,-0.085,0.097,-0.028
2025-11-06 18:34:09.387,66.345,-0.513,0.226,-0.303,-0.059000000000000004,-1.028,0.47300000000000003,18.03,3.04,-33.38,0.5066,-0.8285,-0.1704,-0.1668,-0.061,0.137,-0.012
2025-11-06 18:34:09.387,66.35,-0.534,0.17500000000000002,-0.296,-0.066,-1.069,0.453,18.03,3.04,-33.38,0.5077,-0.8276,-0.171,-0.167,-0.052000000000000005,0.17500000000000002,0.006
2025-11-06 18:34:09.387,66.355,-0.55,0.11800000000000001,-0.277,-0.081,-1.091,0.441,18.97,2.68,-33.64,0.509,-0.8267,-0.1715,-0.16720000000000002,-0.036000000000000004,0.196,0.016
2025-11-06 18:34:09.387,66.36,-0.557,0.036000000000000004,-0.24,-0.096,-1.1,0.433,18.97,2.68,-33.64,0.5102,-0.8258000000000001,-0.1718,-0.16720000000000002,-0.021,0.203,0.021
2025-11-06 18:34:09.387,66.365,-0.557,-0.002,-0.212,-0.10400000000000001,-1.093,0.43,18.44,3.21,-33.38,0.5115000000000001,-0.8250000000000001,-0.1721,-0.16720000000000002,-0.012,0.194,0.021
2025-11-06 18:34:09.387,66.37,-0.56,-0.022,-0.186,-0.109,-1.077,0.429,18.44,3.21,-33.38,0.5128,-0.8242,-0.17220000000000002,-0.16720000000000002,-0.006,0.177,0.019
2025-11-06 18:34:09.387,66.375,-0.56,-0.026000000000000002,-0.16,-0.113,-1.052,0.424,18.44,3.21,-33.38,0.514,-0.8234,-0.17220000000000002,-0.16720000000000002,-0.002,0.152,0.021
2025-11-06 18:34:09.387,66.38,-0.558,-0.013000000000000001,-0.136,-0.116,-1.024,0.418,18.73,2.63,-33.230000000000004,0.5153,-0.8226,-0.1723,-0.16720000000000002,0.001,0.122,0.024
2025-11-06 18:34:09.387,66.385,-0.548,0.012,-0.116,-0.123,-0.991,0.405,18.73,2.63,-33.230000000000004,0.5165000000000001,-0.8218000000000001,-0.1723,-0.1673,0.008,0.08700000000000001,0.033
2025-11-06 18:34:09.387,66.39,-0.521,0.054,-0.093,-0.13,-0.937,0.396,18.26,2.22,-33.96,0.5176000000000001,-0.8211,-0.1723,-0.1676,0.015,0.032,0.039
2025-11-06 18:34:09.387,66.395,-0.488,0.096,-0.08600000000000001,-0.14300000000000002,-0.902,0.39,18.26,2.22,-33.96,0.5186000000000001,-0.8203,-0.1724,-0.16790000000000002,0.028,-0.003,0.042
2025-11-06 18:34:09.387,66.4,-0.447,0.135,-0.077,-0.156,-0.87,0.382,18.26,2.22,-33.96,0.5195000000000001,-0.8196,-0.1726,-0.1683,0.041,-0.037,0.046
2025-11-06 18:34:09.387,66.405,-0.396,0.17,-0.07200000000000001,-0.163,-0.836,0.384,18.62,2.13,-33.7,0.5203,-0.8190000000000001,-0.1728,-0.16870000000000002,0.048,-0.07100000000000001,0.042
2025-11-06 18:34:09.387,66.41,-0.369,0.169,-0.075,-0.167,-0.81,0.38,18.62,2.13,-33.7,0.5211,-0.8184,-0.17300000000000001,-0.16920000000000002,0.051000000000000004,-0.098,0.044
2025-11-06 18:34:09.387,66.415,-0.34800000000000003,0.16,-0.074,-0.17500000000000002,-0.78,0.393,18.5,2.45,-34.28,0.5217,-0.8178000000000001,-0.17320000000000002,-0.1696,0.059000000000000004,-0.13,0.028
2025-11-06 18:34:09.387,66.42,-0.317,0.161,-0.081,-0.165,-0.759,0.397,18.5,2.45,-34.28,0.5224,-0.8173,-0.1734,-0.1699,0.048,-0.151,0.022
2025-11-06 18:34:09.387,66.425,-0.324,0.14400000000000002,-0.089,-0.158,-0.752,0.41000000000000003,18.5,2.45,-34.28,0.523,-0.8168000000000001,-0.1736,-0.1703,0.042,-0.158,0.008
2025-11-06 18:34:09.387,66.43,-0.339,0.14,-0.1,-0.147,-0.75,0.423,18.53,2.33,-34.2,0.5237,-0.8162,-0.1739,-0.1706,0.03,-0.161,-0.006
2025-11-06 18:34:09.387,66.435,-0.364,0.128,-0.114,-0.137,-0.755,0.439,18.53,2.33,-34.2,0.5245000000000001,-0.8156,-0.1741,-0.1709,0.021,-0.156,-0.024
2025-11-06 18:34:09.387,66.44,-0.397,0.10300000000000001,-0.127,-0.123,-0.769,0.458,18.29,2.07,-34.69,0.5253,-0.8150000000000001,-0.1743,-0.1711,0.007,-0.14300000000000002,-0.045
2025-11-06 18:34:09.387,66.445,-0.41300000000000003,0.088,-0.152,-0.109,-0.794,0.47400000000000003,18.29,2.07,-34.69,0.5262,-0.8143,-0.1746,-0.1713,-0.005,-0.11800000000000001,-0.061
2025-11-06 18:34:09.387,66.45,-0.426,0.059000000000000004,-0.167,-0.095,-0.8190000000000001,0.483,18.29,2.07,-34.69,0.5271,-0.8137000000000001,-0.1748,-0.1714,-0.018000000000000002,-0.093,-0.07200000000000001
2025-11-06 18:34:09.387,66.455,-0.43,0.015,-0.188,-0.082,-0.852,0.491,19.17,2.36,-34.9,0.5281,-0.8130000000000001,-0.1751,-0.1713,-0.03,-0.061,-0.081
2025-11-06 18:34:09.387,66.46,-0.417,-0.011,-0.203,-0.073,-0.883,0.491,19.17,2.36,-34.9,0.529,-0.8124,-0.1753,-0.17120000000000002,-0.038,-0.031,-0.083
2025-11-06 18:34:09.387,66.465,-0.405,-0.044,-0.21,-0.06,-0.912,0.486,18.38,1.98,-35.01,0.53,-0.8117000000000001,-0.17550000000000002,-0.1711,-0.05,-0.003,-0.079
2025-11-06 18:34:09.387,66.47,-0.384,-0.078,-0.214,-0.057,-0.937,0.47900000000000004,18.38,1.98,-35.01,0.5309,-0.8111,-0.1757,-0.1708,-0.051000000000000004,0.021,-0.074
2025-11-06 18:34:09.387,66.475,-0.354,-0.114,-0.213,-0.045,-0.968,0.466,18.38,1.98,-35.01,0.5318,-0.8106,-0.1758,-0.1705,-0.062,0.051000000000000004,-0.061
2025-11-06 18:34:09.387,66.48,-0.328,-0.168,-0.20500000000000002,-0.043000000000000003,-0.991,0.459,18.56,1.92,-35.57,0.5326000000000001,-0.8101,-0.1759,-0.17,-0.062,0.07200000000000001,-0.055
2025-11-06 18:34:09.387,66.485,-0.311,-0.20400000000000001,-0.193,-0.038,-1.004,0.453,18.56,1.92,-35.57,0.5334,-0.8097000000000001,-0.1759,-0.1695,-0.065,0.085,-0.05
2025-11-06 18:34:09.387,66.49,-0.309,-0.229,-0.178,-0.035,-1.012,0.444,18.67,1.22,-34.96,0.5343,-0.8093,-0.1758,-0.1689,-0.067,0.092,-0.043000000000000003
2025-11-06 18:34:09.387,66.495,-0.314,-0.253,-0.163,-0.031,-1.0150000000000001,0.434,18.67,1.22,-34.96,0.5351,-0.8089000000000001,-0.1757,-0.1683,-0.07,0.094,-0.033
2025-11-06 18:34:09.387,66.5,-0.331,-0.277,-0.145,-0.027,-1.016,0.424,18.67,1.22,-34.96,0.536,-0.8085,-0.17550000000000002,-0.1678,-0.073,0.094,-0.025
2025-11-06 18:34:09.387,66.505,-0.362,-0.308,-0.131,-0.02,-1.0130000000000001,0.41400000000000003,18.79,2.22,-35.63,0.5369,-0.808,-0.1752,-0.1671,-0.079,0.09,-0.017
2025-11-06 18:34:09.387,66.51,-0.392,-0.332,-0.116,-0.019,-1.0050000000000001,0.41000000000000003,18.79,2.22,-35.63,0.5379,-0.8076,-0.1749,-0.1665,-0.079,0.081,-0.014
2025-11-06 18:34:09.387,66.515,-0.419,-0.336,-0.113,-0.02,-0.995,0.406,18.79,2.22,-35.800000000000004,0.539,-0.8071,-0.17450000000000002,-0.1658,-0.076,0.07100000000000001,-0.013000000000000001
2025-11-06 18:34:09.387,66.52,-0.443,-0.334,-0.107,-0.022,-0.982,0.401,18.67,2.71,-35.800000000000004,0.5401,-0.8065,-0.1741,-0.1652,-0.073,0.057,-0.01
2025-11-06 18:34:09.387,66.525,-0.463,-0.328,-0.10300000000000001,-0.025,-0.963,0.393,18.67,2.71,-35.800000000000004,0.5413,-0.806,-0.17370000000000002,-0.1646,-0.07,0.036000000000000004,-0.005
2025-11-06 18:34:09.387,66.53,-0.47100000000000003,-0.32,-0.105,-0.025,-0.9430000000000001,0.387,19.38,2.33,-36.27,0.5424,-0.8054,-0.1733,-0.1641,-0.068,0.015,-0.001
2025-11-06 18:34:09.387,66.535,-0.464,-0.322,-0.113,-0.028,-0.92,0.375,19.38,2.33,-36.27,0.5436,-0.8048000000000001,-0.1729,-0.1635,-0.065,-0.008,0.007
2025-11-06 18:34:09.387,66.54,-0.46,-0.35000000000000003,-0.12,-0.038,-0.9,0.372,19.38,2.33,-36.27,0.5447000000000001,-0.8043,-0.17250000000000001,-0.1628,-0.053,-0.029,0.007
2025-11-06 18:34:09.387,66.545,-0.444,-0.377,-0.128,-0.046,-0.883,0.367,18.94,2.07,-36.36,0.5459,-0.8037000000000001,-0.1721,-0.1621,-0.044,-0.047,0.01
2025-11-06 18:34:09.387,66.55,-0.424,-0.405,-0.134,-0.062,-0.867,0.361,18.94,2.07,-36.36,0.547,-0.8032,-0.17170000000000002,-0.1613,-0.027,-0.064,0.014
2025-11-06 18:34:09.387,66.555,-0.399,-0.435,-0.139,-0.074,-0.854,0.354,19.32,2.36,-36.62,0.548,-0.8028000000000001,-0.17120000000000002,-0.16040000000000001,-0.014,-0.078,0.019
2025-11-06 18:34:09.387,66.56,-0.372,-0.466,-0.137,-0.08600000000000001,-0.847,0.34800000000000003,19.32,2.36,-36.62,0.5491,-0.8024,-0.17070000000000002,-0.15940000000000001,0.0,-0.08600000000000001,0.023
2025-11-06 18:34:09.387,66.565,-0.35100000000000003,-0.487,-0.136,-0.105,-0.84,0.341,19.32,2.36,-36.62,0.5501,-0.802,-0.17020000000000002,-0.1584,0.019,-0.094,0.028
2025-11-06 18:34:09.387,66.57,-0.301,-0.522,-0.126,-0.121,-0.839,0.34,19.61,2.45,-37.24,0.551,-0.8017000000000001,-0.16970000000000002,-0.1574,0.037,-0.095,0.028
2025-11-06 18:34:09.387,66.575,-0.275,-0.54,-0.11900000000000001,-0.131,-0.841,0.341,19.61,2.45,-37.24,0.5518000000000001,-0.8015,-0.1691,-0.1562,0.048,-0.095,0.025
2025-11-06 18:34:09.387,66.58,-0.251,-0.548,-0.112,-0.138,-0.847,0.34800000000000003,19.23,2.1,-37.62,0.5526,-0.8013,-0.1685,-0.15510000000000002,0.056,-0.089,0.018000000000000002
2025-11-06 18:34:09.387,66.585,-0.222,-0.544,-0.10200000000000001,-0.14,-0.856,0.354,19.23,2.1,-37.62,0.5533,-0.8011,-0.16790000000000002,-0.154,0.06,-0.08,0.01
2025-11-06 18:34:09.387,66.59,-0.197,-0.531,-0.094,-0.14300000000000002,-0.864,0.364,19.23,2.1,-37.62,0.554,-0.801,-0.1673,-0.1529,0.064,-0.07200000000000001,0.0
2025-11-06 18:34:09.387,66.595,-0.171,-0.497,-0.084,-0.136,-0.879,0.378,19.900000000000002,2.0100000000000002,-37.67,0.5546,-0.8009000000000001,-0.16670000000000001,-0.15180000000000002,0.058,-0.057,-0.013000000000000001
2025-11-06 18:34:09.387,66.6,-0.15,-0.462,-0.081,-0.135,-0.89,0.386,19.900000000000002,2.0100000000000002,-37.67,0.5551,-0.8008000000000001,-0.16620000000000001,-0.1509,0.059000000000000004,-0.046,-0.022
2025-11-06 18:34:09.387,66.605,-0.138,-0.427,-0.08,-0.132,-0.901,0.392,20.22,0.55,-37.79,0.5556,-0.8007000000000001,-0.16570000000000001,-0.15,0.057,-0.036000000000000004,-0.028
2025-11-06 18:34:09.387,66.61,-0.13,-0.406,-0.084,-0.13,-0.912,0.397,20.22,0.55,-37.79,0.5561,-0.8006000000000001,-0.1653,-0.1491,0.057,-0.024,-0.033
2025-11-06 18:34:09.387,66.615,-0.127,-0.389,-0.091,-0.123,-0.922,0.399,20.22,0.55,-37.79,0.5565,-0.8006000000000001,-0.16490000000000002,-0.14830000000000002,0.051000000000000004,-0.015,-0.035
2025-11-06 18:34:09.387,66.62,-0.123,-0.387,-0.099,-0.116,-0.932,0.398,20.11,2.16,-38.76,0.557,-0.8005,-0.1645,-0.1474,0.045,-0.005,-0.035
2025-11-06 18:34:09.387,66.625,-0.127,-0.387,-0.11900000000000001,-0.099,-0.9450000000000001,0.392,20.11,2.16,-38.76,0.5574,-0.8004,-0.1642,-0.1466,0.029,0.006,-0.029
2025-11-06 18:34:09.387,66.63,-0.133,-0.387,-0.137,-0.079,-0.9520000000000001,0.388,21.13,1.92,-38.2,0.5579000000000001,-0.8003,-0.16390000000000002,-0.1457,0.011,0.014,-0.025
2025-11-06 18:34:09.387,66.635,-0.163,-0.41600000000000004,-0.149,-0.056,-0.9590000000000001,0.368,21.13,1.92,-38.2,0.5585,-0.8001,-0.1636,-0.1447,-0.01,0.02,-0.005
2025-11-06 18:34:09.387,66.64,-0.197,-0.447,-0.164,-0.035,-0.9590000000000001,0.355,21.13,1.92,-38.2,0.5591,-0.7999,-0.1633,-0.1436,-0.029,0.02,0.006
2025-11-06 18:34:09.387,66.645,-0.23,-0.47900000000000004,-0.18,-0.014,-0.96,0.34,20.14,1.28,-38.84,0.5599000000000001,-0.7997000000000001,-0.16290000000000002,-0.14250000000000002,-0.049,0.02,0.02
2025-11-06 18:34:09.387,66.65,-0.263,-0.522,-0.191,0.0,-0.9560000000000001,0.319,20.14,1.28,-38.84,0.5607,-0.7994,-0.1625,-0.1413,-0.062,0.016,0.039
2025-11-06 18:34:09.387,66.655,-0.298,-0.594,-0.20400000000000001,0.015,-0.9520000000000001,0.303,20.22,1.43,-38.81,0.5617,-0.7991,-0.162,-0.14,-0.075,0.011,0.054
2025-11-06 18:34:09.387,66.66,-0.307,-0.636,-0.20800000000000002,0.025,-0.9490000000000001,0.292,20.22,1.43,-38.81,0.5627,-0.7987000000000001,-0.1615,-0.1385,-0.082,0.007,0.064
2025-11-06 18:34:09.387,66.7,-0.188,-0.68,-0.11,0.016,-0.993,0.293,20.63,2.13,-39.72,0.5697,-0.7969,-0.156,-0.1259,-0.057,0.047,0.055
2025-11-06 18:34:09.387,66.705,-0.176,-0.659,-0.08,0.008,-0.991,0.294,20.57,0.96,-40.25,0.5704,-0.7968000000000001,-0.1552,-0.1246,-0.047,0.045,0.052000000000000005
2025-11-06 18:34:09.387,66.71,-0.157,-0.633,-0.045,0.005,-0.993,0.296,20.57,0.96,-40.25,0.5710000000000001,-0.7967000000000001,-0.1544,-0.1233,-0.043000000000000003,0.046,0.05
2025-11-06 18:34:09.387,66.715,-0.14100000000000001,-0.611,-0.017,0.003,-0.991,0.299,20.57,0.96,-40.25,0.5715,-0.7967000000000001,-0.1535,-0.1221,-0.04,0.044,0.046
2025-11-06 18:34:09.387,66.72,-0.116,-0.577,0.013000000000000001,0.001,-0.986,0.306,21.66,2.45,-41.24,0.5720000000000001,-0.7967000000000001,-0.1527,-0.12100000000000001,-0.036000000000000004,0.04,0.039
2025-11-06 18:34:09.387,66.725,-0.097,-0.552,0.037,0.005,-0.982,0.31,21.66,2.45,-41.24,0.5724,-0.7967000000000001,-0.15180000000000002,-0.12000000000000001,-0.04,0.035,0.033
2025-11-06 18:34:09.387,66.73,-0.07,-0.523,0.056,0.003,-0.975,0.31,20.84,2.2800000000000002,-41.09,0.5727,-0.7968000000000001,-0.151,-0.11910000000000001,-0.037,0.028,0.034
2025-11-06 18:34:09.387,66.735,-0.042,-0.501,0.073,0.0,-0.973,0.307,20.84,2.2800000000000002,-41.09,0.5730000000000001,-0.7969,-0.1501,-0.1182,-0.033,0.025,0.036000000000000004
2025-11-06 18:34:09.387,66.74,-0.006,-0.486,0.092,-0.004,-0.973,0.304,20.84,2.2800000000000002,-41.09,0.5732,-0.797,-0.14930000000000002,-0.1173,-0.029,0.026000000000000002,0.039
2025-11-06 18:34:09.387,66.745,0.036000000000000004,-0.47300000000000003,0.114,-0.005,-0.975,0.31,21.25,2.57,-41.01,0.5733,-0.7972,-0.1484,-0.1165,-0.027,0.028,0.033
2025-11-06 18:34:09.393,66.75,0.07,-0.468,0.126,-0.005,-0.977,0.319,21.25,2.57,-41.01,0.5733,-0.7975,-0.14750000000000002,-0.11570000000000001,-0.027,0.03,0.025
2025-11-06 18:34:09.393,66.755,0.098,-0.48,0.132,-0.008,-0.976,0.327,20.98,2.57,-41.62,0.5732,-0.7978000000000001,-0.1466,-0.1149,-0.024,0.029,0.017
2025-11-06 18:34:09.393,66.76,0.113,-0.496,0.14200000000000002,-0.006,-0.975,0.33,20.98,1.81,-41.62,0.5732,-0.7982,-0.1457,-0.11410000000000001,-0.025,0.028,0.015
2025-11-06 18:34:09.393,66.765,0.112,-0.524,0.145,-0.007,-0.968,0.333,20.98,1.81,-41.62,0.5731,-0.7985,-0.1447,-0.11320000000000001,-0.025,0.022,0.011
2025-11-06 18:34:09.393,66.77,0.101,-0.558,0.148,-0.003,-0.9590000000000001,0.327,20.87,1.87,-41.42,0.5730000000000001,-0.7989,-0.1436,-0.11220000000000001,-0.028,0.013000000000000001,0.019
2025-11-06 18:34:09.393,66.775,0.08,-0.592,0.147,0.008,-0.9540000000000001,0.312,20.87,1.87,-41.42,0.5731,-0.7992,-0.14250000000000002,-0.11120000000000001,-0.04,0.008,0.033
2025-11-06 18:34:09.393,66.78,0.045,-0.629,0.147,0.019,-0.9500000000000001,0.296,20.87,1.87,-41.42,0.5732,-0.7995,-0.1414,-0.1101,-0.051000000000000004,0.003,0.049
2025-11-06 18:34:09.393,66.785,0.007,-0.66,0.14,0.027,-0.9440000000000001,0.281,20.92,2.07,-42.0,0.5734,-0.7997000000000001,-0.14020000000000002,-0.109,-0.058,-0.002,0.065
2025-11-06 18:34:09.393,66.79,-0.026000000000000002,-0.6960000000000001,0.133,0.035,-0.9430000000000001,0.264,20.92,2.07,-42.0,0.5737,-0.7999,-0.139,-0.1078,-0.066,-0.003,0.082
2025-11-06 18:34:09.393,66.795,-0.052000000000000005,-0.73,0.125,0.045,-0.9410000000000001,0.245,20.87,0.96,-42.09,0.5740000000000001,-0.8,-0.13770000000000002,-0.10650000000000001,-0.075,-0.005,0.101
2025-11-06 18:34:09.393,66.8,-0.08,-0.771,0.111,0.043000000000000003,-0.93,0.229,20.87,0.96,-42.09,0.5744,-0.8001,-0.1364,-0.1051,-0.07200000000000001,-0.017,0.116
2025-11-06 18:34:09.393,66.805,-0.094,-0.8220000000000001,0.097,0.044,-0.926,0.211,20.87,0.96,-42.09,0.5749000000000001,-0.8002,-0.135,-0.1037,-0.07200000000000001,-0.021,0.133
2025-11-06 18:34:09.393,66.81,-0.089,-0.854,0.093,0.036000000000000004,-0.925,0.209,20.57,1.78,-42.53,0.5753,-0.8003,-0.1336,-0.10210000000000001,-0.064,-0.022,0.135
2025-11-06 18:34:09.393,66.815,-0.079,-0.859,0.089,0.025,-0.931,0.216,20.57,1.78,-42.53,0.5758,-0.8005,-0.1322,-0.1005,-0.051000000000000004,-0.016,0.128
2025-11-06 18:34:09.393,66.82,-0.064,-0.849,0.08600000000000001,0.008,-0.937,0.218,20.900000000000002,0.93,-42.5,0.5762,-0.8006000000000001,-0.1308,-0.099,-0.033,-0.011,0.125
2025-11-06 18:34:09.393,66.825,-0.05,-0.835,0.081,-0.007,-0.9430000000000001,0.219,20.900000000000002,0.93,-42.5,0.5766,-0.8007000000000001,-0.1295,-0.0974,-0.016,-0.005,0.124
2025-11-06 18:34:09.393,66.83,-0.042,-0.8210000000000001,0.076,-0.031,-0.9480000000000001,0.222,20.900000000000002,0.93,-42.5,0.5769000000000001,-0.8009000000000001,-0.1282,-0.0959,0.008,0.0,0.121
2025-11-06 18:34:09.394,66.835,-0.016,-0.774,0.07,-0.057,-0.9560000000000001,0.231,20.52,2.16,-42.67,0.5772,-0.801,-0.127,-0.0945,0.035,0.007,0.112
2025-11-06 18:34:09.394,66.84,-0.001,-0.735,0.066,-0.078,-0.964,0.243,20.52,2.16,-42.67,0.5775,-0.8012,-0.1258,-0.0931,0.057,0.015,0.1
2025-11-06 18:34:09.394,66.845,0.016,-0.675,0.063,-0.097,-0.977,0.259,21.13,1.6,-43.75,0.5776,-0.8014,-0.1247,-0.0918,0.077,0.028,0.084
2025-11-06 18:34:09.394,66.85,0.032,-0.608,0.063,-0.114,-0.991,0.28,21.13,1.6,-43.75,0.5778,-0.8016000000000001,-0.1237,-0.0907,0.094,0.042,0.063
2025-11-06 18:34:09.394,66.855,0.054,-0.528,0.063,-0.133,-1.0030000000000001,0.3,21.13,1.6,-43.75,0.5778,-0.8018000000000001,-0.12290000000000001,-0.0897,0.114,0.055,0.044
2025-11-06 18:34:09.394,66.86,0.082,-0.443,0.062,-0.15,-1.0230000000000001,0.331,21.16,1.43,-43.49,0.5778,-0.802,-0.1221,-0.0889,0.131,0.075,0.014
2025-11-06 18:34:09.394,66.865,0.101,-0.365,0.063,-0.156,-1.036,0.354,21.16,1.43,-43.49,0.5777,-0.8022,-0.12150000000000001,-0.0882,0.137,0.088,-0.008
2025-11-06 18:34:09.394,66.87,0.111,-0.309,0.062,-0.155,-1.048,0.372,21.28,1.6300000000000001,-43.43,0.5775,-0.8025,-0.12100000000000001,-0.0877,0.137,0.101,-0.025
2025-11-06 18:34:09.394,66.875,0.107,-0.253,0.059000000000000004,-0.149,-1.06,0.389,21.28,1.6300000000000001,-43.43,0.5774,-0.8027000000000001,-0.12050000000000001,-0.0872,0.131,0.114,-0.041
2025-11-06 18:34:09.394,66.88,0.092,-0.211,0.058,-0.139,-1.07,0.406,21.28,1.6300000000000001,-43.43,0.5772,-0.8029000000000001,-0.12010000000000001,-0.0868,0.121,0.125,-0.058
2025-11-06 18:34:09.394,66.885,0.07100000000000001,-0.177,0.052000000000000005,-0.123,-1.075,0.41600000000000004,20.490000000000002,1.69,-43.11,0.5771000000000001,-0.8031,-0.1198,-0.08650000000000001,0.105,0.13,-0.067
2025-11-06 18:34:09.394,66.89,0.015,-0.147,0.039,-0.094,-1.074,0.41300000000000003,20.490000000000002,1.69,-43.11,0.5771000000000001,-0.8031,-0.11950000000000001,-0.0863,0.076,0.129,-0.063
2025-11-06 18:34:09.394,66.895,-0.03,-0.14,0.031,-0.073,-1.066,0.402,21.830000000000002,0.23,-43.4,0.5772,-0.8031,-0.1193,-0.08600000000000001,0.056,0.121,-0.053
2025-11-06 18:34:09.394,66.9,-0.082,-0.14300000000000002,0.02,-0.055,-1.055,0.385,21.830000000000002,0.23,-43.4,0.5774,-0.803,-0.11900000000000001,-0.0858,0.038,0.109,-0.036000000000000004
2025-11-06 18:34:09.394,66.905,-0.13,-0.157,0.013000000000000001,-0.034,-1.036,0.357,21.830000000000002,0.23,-43.4,0.5778,-0.8029000000000001,-0.1187,-0.08560000000000001,0.016,0.09,-0.009000000000000001
2025-11-06 18:34:09.394,66.91,-0.169,-0.193,0.007,-0.011,-1.014,0.332,21.48,1.43,-43.78,0.5782,-0.8027000000000001,-0.1184,-0.0852,-0.005,0.067,0.013000000000000001
2025-11-06 18:34:09.394,66.915,-0.196,-0.24,0.005,0.013000000000000001,-0.99,0.298,21.48,1.43,-43.78,0.5786,-0.8024,-0.11800000000000001,-0.0848,-0.03,0.043000000000000003,0.046
2025-11-06 18:34:09.394,66.955,-0.053,-0.669,0.061,0.08700000000000001,-0.918,0.209,21.89,1.11,-44.4,0.5826,-0.8013,-0.1111,-0.07680000000000001,-0.099,-0.032,0.127
2025-11-06 18:34:09.394,66.96,-0.019,-0.663,0.067,0.074,-0.927,0.214,21.54,0.46,-44.46,0.5828,-0.8014,-0.1101,-0.0756,-0.084,-0.022,0.122
2025-11-06 18:34:09.394,66.965,0.014,-0.649,0.07100000000000001,0.057,-0.936,0.225,21.54,0.46,-44.46,0.5830000000000001,-0.8016000000000001,-0.109,-0.07440000000000001,-0.067,-0.014,0.111
2025-11-06 18:34:09.394,66.97,0.045,-0.622,0.076,0.041,-0.9440000000000001,0.23700000000000002,21.22,1.6600000000000001,-45.22,0.5831000000000001,-0.8018000000000001,-0.108,-0.0732,-0.05,-0.006,0.099
2025-11-06 18:34:09.394,66.975,0.077,-0.587,0.079,0.017,-0.9520000000000001,0.257,21.22,1.6600000000000001,-45.22,0.5831000000000001,-0.802,-0.10700000000000001,-0.0721,-0.025,0.002,0.08
2025-11-06 18:34:09.394,66.98,0.098,-0.545,0.079,-0.002,-0.9580000000000001,0.275,21.22,1.6600000000000001,-45.22,0.5830000000000001,-0.8023,-0.1061,-0.0711,-0.005,0.008,0.062
2025-11-06 18:34:09.394,66.985,0.11900000000000001,-0.487,0.08,-0.025,-0.961,0.298,21.830000000000002,0.05,-44.89,0.5829,-0.8025,-0.1053,-0.0702,0.017,0.012,0.04
2025-11-06 18:34:09.394,66.99,0.125,-0.448,0.078,-0.041,-0.962,0.312,21.830000000000002,0.05,-44.89,0.5828,-0.8028000000000001,-0.10450000000000001,-0.0694,0.034,0.013000000000000001,0.026000000000000002
2025-11-06 18:34:09.394,66.995,0.13,-0.421,0.077,-0.055,-0.961,0.325,21.95,0.4,-44.660000000000004,0.5826,-0.8031,-0.1037,-0.06860000000000001,0.048,0.013000000000000001,0.014
2025-11-06 18:34:09.394,67.0,0.134,-0.396,0.07100000000000001,-0.062,-0.9560000000000001,0.341,21.95,0.4,-44.660000000000004,0.5824,-0.8034,-0.10310000000000001,-0.0679,0.055,0.008,-0.001
2025-11-06 18:34:09.394,67.005,0.139,-0.371,0.063,-0.075,-0.9500000000000001,0.352,21.95,0.4,-44.660000000000004,0.5822,-0.8036000000000001,-0.1024,-0.06720000000000001,0.068,0.002,-0.012
2025-11-06 18:34:09.395,67.01,0.136,-0.34700000000000003,0.058,-0.082,-0.9430000000000001,0.359,21.25,0.87,-44.37,0.5820000000000001,-0.8039000000000001,-0.1018,-0.0666,0.075,-0.004,-0.018000000000000002
2025-11-06 18:34:09.395,67.015,0.137,-0.34400000000000003,0.055,-0.082,-0.937,0.358,21.25,0.87,-44.37,0.5818,-0.8042,-0.1012,-0.066,0.075,-0.009000000000000001,-0.016
2025-11-06 18:34:09.395,67.02,0.132,-0.34400000000000003,0.051000000000000004,-0.073,-0.926,0.355,21.25,0.87,-44.37,0.5816,-0.8045,-0.10060000000000001,-0.0654,0.067,-0.02,-0.013000000000000001
2025-11-06 18:34:09.395,67.025,0.126,-0.339,0.051000000000000004,-0.067,-0.915,0.35000000000000003,21.19,1.16,-44.6,0.5814,-0.8047000000000001,-0.10010000000000001,-0.06470000000000001,0.061,-0.031,-0.008
2025-11-06 18:34:09.395,67.03,0.12,-0.334,0.045,-0.057,-0.902,0.34,21.19,1.16,-44.6,0.5812,-0.805,-0.0995,-0.0641,0.051000000000000004,-0.044,0.002
2025-11-06 18:34:09.395,67.035,0.10300000000000001,-0.341,0.038,-0.045,-0.888,0.323,21.01,-0.35000000000000003,-44.89,0.5811000000000001,-0.8052,-0.099,-0.0634,0.04,-0.058,0.019
2025-11-06 18:34:09.395,67.04,0.084,-0.34700000000000003,0.03,-0.035,-0.872,0.309,21.01,-0.35000000000000003,-44.89,0.5810000000000001,-0.8054,-0.0984,-0.0627,0.03,-0.074,0.033
2025-11-06 18:34:09.395,67.045,0.067,-0.355,0.03,-0.024,-0.867,0.291,21.01,-0.35000000000000003,-44.89,0.5810000000000001,-0.8055,-0.0979,-0.0621,0.02,-0.079,0.051000000000000004
2025-11-06 18:34:09.395,67.05,0.051000000000000004,-0.356,0.025,-0.012,-0.863,0.273,21.3,1.57,-45.01,0.5810000000000001,-0.8057000000000001,-0.09730000000000001,-0.0614,0.008,-0.084,0.07
2025-11-06 18:34:09.395,67.055,0.039,-0.34900000000000003,0.019,-0.008,-0.866,0.264,21.3,1.57,-45.01,0.5810000000000001,-0.8058000000000001,-0.09680000000000001,-0.060700000000000004,0.004,-0.08,0.079
2025-11-06 18:34:09.395,67.06,0.03,-0.331,0.019,-0.001,-0.877,0.253,21.1,1.31,-44.81,0.5810000000000001,-0.8059000000000001,-0.09630000000000001,-0.060000000000000005,-0.001,-0.07,0.09
2025-11-06 18:34:09.395,67.065,0.012,-0.339,0.022,-0.006,-0.892,0.243,21.1,1.31,-44.81,0.5810000000000001,-0.8059000000000001,-0.09580000000000001,-0.0594,0.004,-0.055,0.1
