System_Time,Timestamp,Gyro_X,Gyro_Y,Gyro_Z,Acc_X,Acc_Y,Acc_Z,Mag_X,Mag_Y,Mag_Z,Quat_W,Quat_X,Quat_Y,Quat_Z,Linear_Acc_X,Linear_Acc_Y,Linear_Acc_Z
2025-11-06 18:34:09.377,52.15,-0.012,0.01,-0.009000000000000001,-0.084,-0.968,-0.187,31.21,-22.88,-75.27,0.5880000000000001,-0.5268,-0.3612,-0.49610000000000004,-0.006,-0.009000000000000001,0.003
2025-11-06 18:34:09.377,52.155,-0.006,0.003,-0.009000000000000001,-0.083,-0.969,-0.188,31.39,-24.02,-75.21000000000001,0.5882000000000001,-0.5264,-0.3613,-0.49610000000000004,-0.006,-0.009000000000000001,0.003
2025-11-06 18:34:09.377,52.16,-0.005,0.0,-0.01,-0.082,-0.968,-0.187,31.39,-24.02,-75.21000000000001,0.5885,-0.5262,-0.3614,-0.496,-0.007,-0.009000000000000001,0.002
2025-11-06 18:34:09.377,52.165,-0.006,0.0,-0.011,-0.081,-0.969,-0.188,31.39,-24.02,-75.21000000000001,0.5887,-0.5259,-0.36160000000000003,-0.4959,-0.007,-0.009000000000000001,0.002
2025-11-06 18:34:09.377,52.17,-0.008,0.0,-0.012,-0.079,-0.971,-0.19,31.740000000000002,-22.36,-75.15,0.5890000000000001,-0.5255000000000001,-0.3617,-0.4959,-0.008,-0.007,0.004
2025-11-06 18:34:09.377,52.175,-0.013000000000000001,-0.002,-0.013000000000000001,-0.08,-0.968,-0.189,31.740000000000002,-22.36,-75.15,0.5893,-0.5252,-0.3618,-0.4958,-0.007,-0.009000000000000001,0.002
2025-11-06 18:34:09.377,52.18,-0.009000000000000001,-0.005,-0.012,-0.079,-0.967,-0.186,32.32,-23.0,-75.7,0.5895,-0.525,-0.36200000000000004,-0.49570000000000003,-0.007,-0.011,0.0
2025-11-06 18:34:09.377,52.185,-0.011,-0.001,-0.013000000000000001,-0.08,-0.966,-0.185,32.32,-23.0,-75.7,0.5896,-0.5248,-0.36210000000000003,-0.49560000000000004,-0.006,-0.011,-0.001
2025-11-06 18:34:09.377,52.19,-0.011,0.0,-0.013000000000000001,-0.079,-0.966,-0.185,32.32,-23.0,-75.7,0.5898,-0.5247,-0.3623,-0.4955,-0.006,-0.011,-0.001
2025-11-06 18:34:09.377,52.195,-0.011,0.0,-0.014,-0.078,-0.969,-0.188,31.21,-24.67,-75.24,0.5900000000000001,-0.5245000000000001,-0.3624,-0.4954,-0.006,-0.009000000000000001,0.0
2025-11-06 18:34:09.377,52.2,-0.015,0.0,-0.013000000000000001,-0.079,-0.969,-0.19,31.21,-24.67,-75.24,0.5902000000000001,-0.5242,-0.3624,-0.4953,-0.005,-0.009000000000000001,0.002
2025-11-06 18:34:09.377,52.205,-0.017,-0.003,-0.012,-0.08,-0.967,-0.186,30.86,-22.650000000000002,-75.35000000000001,0.5903,-0.5241,-0.36250000000000004,-0.4953,-0.003,-0.01,-0.001
2025-11-06 18:34:09.377,52.21,-0.012,-0.004,-0.01,-0.082,-0.967,-0.186,30.86,-22.650000000000002,-75.35000000000001,0.5904,-0.524,-0.36250000000000004,-0.4953,-0.002,-0.01,-0.001
2025-11-06 18:34:09.377,52.215,-0.015,-0.004,-0.011,-0.084,-0.966,-0.184,30.86,-22.650000000000002,-74.94,0.5903,-0.5241,-0.36250000000000004,-0.4953,0.0,-0.011,-0.003
2025-11-06 18:34:09.377,52.22,-0.017,-0.007,-0.015,-0.083,-0.969,-0.187,30.66,-22.740000000000002,-74.94,0.5904,-0.524,-0.3624,-0.4953,0.0,-0.008,0.0
2025-11-06 18:34:09.377,52.225,-0.02,-0.011,-0.015,-0.084,-0.97,-0.192,30.66,-22.740000000000002,-74.94,0.5906,-0.5238,-0.3623,-0.4953,0.0,-0.008,0.004
2025-11-06 18:34:09.377,52.23,-0.022,-0.023,-0.018000000000000002,-0.085,-0.971,-0.196,31.01,-22.240000000000002,-74.86,0.5908,-0.5237,-0.36200000000000004,-0.4955,0.001,-0.006,0.006
2025-11-06 18:34:09.377,52.235,-0.019,-0.03,-0.02,-0.08700000000000001,-0.968,-0.194,31.01,-22.240000000000002,-74.86,0.5909,-0.5236000000000001,-0.3617,-0.49560000000000004,0.003,-0.009000000000000001,0.004
2025-11-06 18:34:09.377,52.24,-0.018000000000000002,-0.031,-0.019,-0.08600000000000001,-0.966,-0.193,30.57,-22.71,-75.06,0.5911000000000001,-0.5235000000000001,-0.36150000000000004,-0.49570000000000003,0.001,-0.011,0.002
2025-11-06 18:34:09.377,52.245,-0.017,-0.032,-0.021,-0.08600000000000001,-0.966,-0.192,30.57,-22.71,-75.06,0.5912000000000001,-0.5234,-0.3613,-0.4958,0.001,-0.011,0.001
2025-11-06 18:34:09.377,52.25,-0.014,-0.033,-0.022,-0.08700000000000001,-0.966,-0.192,30.57,-22.71,-75.06,0.5913,-0.5234,-0.36100000000000004,-0.4958,0.002,-0.01,0.001
2025-11-06 18:34:09.378,52.255,-0.011,-0.038,-0.02,-0.08600000000000001,-0.968,-0.193,30.89,-22.71,-75.12,0.5914,-0.5234,-0.3609,-0.4959,0.001,-0.009000000000000001,0.001
2025-11-06 18:34:09.378,52.26,-0.01,-0.041,-0.02,-0.085,-0.967,-0.193,30.89,-22.71,-75.12,0.5915,-0.5234,-0.3607,-0.4959,0.0,-0.01,0.0
2025-11-06 18:34:09.378,52.265,-0.011,-0.039,-0.019,-0.08600000000000001,-0.965,-0.192,31.01,-22.44,-75.38,0.5916,-0.5234,-0.36050000000000004,-0.4959,0.0,-0.012,0.0
2025-11-06 18:34:09.378,52.27,-0.012,-0.036000000000000004,-0.019,-0.085,-0.965,-0.192,31.01,-22.44,-75.38,0.5917,-0.5234,-0.3604,-0.4959,0.0,-0.012,0.0
2025-11-06 18:34:09.378,52.275,-0.015,-0.032,-0.017,-0.085,-0.967,-0.191,31.01,-22.44,-75.38,0.5918,-0.5233,-0.3603,-0.4959,0.0,-0.01,-0.001
2025-11-06 18:34:09.378,52.28,-0.015,-0.029,-0.014,-0.08600000000000001,-0.965,-0.19,30.72,-24.37,-75.27,0.5918,-0.5234,-0.3602,-0.4958,0.0,-0.011,-0.002
2025-11-06 18:34:09.378,52.285,-0.017,-0.024,-0.015,-0.084,-0.967,-0.189,30.72,-24.37,-75.27,0.5918,-0.5234,-0.3602,-0.4958,0.0,-0.009000000000000001,-0.003
2025-11-06 18:34:09.378,52.29,-0.016,-0.021,-0.015,-0.085,-0.967,-0.19,31.13,-23.32,-75.41,0.5919,-0.5234,-0.3602,-0.49570000000000003,0.0,-0.01,-0.002
2025-11-06 18:34:09.378,52.295,-0.02,-0.02,-0.015,-0.085,-0.967,-0.193,31.13,-23.32,-75.41,0.5920000000000001,-0.5234,-0.36010000000000003,-0.4958,0.0,-0.009000000000000001,0.0
2025-11-06 18:34:09.378,52.3,-0.024,-0.021,-0.017,-0.08700000000000001,-0.966,-0.195,31.13,-23.32,-75.41,0.5921000000000001,-0.5233,-0.3599,-0.4959,0.001,-0.01,0.001
2025-11-06 18:34:09.378,52.305,-0.022,-0.024,-0.019,-0.088,-0.967,-0.194,31.560000000000002,-23.38,-75.03,0.5922000000000001,-0.5233,-0.3597,-0.4959,0.002,-0.009000000000000001,0.001
2025-11-06 18:34:09.378,52.31,-0.026000000000000002,-0.024,-0.017,-0.085,-0.966,-0.193,31.560000000000002,-23.38,-75.03,0.5923,-0.5232,-0.35960000000000003,-0.4959,0.0,-0.011,0.0
2025-11-06 18:34:09.378,52.315,-0.023,-0.027,-0.02,-0.08700000000000001,-0.966,-0.194,30.98,-22.42,-75.47,0.5923,-0.5232,-0.3594,-0.496,0.0,-0.011,0.0
2025-11-06 18:34:09.378,52.32,-0.022,-0.031,-0.024,-0.08600000000000001,-0.967,-0.195,30.98,-22.42,-75.47,0.5925,-0.5231,-0.3593,-0.496,0.0,-0.009000000000000001,0.001
2025-11-06 18:34:09.378,52.325,-0.017,-0.03,-0.026000000000000002,-0.084,-0.966,-0.198,30.89,-23.12,-74.97,0.5927,-0.5229,-0.3592,-0.496,-0.002,-0.01,0.003
2025-11-06 18:34:09.378,52.33,-0.012,-0.04,-0.029,-0.082,-0.966,-0.198,30.89,-23.12,-74.97,0.5929,-0.5227,-0.35910000000000003,-0.496,-0.003,-0.01,0.002
2025-11-06 18:34:09.378,52.335,-0.011,-0.041,-0.029,-0.081,-0.966,-0.197,30.89,-23.12,-74.97,0.5931000000000001,-0.5226000000000001,-0.35910000000000003,-0.4959,-0.003,-0.01,0.001
2025-11-06 18:34:09.378,52.34,-0.009000000000000001,-0.039,-0.026000000000000002,-0.08,-0.967,-0.197,31.01,-22.94,-75.79,0.5934,-0.5224,-0.35910000000000003,-0.4958,-0.004,-0.009000000000000001,0.0
2025-11-06 18:34:09.378,52.345,-0.013000000000000001,-0.037,-0.024,-0.075,-0.968,-0.194,31.01,-22.94,-75.79,0.5936,-0.5223,-0.3593,-0.49560000000000004,-0.008,-0.008,-0.002
2025-11-06 18:34:09.378,52.35,-0.017,-0.037,-0.023,-0.076,-0.971,-0.191,31.71,-23.03,-76.03,0.5937,-0.5222,-0.35960000000000003,-0.4953,-0.006,-0.005,-0.004
2025-11-06 18:34:09.378,52.355,-0.019,-0.037,-0.02,-0.076,-0.97,-0.188,31.71,-23.03,-76.03,0.5937,-0.5223,-0.3598,-0.49500000000000005,-0.006,-0.006,-0.007
2025-11-06 18:34:09.378,52.36,-0.025,-0.035,-0.02,-0.076,-0.971,-0.185,31.71,-23.03,-76.03,0.5937,-0.5224,-0.36010000000000003,-0.49470000000000003,-0.005,-0.005,-0.009000000000000001
2025-11-06 18:34:09.382,52.365,-0.025,-0.04,-0.021,-0.076,-0.97,-0.181,31.07,-24.580000000000002,-75.41,0.5936,-0.5226000000000001,-0.3604,-0.4944,-0.005,-0.007,-0.012
2025-11-06 18:34:09.382,52.37,-0.027,-0.046,-0.021,-0.076,-0.969,-0.181,31.07,-24.580000000000002,-75.41,0.5936,-0.5228,-0.3607,-0.49400000000000005,-0.005,-0.008,-0.012
2025-11-06 18:34:09.382,52.375,-0.031,-0.054,-0.024,-0.079,-0.969,-0.178,30.95,-24.75,-75.47,0.5934,-0.5231,-0.3609,-0.4937,-0.001,-0.008,-0.013000000000000001
2025-11-06 18:34:09.382,52.38,-0.036000000000000004,-0.058,-0.024,-0.08,-0.969,-0.179,30.95,-24.75,-75.47,0.5933,-0.5234,-0.36110000000000003,-0.4934,0.0,-0.008,-0.012
2025-11-06 18:34:09.382,52.385,-0.042,-0.062,-0.026000000000000002,-0.081,-0.969,-0.181,30.95,-24.75,-75.47,0.5932000000000001,-0.5236000000000001,-0.36110000000000003,-0.4933,0.0,-0.009000000000000001,-0.009000000000000001
2025-11-06 18:34:09.382,52.39,-0.044,-0.067,-0.027,-0.082,-0.966,-0.183,31.07,-22.59,-75.85000000000001,0.5932000000000001,-0.5238,-0.36100000000000004,-0.49310000000000004,0.001,-0.011,-0.006
2025-11-06 18:34:09.382,52.395,-0.044,-0.069,-0.029,-0.083,-0.964,-0.185,31.07,-22.59,-75.85000000000001,0.5932000000000001,-0.524,-0.3609,-0.49310000000000004,0.002,-0.013000000000000001,-0.005
2025-11-06 18:34:09.382,52.4,-0.039,-0.07200000000000001,-0.031,-0.085,-0.964,-0.187,30.86,-22.91,-76.61,0.5933,-0.5241,-0.36060000000000003,-0.49310000000000004,0.003,-0.013000000000000001,-0.003
2025-11-06 18:34:09.382,52.405,-0.038,-0.07100000000000001,-0.034,-0.08700000000000001,-0.963,-0.191,30.86,-22.91,-76.61,0.5934,-0.5241,-0.3603,-0.4932,0.004,-0.014,0.0
2025-11-06 18:34:09.382,52.41,-0.039,-0.07100000000000001,-0.037,-0.085,-0.964,-0.191,31.16,-24.29,-76.7,0.5935,-0.5241,-0.36000000000000004,-0.4932,0.002,-0.013000000000000001,0.0
2025-11-06 18:34:09.382,52.415,-0.034,-0.069,-0.039,-0.083,-0.965,-0.196,31.16,-24.29,-76.7,0.5938,-0.5239,-0.3597,-0.4932,0.0,-0.012,0.004
2025-11-06 18:34:09.382,52.42,-0.031,-0.063,-0.038,-0.084,-0.966,-0.196,31.16,-24.29,-76.7,0.5940000000000001,-0.5238,-0.35950000000000004,-0.4933,0.001,-0.011,0.003
2025-11-06 18:34:09.382,52.425,-0.03,-0.062,-0.039,-0.085,-0.969,-0.199,31.240000000000002,-24.78,-75.67,0.5943,-0.5237,-0.35910000000000003,-0.4934,0.003,-0.008,0.005
2025-11-06 18:34:09.382,52.43,-0.027,-0.066,-0.039,-0.08600000000000001,-0.968,-0.199,31.240000000000002,-24.78,-75.67,0.5945,-0.5236000000000001,-0.3588,-0.49350000000000005,0.003,-0.009000000000000001,0.004
2025-11-06 18:34:09.382,52.435,-0.028,-0.063,-0.038,-0.089,-0.968,-0.196,31.21,-23.09,-76.32000000000001,0.5946,-0.5236000000000001,-0.35850000000000004,-0.49360000000000004,0.005,-0.009000000000000001,0.001
2025-11-06 18:34:09.382,52.44,-0.026000000000000002,-0.063,-0.035,-0.092,-0.966,-0.187,31.21,-23.09,-76.32000000000001,0.5944,-0.524,-0.3582,-0.49360000000000004,0.008,-0.01,-0.007
2025-11-06 18:34:09.382,52.445,-0.026000000000000002,-0.058,-0.034,-0.091,-0.964,-0.182,31.21,-23.09,-76.32000000000001,0.5942000000000001,-0.5244,-0.35810000000000003,-0.49350000000000005,0.006,-0.012,-0.011
2025-11-06 18:34:09.382,52.45,-0.025,-0.052000000000000005,-0.034,-0.093,-0.966,-0.182,31.54,-22.09,-76.08,0.5940000000000001,-0.5249,-0.3579,-0.4934,0.007,-0.01,-0.01
2025-11-06 18:34:09.382,52.455,-0.024,-0.061,-0.032,-0.095,-0.969,-0.184,31.54,-22.09,-76.08,0.5938,-0.5253,-0.3577,-0.4934,0.008,-0.008,-0.008
2025-11-06 18:34:09.382,52.46,-0.028,-0.066,-0.031,-0.095,-0.97,-0.187,30.95,-22.44,-76.11,0.5936,-0.5256000000000001,-0.3574,-0.4934,0.008,-0.006,-0.004
2025-11-06 18:34:09.382,52.465,-0.034,-0.068,-0.029,-0.092,-0.968,-0.19,30.95,-22.44,-76.11,0.5937,-0.5257000000000001,-0.35710000000000003,-0.4934,0.005,-0.008,-0.001
2025-11-06 18:34:09.382,52.47,-0.036000000000000004,-0.07100000000000001,-0.028,-0.091,-0.967,-0.19,30.95,-22.44,-76.11,0.5937,-0.5258,-0.3569,-0.4934,0.003,-0.009000000000000001,-0.002
2025-11-06 18:34:09.382,52.475,-0.038,-0.068,-0.028,-0.089,-0.969,-0.189,31.62,-22.56,-75.5,0.5938,-0.5259,-0.3568,-0.4933,0.0,-0.007,-0.003
2025-11-06 18:34:09.383,52.48,-0.042,-0.058,-0.028,-0.092,-0.971,-0.187,31.62,-22.56,-75.5,0.5937,-0.5261,-0.35660000000000003,-0.4933,0.004,-0.005,-0.004
2025-11-06 18:34:09.383,52.485,-0.053,-0.054,-0.029,-0.093,-0.976,-0.188,30.75,-25.46,-75.5,0.5937,-0.5262,-0.3564,-0.4933,0.004,0.0,-0.003
2025-11-06 18:34:09.383,52.49,-0.064,-0.055,-0.029,-0.095,-0.981,-0.188,30.75,-25.46,-75.5,0.5937,-0.5264,-0.3562,-0.4932,0.006,0.003,-0.003
2025-11-06 18:34:09.383,52.495,-0.07,-0.06,-0.029,-0.095,-0.98,-0.188,31.18,-22.5,-75.56,0.5937,-0.5266000000000001,-0.35600000000000004,-0.4932,0.006,0.003,-0.003
2025-11-06 18:34:09.383,52.5,-0.074,-0.062,-0.034,-0.097,-0.979,-0.187,31.18,-22.5,-75.56,0.5936,-0.5269,-0.3557,-0.4932,0.007,0.002,-0.004
2025-11-06 18:34:09.383,52.505,-0.078,-0.067,-0.037,-0.10200000000000001,-0.979,-0.187,31.18,-22.5,-75.56,0.5935,-0.5272,-0.3553,-0.4933,0.011,0.002,-0.004
2025-11-06 18:34:09.383,52.51,-0.083,-0.063,-0.044,-0.10200000000000001,-0.974,-0.187,31.1,-23.18,-76.84,0.5934,-0.5274,-0.35500000000000004,-0.4934,0.01,-0.002,-0.004
2025-11-06 18:34:09.383,52.515,-0.077,-0.06,-0.049,-0.106,-0.969,-0.189,31.1,-23.18,-76.84,0.5933,-0.5277000000000001,-0.35450000000000004,-0.49360000000000004,0.013000000000000001,-0.007,-0.002
2025-11-06 18:34:09.383,52.52,-0.068,-0.058,-0.05,-0.108,-0.966,-0.192,31.16,-25.16,-76.64,0.5932000000000001,-0.5278,-0.3539,-0.49400000000000005,0.013000000000000001,-0.01,0.0
2025-11-06 18:34:09.383,52.525,-0.061,-0.06,-0.051000000000000004,-0.107,-0.964,-0.191,31.16,-25.16,-76.64,0.5932000000000001,-0.528,-0.35350000000000004,-0.49420000000000003,0.011,-0.012,-0.001
2025-11-06 18:34:09.383,52.53,-0.052000000000000005,-0.058,-0.053,-0.106,-0.962,-0.19,31.16,-25.16,-76.64,0.5931000000000001,-0.5282,-0.3531,-0.4944,0.009000000000000001,-0.013000000000000001,-0.002
2025-11-06 18:34:09.383,52.535,-0.048,-0.059000000000000004,-0.06,-0.097,-0.963,-0.187,31.77,-23.18,-76.55,0.5932000000000001,-0.5282,-0.35300000000000004,-0.49420000000000003,0.0,-0.012,-0.005
2025-11-06 18:34:09.383,52.54,-0.052000000000000005,-0.054,-0.061,-0.094,-0.965,-0.188,31.77,-23.18,-76.55,0.5934,-0.5282,-0.35300000000000004,-0.49400000000000005,-0.002,-0.01,-0.004
2025-11-06 18:34:09.383,52.545,-0.055,-0.052000000000000005,-0.061,-0.09,-0.965,-0.188,31.04,-24.72,-76.46000000000001,0.5936,-0.5281,-0.3531,-0.4938,-0.005,-0.011,-0.004
2025-11-06 18:34:09.383,52.55,-0.063,-0.046,-0.063,-0.089,-0.967,-0.192,31.04,-24.72,-76.46000000000001,0.5940000000000001,-0.5279,-0.3531,-0.49360000000000004,-0.005,-0.009000000000000001,0.0
2025-11-06 18:34:09.383,52.555,-0.07,-0.041,-0.061,-0.089,-0.965,-0.197,31.04,-24.72,-76.46000000000001,0.5944,-0.5275000000000001,-0.35300000000000004,-0.49350000000000005,-0.004,-0.011,0.003
2025-11-06 18:34:09.383,52.56,-0.074,-0.033,-0.063,-0.088,-0.967,-0.202,30.8,-22.27,-76.08,0.5948,-0.5271,-0.35300000000000004,-0.49360000000000004,-0.004,-0.008,0.007
2025-11-06 18:34:09.383,52.565,-0.076,-0.036000000000000004,-0.064,-0.089,-0.97,-0.20700000000000002,30.8,-22.27,-76.08,0.5953,-0.5265000000000001,-0.3528,-0.4937,-0.003,-0.005,0.01
2025-11-06 18:34:09.383,52.57,-0.078,-0.046,-0.067,-0.088,-0.969,-0.211,30.6,-23.12,-76.64,0.5959,-0.5259,-0.3526,-0.4939,-0.003,-0.006,0.012
2025-11-06 18:34:09.383,52.575,-0.08600000000000001,-0.057,-0.068,-0.088,-0.968,-0.215,30.6,-23.12,-76.64,0.5965,-0.5252,-0.3523,-0.49410000000000004,-0.003,-0.007,0.015
2025-11-06 18:34:09.383,52.58,-0.084,-0.067,-0.069,-0.092,-0.965,-0.213,30.6,-23.12,-76.64,0.597,-0.5247,-0.3519,-0.4943,0.0,-0.009000000000000001,0.011
2025-11-06 18:34:09.383,52.585,-0.08600000000000001,-0.076,-0.07200000000000001,-0.094,-0.963,-0.211,31.330000000000002,-22.53,-76.76,0.5974,-0.5243,-0.3514,-0.49450000000000005,0.002,-0.011,0.008
2025-11-06 18:34:09.383,52.59,-0.092,-0.076,-0.074,-0.095,-0.963,-0.20600000000000002,31.330000000000002,-22.53,-76.76,0.5977,-0.5242,-0.35100000000000003,-0.49460000000000004,0.003,-0.011,0.002
2025-11-06 18:34:09.383,52.595,-0.092,-0.076,-0.078,-0.094,-0.962,-0.202,30.830000000000002,-23.150000000000002,-76.26,0.5979,-0.5241,-0.3508,-0.49450000000000005,0.002,-0.012,-0.002
2025-11-06 18:34:09.383,52.6,-0.088,-0.07100000000000001,-0.079,-0.093,-0.962,-0.202,30.830000000000002,-23.150000000000002,-76.26,0.5981000000000001,-0.5241,-0.3506,-0.4944,0.001,-0.012,-0.002
2025-11-06 18:34:09.383,52.605,-0.089,-0.069,-0.078,-0.088,-0.961,-0.196,31.36,-22.59,-76.49,0.5983,-0.5241,-0.3506,-0.49410000000000004,-0.003,-0.013000000000000001,-0.008
2025-11-06 18:34:09.383,52.61,-0.089,-0.059000000000000004,-0.076,-0.083,-0.9580000000000001,-0.193,31.36,-22.59,-76.49,0.5985,-0.5241,-0.3508,-0.4937,-0.006,-0.016,-0.011
2025-11-06 18:34:09.385,52.615,-0.083,-0.056,-0.074,-0.081,-0.9520000000000001,-0.194,31.36,-22.59,-76.49,0.5988,-0.524,-0.3511,-0.4934,-0.008,-0.022,-0.009000000000000001
2025-11-06 18:34:09.385,52.62,-0.083,-0.055,-0.073,-0.084,-0.9500000000000001,-0.196,31.330000000000002,-22.42,-76.81,0.599,-0.5239,-0.3511,-0.4932,-0.004,-0.024,-0.008
2025-11-06 18:34:09.385,52.625,-0.078,-0.052000000000000005,-0.07,-0.094,-0.9500000000000001,-0.201,31.330000000000002,-22.42,-76.81,0.5992000000000001,-0.5239,-0.3508,-0.4932,0.004,-0.024,-0.003
2025-11-06 18:34:09.385,52.63,-0.08,-0.044,-0.067,-0.1,-0.9570000000000001,-0.203,31.48,-22.240000000000002,-76.81,0.5992000000000001,-0.524,-0.3503,-0.4934,0.01,-0.016,-0.002
2025-11-06 18:34:09.385,52.635,-0.081,-0.034,-0.064,-0.097,-0.961,-0.2,31.48,-22.240000000000002,-76.81,0.5992000000000001,-0.5241,-0.35000000000000003,-0.49350000000000005,0.006,-0.013000000000000001,-0.005
2025-11-06 18:34:09.385,52.64,-0.077,-0.025,-0.061,-0.09,-0.963,-0.196,31.48,-22.240000000000002,-76.81,0.5993,-0.5242,-0.35000000000000003,-0.4933,0.0,-0.011,-0.009000000000000001
2025-11-06 18:34:09.385,52.645,-0.074,-0.021,-0.057,-0.085,-0.962,-0.192,31.04,-22.94,-77.55,0.5993,-0.5243,-0.3503,-0.4929,-0.004,-0.011,-0.013000000000000001
2025-11-06 18:34:09.385,52.65,-0.077,-0.016,-0.05,-0.08600000000000001,-0.96,-0.188,31.04,-22.94,-77.55,0.5993,-0.5246000000000001,-0.35050000000000003,-0.49260000000000004,-0.003,-0.014,-0.015
2025-11-06 18:34:09.385,52.655,-0.089,-0.019,-0.046,-0.08700000000000001,-0.9560000000000001,-0.189,30.95,-22.56,-76.9,0.5993,-0.5247,-0.3506,-0.4923,-0.002,-0.018000000000000002,-0.014
2025-11-06 18:34:09.385,52.66,-0.095,-0.028,-0.043000000000000003,-0.08,-0.9540000000000001,-0.194,30.95,-22.56,-76.9,0.5995,-0.5246000000000001,-0.3508,-0.49210000000000004,-0.008,-0.02,-0.009000000000000001
2025-11-06 18:34:09.385,52.665,-0.098,-0.038,-0.043000000000000003,-0.077,-0.9510000000000001,-0.195,30.95,-22.56,-76.9,0.5998,-0.5244,-0.35100000000000003,-0.4918,-0.01,-0.023,-0.008
2025-11-06 18:34:09.385,52.67,-0.095,-0.046,-0.037,-0.084,-0.9490000000000001,-0.193,31.240000000000002,-22.53,-75.88,0.5999,-0.5244,-0.35100000000000003,-0.49160000000000004,-0.003,-0.025,-0.01
2025-11-06 18:34:09.385,52.675,-0.094,-0.046,-0.032,-0.096,-0.9490000000000001,-0.185,31.240000000000002,-22.53,-75.88,0.5996,-0.5249,-0.3508,-0.49160000000000004,0.008,-0.025,-0.017
2025-11-06 18:34:09.385,52.68,-0.101,-0.025,-0.029,-0.088,-0.9490000000000001,-0.177,30.830000000000002,-22.56,-76.67,0.5994,-0.5254,-0.3509,-0.4913,0.0,-0.025,-0.024
2025-11-06 18:34:09.385,52.685,-0.10300000000000001,-0.011,-0.028,-0.084,-0.9520000000000001,-0.171,30.830000000000002,-22.56,-76.67,0.5991000000000001,-0.526,-0.3513,-0.4907,-0.004,-0.023,-0.029
2025-11-06 18:34:09.386,52.69,-0.101,0.001,-0.027,-0.08600000000000001,-0.9580000000000001,-0.17,31.21,-24.72,-77.14,0.5987,-0.5265000000000001,-0.3517,-0.4903,-0.001,-0.017,-0.027
2025-11-06 18:34:09.386,52.695,-0.097,0.003,-0.031,-0.089,-0.963,-0.181,31.21,-24.72,-77.14,0.5986,-0.5268,-0.3518,-0.49010000000000004,0.0,-0.012,-0.016
2025-11-06 18:34:09.386,52.7,-0.095,-0.017,-0.023,-0.08700000000000001,-0.969,-0.196,31.21,-24.72,-77.14,0.5987,-0.5267000000000001,-0.3517,-0.49010000000000004,0.0,-0.006,-0.001
2025-11-06 18:34:09.386,52.705,-0.1,-0.027,-0.017,-0.08700000000000001,-0.966,-0.198,31.42,-22.42,-77.11,0.5989,-0.5265000000000001,-0.35150000000000003,-0.4902,0.0,-0.009000000000000001,0.0
2025-11-06 18:34:09.386,52.71,-0.10300000000000001,-0.024,-0.012,-0.085,-0.961,-0.197,31.42,-22.42,-77.11,0.5992000000000001,-0.5263,-0.3514,-0.4903,-0.002,-0.014,-0.001
2025-11-06 18:34:09.386,52.715,-0.111,-0.011,-0.009000000000000001,-0.081,-0.9570000000000001,-0.189,31.330000000000002,-22.47,-76.43,0.5993,-0.5263,-0.35150000000000003,-0.49010000000000004,-0.006,-0.018000000000000002,-0.009000000000000001
2025-11-06 18:34:09.386,52.72,-0.117,-0.002,-0.006,-0.079,-0.9560000000000001,-0.185,31.330000000000002,-22.47,-76.43,0.5994,-0.5263,-0.3517,-0.4898,-0.008,-0.019,-0.013000000000000001
2025-11-06 18:34:09.386,52.725,-0.12,0.018000000000000002,0.0,-0.081,-0.9560000000000001,-0.183,31.330000000000002,-22.47,-76.43,0.5994,-0.5263,-0.3518,-0.48960000000000004,-0.005,-0.019,-0.015
2025-11-06 18:34:09.386,52.73,-0.121,0.032,0.001,-0.077,-0.9590000000000001,-0.186,31.240000000000002,-22.650000000000002,-76.55,0.5995,-0.5263,-0.3521,-0.4894,-0.009000000000000001,-0.016,-0.012
2025-11-06 18:34:09.386,52.735,-0.123,0.038,0.003,-0.067,-0.962,-0.188,31.240000000000002,-22.650000000000002,-76.55,0.5999,-0.526,-0.35250000000000004,-0.4889,-0.017,-0.013000000000000001,-0.009000000000000001
2025-11-06 18:34:09.386,52.74,-0.122,0.041,0.008,-0.06,-0.964,-0.187,31.18,-22.5,-76.46000000000001,0.6003000000000001,-0.5256000000000001,-0.3531,-0.4883,-0.022,-0.012,-0.011
2025-11-06 18:34:09.386,52.745,-0.11900000000000001,0.046,0.015,-0.053,-0.963,-0.177,31.18,-22.5,-76.46000000000001,0.6006,-0.5255000000000001,-0.35400000000000004,-0.48750000000000004,-0.027,-0.013000000000000001,-0.02
2025-11-06 18:34:09.386,52.75,-0.112,0.051000000000000004,0.022,-0.049,-0.967,-0.169,31.18,-22.5,-76.46000000000001,0.6008,-0.5255000000000001,-0.3551,-0.4864,-0.029,-0.01,-0.027
2025-11-06 18:34:09.386,52.755,-0.108,0.055,0.031,-0.04,-0.971,-0.162,31.3,-22.01,-76.64,0.6009,-0.5255000000000001,-0.35650000000000004,-0.4852,-0.034,-0.006,-0.031
2025-11-06 18:34:09.386,52.76,-0.11,0.057,0.036000000000000004,-0.036000000000000004,-0.978,-0.161,31.3,-22.01,-76.64,0.6011000000000001,-0.5256000000000001,-0.35800000000000004,-0.4839,-0.036000000000000004,0.0,-0.03
2025-11-06 18:34:09.386,52.765,-0.111,0.047,0.045,-0.041,-0.987,-0.156,31.07,-23.23,-77.37,0.6009,-0.5258,-0.3593,-0.4828,-0.028,0.008,-0.032
2025-11-06 18:34:09.386,52.77,-0.123,0.047,0.054,-0.048,-1.0010000000000001,-0.147,31.07,-23.23,-77.37,0.6003000000000001,-0.5263,-0.3608,-0.48200000000000004,-0.019,0.022,-0.038
2025-11-06 18:34:09.387,52.775,-0.136,0.056,0.053,-0.053,-1.0090000000000001,-0.139,30.86,-21.98,-77.84,0.5993,-0.527,-0.3622,-0.4813,-0.013000000000000001,0.029,-0.043000000000000003
2025-11-06 18:34:09.387,52.78,-0.155,0.061,0.047,-0.045,-1.012,-0.139,30.86,-21.98,-77.84,0.5987,-0.5275000000000001,-0.3637,-0.48040000000000005,-0.019,0.031,-0.04
2025-11-06 18:34:09.387,52.785,-0.176,0.055,0.042,-0.05,-1.014,-0.132,30.86,-21.98,-77.84,0.5978,-0.5281,-0.3652,-0.4798,-0.013000000000000001,0.032,-0.043000000000000003
2025-11-06 18:34:09.387,52.79,-0.186,0.047,0.036000000000000004,-0.053,-1.0130000000000001,-0.128,31.3,-22.5,-77.69,0.5967,-0.5288,-0.36660000000000004,-0.4793,-0.009000000000000001,0.03,-0.044
2025-11-06 18:34:09.387,52.795,-0.20500000000000002,0.023,0.025,-0.052000000000000005,-1.008,-0.133,31.3,-22.5,-77.69,0.5961000000000001,-0.5293,-0.36760000000000004,-0.4787,-0.009000000000000001,0.024,-0.036000000000000004
2025-11-06 18:34:09.387,52.8,-0.224,-0.005,0.019,-0.049,-1.0090000000000001,-0.149,31.240000000000002,-22.09,-76.99,0.5961000000000001,-0.5294,-0.36810000000000004,-0.4782,-0.011,0.026000000000000002,-0.019
2025-11-06 18:34:09.387,52.805,-0.24,-0.042,0.013000000000000001,-0.053,-1.0110000000000001,-0.159,31.240000000000002,-22.09,-76.99,0.5963,-0.5293,-0.3683,-0.47800000000000004,-0.006,0.027,-0.009000000000000001
2025-11-06 18:34:09.387,52.81,-0.265,-0.07,0.01,-0.047,-1.01,-0.16,31.240000000000002,-22.09,-76.99,0.5968,-0.5292,-0.3683,-0.47750000000000004,-0.011,0.026000000000000002,-0.007
2025-11-06 18:34:09.387,52.815,-0.295,-0.084,0.003,-0.028,-1.0070000000000001,-0.16,31.740000000000002,-24.2,-77.17,0.598,-0.5289,-0.3684,-0.4762,-0.028,0.023,-0.008
2025-11-06 18:34:09.387,52.82,-0.315,-0.08700000000000001,0.001,-0.014,-1.004,-0.162,31.740000000000002,-24.2,-77.17,0.5996,-0.5285000000000001,-0.36860000000000004,-0.47450000000000003,-0.038,0.02,-0.006
2025-11-06 18:34:09.387,52.825,-0.318,-0.081,-0.002,-0.016,-1.0030000000000001,-0.17200000000000001,31.21,-22.5,-77.69,0.6013000000000001,-0.5279,-0.3685,-0.4731,-0.033,0.019,0.001
2025-11-06 18:34:09.387,52.83,-0.308,-0.074,-0.01,-0.011,-1.0010000000000001,-0.185,31.21,-22.5,-77.69,0.6034,-0.5271,-0.36810000000000004,-0.4717,-0.035,0.018000000000000002,0.012
2025-11-06 18:34:09.387,52.835,-0.278,-0.062,-0.018000000000000002,-0.001,-0.997,-0.198,31.21,-22.5,-77.69,0.606,-0.526,-0.3675,-0.4701,-0.041,0.013000000000000001,0.022
2025-11-06 18:34:09.387,52.84,-0.229,-0.035,-0.029,0.003,-0.981,-0.221,31.48,-22.740000000000002,-77.69,0.6093000000000001,-0.5245000000000001,-0.3663,-0.46840000000000004,-0.042,-0.001,0.04
2025-11-06 18:34:09.387,52.845,-0.177,-0.005,-0.035,0.006,-0.98,-0.234,31.48,-22.740000000000002,-77.69,0.6127,-0.5229,-0.3649,-0.46680000000000005,-0.04,-0.001,0.048
2025-11-06 18:34:09.387,52.85,-0.14100000000000001,0.031,-0.042,-0.002,-0.979,-0.241,31.92,-22.53,-77.95,0.6157,-0.5214,-0.3635,-0.4656,-0.029,-0.001,0.05
2025-11-06 18:34:09.387,52.855,-0.121,0.079,-0.051000000000000004,0.009000000000000001,-0.981,-0.23900000000000002,31.92,-22.53,-77.95,0.6184000000000001,-0.5198,-0.3627,-0.46440000000000003,-0.037,0.001,0.043000000000000003
2025-11-06 18:34:09.387,52.86,-0.10200000000000001,0.125,-0.057,0.014,-0.979,-0.23,31.92,-22.53,-77.84,0.6206,-0.5182,-0.36250000000000004,-0.46330000000000005,-0.038,0.0,0.03
2025-11-06 18:34:09.387,52.865,-0.081,0.194,-0.059000000000000004,0.016,-0.979,-0.218,31.740000000000002,-22.12,-77.84,0.622,-0.5169,-0.36310000000000003,-0.46240000000000003,-0.036000000000000004,0.0,0.016
2025-11-06 18:34:09.387,52.87,-0.083,0.23900000000000002,-0.061,0.021,-0.977,-0.20700000000000002,31.740000000000002,-22.12,-77.84,0.6229,-0.5156000000000001,-0.3643,-0.46180000000000004,-0.038,-0.001,0.004
2025-11-06 18:34:09.387,52.875,-0.083,0.272,-0.061,0.032,-0.973,-0.196,31.16,-22.740000000000002,-77.9,0.6234000000000001,-0.5142,-0.3663,-0.4611,-0.044,-0.005,-0.006
2025-11-06 18:34:09.387,52.88,-0.07200000000000001,0.292,-0.055,0.038,-0.963,-0.186,31.16,-22.740000000000002,-77.9,0.6235,-0.5129,-0.36860000000000004,-0.46040000000000003,-0.045,-0.015,-0.015
2025-11-06 18:34:09.387,52.885,-0.048,0.296,-0.045,0.051000000000000004,-0.9520000000000001,-0.184,31.1,-21.8,-77.72,0.6239,-0.5115000000000001,-0.37110000000000004,-0.4596,-0.053,-0.027,-0.017
2025-11-06 18:34:09.387,52.89,-0.006,0.271,-0.024,0.046,-0.9440000000000001,-0.188,31.1,-21.8,-77.72,0.6242,-0.5104000000000001,-0.373,-0.45880000000000004,-0.043000000000000003,-0.035,-0.012
2025-11-06 18:34:09.387,52.895,0.008,0.253,-0.007,0.037,-0.9400000000000001,-0.189,31.1,-21.8,-77.72,0.6245,-0.5095000000000001,-0.3745,-0.45830000000000004,-0.03,-0.038,-0.01
2025-11-06 18:34:09.387,52.9,0.017,0.23600000000000002,0.01,0.03,-0.936,-0.191,30.78,-22.240000000000002,-77.87,0.6247,-0.5088,-0.3755,-0.458,-0.022,-0.043000000000000003,-0.009000000000000001
2025-11-06 18:34:09.387,52.905,0.024,0.213,0.024,0.026000000000000002,-0.934,-0.19,30.78,-22.240000000000002,-77.87,0.6247,-0.5083,-0.3763,-0.45790000000000003,-0.015,-0.045,-0.01
2025-11-06 18:34:09.387,52.91,0.035,0.199,0.04,0.01,-0.935,-0.186,31.330000000000002,-22.53,-77.37,0.6242,-0.5082,-0.3768,-0.4582,0.0,-0.044,-0.013000000000000001
2025-11-06 18:34:09.387,52.915,0.044,0.185,0.055,0.002,-0.937,-0.189,31.330000000000002,-22.53,-77.37,0.6237,-0.5083,-0.3769,-0.4587,0.007,-0.043000000000000003,-0.009000000000000001
2025-11-06 18:34:09.387,52.92,0.05,0.171,0.069,0.001,-0.9380000000000001,-0.19,31.330000000000002,-22.53,-77.37,0.6232,-0.5084000000000001,-0.3769,-0.45930000000000004,0.008,-0.042,-0.008
2025-11-06 18:34:09.387,52.925,0.046,0.159,0.08600000000000001,0.0,-0.9450000000000001,-0.19,31.18,-22.68,-77.19,0.6227,-0.5085000000000001,-0.3769,-0.45980000000000004,0.008,-0.034,-0.008
2025-11-06 18:34:09.387,52.93,0.043000000000000003,0.145,0.10300000000000001,-0.005,-0.9520000000000001,-0.19,31.18,-22.68,-77.19,0.622,-0.5088,-0.3768,-0.4605,0.012,-0.027,-0.007
2025-11-06 18:34:09.387,52.935,0.028,0.131,0.127,-0.011,-0.962,-0.197,31.830000000000002,-23.26,-78.01,0.6214000000000001,-0.5091,-0.3763,-0.46130000000000004,0.017,-0.018000000000000002,0.0
2025-11-06 18:34:09.387,52.94,0.015,0.129,0.138,-0.015,-0.964,-0.20500000000000002,31.830000000000002,-23.26,-78.01,0.6211,-0.5094000000000001,-0.3755,-0.4621,0.018000000000000002,-0.015,0.005
2025-11-06 18:34:09.387,52.945,0.002,0.123,0.148,-0.018000000000000002,-0.968,-0.216,31.830000000000002,-23.26,-78.01,0.6212,-0.5095000000000001,-0.3743,-0.46290000000000003,0.018000000000000002,-0.012,0.015
2025-11-06 18:34:09.387,52.95,-0.012,0.11800000000000001,0.155,-0.017,-0.971,-0.23,31.45,-22.59,-77.60000000000001,0.6216,-0.5093,-0.3728,-0.4637,0.016,-0.008,0.027
2025-11-06 18:34:09.387,52.955,-0.028,0.113,0.168,-0.013000000000000001,-0.975,-0.246,31.45,-22.59,-77.60000000000001,0.6226,-0.5087,-0.371,-0.46440000000000003,0.01,-0.003,0.04
2025-11-06 18:34:09.387,52.96,-0.042,0.108,0.183,-0.002,-0.974,-0.26,31.39,-22.650000000000002,-77.55,0.6241,-0.5077,-0.3693,-0.465,-0.001,-0.003,0.049
2025-11-06 18:34:09.387,52.965,-0.047,0.107,0.188,0.006,-0.972,-0.271,31.39,-22.650000000000002,-77.55,0.6258,-0.5062,-0.3677,-0.4655,-0.01,-0.004,0.055
2025-11-06 18:34:09.387,52.97,-0.045,0.112,0.191,0.014,-0.964,-0.278,30.89,-23.03,-76.96000000000001,0.6277,-0.5045000000000001,-0.3663,-0.46590000000000004,-0.017,-0.011,0.056
2025-11-06 18:34:09.387,52.975,-0.039,0.124,0.191,0.017,-0.9560000000000001,-0.28200000000000003,30.89,-23.03,-76.96000000000001,0.6295000000000001,-0.5027,-0.36510000000000004,-0.46640000000000004,-0.02,-0.017,0.055
2025-11-06 18:34:09.387,52.98,-0.024,0.14300000000000002,0.193,0.017,-0.9560000000000001,-0.279,30.89,-23.03,-76.96000000000001,0.631,-0.5011,-0.3642,-0.46680000000000005,-0.019,-0.017,0.047
2025-11-06 18:34:09.387,52.985,-0.015,0.178,0.191,0.018000000000000002,-0.9550000000000001,-0.274,31.21,-22.39,-77.93,0.6322,-0.4995,-0.36360000000000003,-0.46730000000000005,-0.019,-0.017,0.038
2025-11-06 18:34:09.387,52.99,-0.012,0.198,0.191,0.019,-0.967,-0.262,31.21,-22.39,-77.93,0.6327,-0.4984,-0.3637,-0.46790000000000004,-0.018000000000000002,-0.004,0.024
2025-11-06 18:34:09.387,52.995,-0.009000000000000001,0.217,0.193,0.021,-0.979,-0.251,31.240000000000002,-23.03,-77.46000000000001,0.6326,-0.4975,-0.3644,-0.46840000000000004,-0.019,0.008,0.011
2025-11-06 18:34:09.387,53.0,-0.012,0.234,0.191,0.028,-0.981,-0.242,31.240000000000002,-23.03,-77.46000000000001,0.6322,-0.4965,-0.36560000000000004,-0.46890000000000004,-0.025,0.01,0.002
2025-11-06 18:34:09.387,53.005,-0.023,0.23900000000000002,0.196,0.028,-0.996,-0.229,31.240000000000002,-23.03,-77.46000000000001,0.6313000000000001,-0.4959,-0.3673,-0.46940000000000004,-0.023,0.025,-0.009000000000000001
2025-11-06 18:34:09.387,53.01,-0.044,0.25,0.199,0.011,-1.0010000000000001,-0.223,31.3,-22.42,-77.05,0.6302,-0.4959,-0.3684,-0.4701,-0.005,0.029,-0.013000000000000001
2025-11-06 18:34:09.387,53.015,-0.062,0.266,0.198,-0.003,-0.998,-0.218,31.3,-22.42,-77.05,0.6289,-0.4963,-0.369,-0.47090000000000004,0.007,0.026000000000000002,-0.017
2025-11-06 18:34:09.387,53.02,-0.073,0.28400000000000003,0.196,-0.007,-0.991,-0.213,31.8,-22.56,-76.76,0.6276,-0.4968,-0.36960000000000004,-0.4717,0.009000000000000001,0.018000000000000002,-0.02
2025-11-06 18:34:09.387,53.025,-0.07200000000000001,0.305,0.191,-0.02,-0.98,-0.20600000000000002,31.8,-22.56,-76.76,0.6261,-0.49760000000000004,-0.3699,-0.4727,0.02,0.007,-0.025
2025-11-06 18:34:09.387,53.03,-0.058,0.34900000000000003,0.181,-0.033,-0.961,-0.20800000000000002,31.8,-22.56,-76.76,0.6246,-0.4985,-0.36970000000000003,-0.4738,0.03,-0.011,-0.022
2025-11-06 18:34:09.387,53.035,-0.045,0.379,0.17400000000000002,-0.034,-0.9510000000000001,-0.215,30.42,-22.71,-77.37,0.6235,-0.49910000000000004,-0.36920000000000003,-0.47500000000000003,0.028,-0.022,-0.013000000000000001
2025-11-06 18:34:09.387,53.04,-0.029,0.40700000000000003,0.171,-0.046,-0.9470000000000001,-0.227,30.42,-22.71,-77.37,0.6226,-0.49960000000000004,-0.3682,-0.47650000000000003,0.036000000000000004,-0.025,-0.002
2025-11-06 18:34:09.387,53.045,-0.013000000000000001,0.447,0.166,-0.057,-0.9400000000000001,-0.234,30.89,-22.09,-77.02,0.6217,-0.5,-0.3669,-0.4782,0.042,-0.032,0.003
2025-11-06 18:34:09.387,53.05,0.009000000000000001,0.487,0.161,-0.057,-0.928,-0.24,30.89,-22.09,-77.02,0.621,-0.5001,-0.3655,-0.48000000000000004,0.039,-0.044,0.007
2025-11-06 18:34:09.387,53.055,0.033,0.554,0.159,-0.069,-0.929,-0.23800000000000002,30.1,-22.59,-76.67,0.62,-0.5005000000000001,-0.3642,-0.48200000000000004,0.046,-0.043000000000000003,0.004
2025-11-06 18:34:09.387,53.06,0.05,0.594,0.16,-0.067,-0.911,-0.24,30.1,-22.59,-76.67,0.6191,-0.5006,-0.36300000000000004,-0.48400000000000004,0.04,-0.06,0.005
2025-11-06 18:34:09.387,53.065,0.065,0.621,0.165,-0.063,-0.921,-0.24,30.1,-22.59,-76.67,0.6181,-0.5005000000000001,-0.3622,-0.4858,0.032,-0.05,0.003
2025-11-06 18:34:09.387,53.07,0.07100000000000001,0.646,0.177,-0.067,-0.926,-0.231,30.51,-22.62,-77.17,0.6169,-0.5008,-0.36160000000000003,-0.48750000000000004,0.033,-0.044,-0.005
2025-11-06 18:34:09.387,53.075,0.066,0.675,0.193,-0.07100000000000001,-0.9390000000000001,-0.219,30.51,-22.62,-77.17,0.6155,-0.5015000000000001,-0.3613,-0.4888,0.033,-0.031,-0.016
2025-11-06 18:34:09.387,53.08,0.052000000000000005,0.668,0.21,-0.073,-0.964,-0.20700000000000002,30.48,-22.68,-76.43,0.6138,-0.5028,-0.3613,-0.4897,0.032,-0.006,-0.027
2025-11-06 18:34:09.387,53.085,0.031,0.635,0.223,-0.082,-0.98,-0.20500000000000002,30.48,-22.68,-76.43,0.612,-0.5042,-0.36100000000000004,-0.49060000000000004,0.038,0.008,-0.026000000000000002
2025-11-06 18:34:09.387,53.09,0.01,0.579,0.23700000000000002,-0.099,-0.991,-0.211,30.48,-22.68,-76.43,0.6102000000000001,-0.5056,-0.3603,-0.4919,0.049,0.018000000000000002,-0.018000000000000002
2025-11-06 18:34:09.387,53.095,-0.018000000000000002,0.512,0.246,-0.113,-0.999,-0.213,30.34,-22.740000000000002,-77.31,0.6084,-0.5072,-0.3592,-0.4933,0.058,0.026000000000000002,-0.014
2025-11-06 18:34:09.387,53.1,-0.07200000000000001,0.41600000000000004,0.248,-0.115,-1.006,-0.212,30.34,-22.740000000000002,-77.31,0.6068,-0.5088,-0.35800000000000004,-0.49460000000000004,0.055,0.034,-0.014
2025-11-06 18:34:09.387,53.105,-0.101,0.364,0.23800000000000002,-0.115,-1.0050000000000001,-0.211,29.75,-23.44,-76.93,0.6053000000000001,-0.5103,-0.3568,-0.49570000000000003,0.05,0.033,-0.014
2025-11-06 18:34:09.387,53.11,-0.113,0.322,0.224,-0.11800000000000001,-1.002,-0.213,29.75,-23.44,-76.93,0.6039,-0.5115000000000001,-0.3557,-0.4969,0.048,0.029,-0.01
2025-11-06 18:34:09.387,53.115,-0.108,0.291,0.20400000000000001,-0.122,-0.999,-0.219,29.75,-23.44,-76.93,0.6026,-0.5125000000000001,-0.35450000000000004,-0.4983,0.047,0.026000000000000002,-0.004
2025-11-06 18:34:09.387,53.12,-0.10400000000000001,0.261,0.189,-0.11800000000000001,-0.99,-0.228,30.02,-22.62,-77.34,0.6015,-0.5129,-0.3536,-0.4999,0.038,0.018000000000000002,0.004
2025-11-06 18:34:09.387,53.125,-0.10300000000000001,0.21,0.169,-0.11,-0.982,-0.23,30.02,-22.62,-77.34,0.6007,-0.513,-0.3528,-0.5013000000000001,0.027,0.011,0.005
2025-11-06 18:34:09.387,53.13,-0.112,0.186,0.16,-0.10200000000000001,-0.976,-0.225,29.900000000000002,-23.03,-76.43,0.6002000000000001,-0.5131,-0.3523,-0.5022,0.017,0.005,0.0
2025-11-06 18:34:09.387,53.135,-0.117,0.169,0.154,-0.094,-0.97,-0.219,29.900000000000002,-23.03,-76.43,0.5998,-0.5133,-0.35200000000000004,-0.5027,0.008,0.0,-0.006
2025-11-06 18:34:09.387,53.14,-0.122,0.165,0.148,-0.09,-0.968,-0.212,30.04,-22.8,-76.81,0.5995,-0.5137,-0.3518,-0.5028,0.003,-0.002,-0.012
2025-11-06 18:34:09.387,53.145,-0.126,0.182,0.14300000000000002,-0.08600000000000001,-0.963,-0.21,30.04,-22.8,-76.81,0.5993,-0.5139,-0.3517,-0.5028,-0.001,-0.007,-0.014
2025-11-06 18:34:09.387,53.15,-0.131,0.222,0.136,-0.08600000000000001,-0.9570000000000001,-0.214,30.04,-22.8,-76.81,0.5991000000000001,-0.5139,-0.3517,-0.503,-0.001,-0.013000000000000001,-0.01
2025-11-06 18:34:09.387,53.155,-0.135,0.26,0.132,-0.09,-0.9550000000000001,-0.219,30.28,-25.19,-76.41,0.5989,-0.5136000000000001,-0.3517,-0.5037,0.001,-0.015,-0.005
2025-11-06 18:34:09.387,53.16,-0.133,0.294,0.131,-0.091,-0.9530000000000001,-0.226,30.28,-25.19,-76.41,0.5985,-0.5131,-0.3517,-0.5046,0.001,-0.016,0.0
2025-11-06 18:34:09.387,53.165,-0.14,0.333,0.132,-0.093,-0.9500000000000001,-0.231,29.93,-23.47,-76.55,0.5982000000000001,-0.5123,-0.3517,-0.5058,0.003,-0.019,0.003
2025-11-06 18:34:09.387,53.17,-0.139,0.371,0.135,-0.093,-0.9450000000000001,-0.248,29.93,-23.47,-76.55,0.5979,-0.5109,-0.3517,-0.5076,0.002,-0.024,0.017
2025-11-06 18:34:09.387,53.175,-0.137,0.406,0.136,-0.095,-0.9420000000000001,-0.257,29.93,-23.47,-76.55,0.5976,-0.5092,-0.3516,-0.5097,0.003,-0.025,0.023
2025-11-06 18:34:09.387,53.18,-0.131,0.43,0.139,-0.099,-0.9390000000000001,-0.264,29.490000000000002,-23.09,-76.17,0.5972000000000001,-0.5074000000000001,-0.35150000000000003,-0.5121,0.006,-0.027,0.027
2025-11-06 18:34:09.387,53.185,-0.129,0.448,0.14400000000000002,-0.105,-0.9420000000000001,-0.27,29.490000000000002,-23.09,-76.17,0.5967,-0.5057,-0.3512,-0.5145000000000001,0.011,-0.024,0.028
2025-11-06 18:34:09.387,53.19,-0.125,0.452,0.15,-0.117,-0.9410000000000001,-0.278,29.69,-23.53,-76.46000000000001,0.5961000000000001,-0.5041,-0.3504,-0.5172,0.022,-0.024,0.032
2025-11-06 18:34:09.387,53.195,-0.11900000000000001,0.451,0.156,-0.128,-0.9410000000000001,-0.278,29.69,-23.53,-76.46000000000001,0.5954,-0.5029,-0.34950000000000003,-0.5199,0.029,-0.022,0.029
2025-11-06 18:34:09.387,53.2,-0.11,0.441,0.159,-0.138,-0.9430000000000001,-0.271,29.69,-23.53,-76.46000000000001,0.5946,-0.5023,-0.3483,-0.5221,0.035,-0.019,0.018000000000000002
2025-11-06 18:34:09.387,53.205,-0.10200000000000001,0.432,0.161,-0.145,-0.9390000000000001,-0.26,29.580000000000002,-23.35,-76.38,0.5937,-0.5024000000000001,-0.34700000000000003,-0.5239,0.039,-0.022,0.006
2025-11-06 18:34:09.387,53.21,-0.084,0.422,0.159,-0.156,-0.937,-0.255,29.580000000000002,-23.35,-76.38,0.5927,-0.5029,-0.34540000000000004,-0.5256000000000001,0.045,-0.023,0.0
2025-11-06 18:34:09.387,53.215,-0.058,0.426,0.154,-0.166,-0.9390000000000001,-0.252,31.04,-24.87,-76.58,0.5917,-0.5038,-0.3437,-0.527,0.051000000000000004,-0.021,-0.004
2025-11-06 18:34:09.387,53.22,-0.037,0.41600000000000004,0.15,-0.176,-0.9390000000000001,-0.255,31.04,-24.87,-76.58,0.5905,-0.5048,-0.34190000000000004,-0.5286000000000001,0.055,-0.019,-0.001
2025-11-06 18:34:09.387,53.225,-0.023,0.403,0.147,-0.184,-0.9400000000000001,-0.256,31.04,-24.87,-75.59,0.5893,-0.5058,-0.3401,-0.5302,0.057,-0.018000000000000002,0.0
2025-11-06 18:34:09.387,53.23,-0.011,0.381,0.149,-0.188,-0.9410000000000001,-0.257,30.07,-26.330000000000002,-75.59,0.5880000000000001,-0.5068,-0.3383,-0.5318,0.056,-0.015,0.0
2025-11-06 18:34:09.387,53.235,0.0,0.353,0.15,-0.19,-0.9420000000000001,-0.257,30.07,-26.330000000000002,-75.59,0.5869,-0.5077,-0.3366,-0.5332,0.052000000000000005,-0.014,0.0
2025-11-06 18:34:09.387,53.24,0.012,0.315,0.152,-0.198,-0.9480000000000001,-0.265,29.900000000000002,-24.2,-76.2,0.5856,-0.5085000000000001,-0.33490000000000003,-0.5349,0.055,-0.007,0.006
2025-11-06 18:34:09.387,53.245,0.011,0.278,0.154,-0.201,-0.9570000000000001,-0.27,29.900000000000002,-24.2,-76.2,0.5844,-0.5091,-0.33330000000000004,-0.5366000000000001,0.053,0.002,0.01
2025-11-06 18:34:09.387,53.25,0.006,0.255,0.154,-0.203,-0.963,-0.275,29.46,-23.56,-75.82000000000001,0.5833,-0.5096,-0.33180000000000004,-0.5383,0.05,0.009000000000000001,0.014
2025-11-06 18:34:09.387,53.255,0.006,0.242,0.158,-0.20600000000000002,-0.9470000000000001,-0.272,29.46,-23.56,-75.82000000000001,0.5821000000000001,-0.5101,-0.33030000000000004,-0.5401,0.048,-0.005,0.01
2025-11-06 18:34:09.387,53.26,0.032,0.24,0.158,-0.244,-0.973,-0.267,29.46,-23.56,-75.82000000000001,0.5808,-0.5119,-0.3277,-0.5413,0.081,0.021,0.005
2025-11-06 18:34:09.387,53.265,0.043000000000000003,0.263,0.165,-0.224,-1.029,-0.279,28.67,-23.44,-75.5,0.5799000000000001,-0.5129,-0.3265,-0.542,0.055,0.078,0.018000000000000002
2025-11-06 18:34:09.387,53.27,-0.053,0.245,0.185,-0.215,-1.012,-0.322,28.67,-23.44,-75.5,0.5785,-0.5113,-0.3261,-0.5453,0.043000000000000003,0.062,0.058
2025-11-06 18:34:09.387,53.275,-0.109,0.226,0.197,-0.199,-1.0010000000000001,-0.329,28.76,-23.56,-75.41,0.5774,-0.5091,-0.3261,-0.5486,0.025,0.053,0.061
2025-11-06 18:34:09.387,53.28,-0.08600000000000001,0.233,0.202,-0.185,-0.978,-0.317,28.76,-23.56,-75.41,0.5764,-0.5071,-0.3264,-0.5512,0.01,0.031,0.044
2025-11-06 18:34:09.387,53.285,-0.043000000000000003,0.253,0.20700000000000002,-0.182,-0.9460000000000001,-0.316,28.76,-23.56,-75.41,0.5754,-0.505,-0.3266,-0.5541,0.006,0.001,0.039
2025-11-06 18:34:09.387,53.29,0.001,0.311,0.212,-0.176,-0.932,-0.306,29.310000000000002,-25.16,-74.8,0.5744,-0.5033,-0.327,-0.5564,0.0,-0.011,0.026000000000000002
2025-11-06 18:34:09.387,53.295,0.017,0.367,0.22,-0.17200000000000001,-0.931,-0.3,29.310000000000002,-25.16,-74.8,0.5735,-0.5018,-0.3276,-0.5583,-0.004,-0.012,0.018000000000000002
2025-11-06 18:34:09.387,53.3,0.018000000000000002,0.419,0.227,-0.162,-0.926,-0.28700000000000003,28.900000000000002,-23.94,-75.24,0.5728,-0.5006,-0.3285,-0.5596,-0.014,-0.016,0.004
2025-11-06 18:34:09.387,53.305,0.017,0.459,0.24,-0.157,-0.925,-0.28,28.900000000000002,-23.94,-75.24,0.5721,-0.49960000000000004,-0.3296,-0.5606,-0.018000000000000002,-0.017,-0.003
2025-11-06 18:34:09.387,53.31,0.018000000000000002,0.499,0.26,-0.157,-0.927,-0.28500000000000003,28.900000000000002,-23.94,-75.24,0.5713,-0.4985,-0.3307,-0.5617,-0.017,-0.015,0.0
2025-11-06 18:34:09.387,53.315,0.021,0.522,0.28600000000000003,-0.155,-0.931,-0.291,28.7,-24.29,-75.03,0.5705,-0.49710000000000004,-0.33180000000000004,-0.5631,-0.018000000000000002,-0.011,0.005
2025-11-06 18:34:09.387,53.32,0.026000000000000002,0.532,0.306,-0.146,-0.933,-0.298,28.7,-24.29,-75.03,0.5697,-0.49520000000000003,-0.33330000000000004,-0.5647,-0.025,-0.008,0.01
2025-11-06 18:34:09.387,53.325,0.033,0.535,0.332,-0.152,-0.926,-0.305,29.52,-24.37,-75.32000000000001,0.5688,-0.4934,-0.33430000000000004,-0.5666,-0.019,-0.015,0.015
2025-11-06 18:34:09.387,53.33,0.043000000000000003,0.54,0.358,-0.153,-0.924,-0.305,29.52,-24.37,-75.32000000000001,0.5679000000000001,-0.4918,-0.3352,-0.5684,-0.017,-0.017,0.013000000000000001
2025-11-06 18:34:09.387,53.335,0.061,0.5720000000000001,0.391,-0.168,-0.923,-0.289,28.23,-24.46,-76.11,0.5668000000000001,-0.4913,-0.3356,-0.5697,-0.003,-0.018000000000000002,-0.003
2025-11-06 18:34:09.387,53.34,0.064,0.612,0.41100000000000003,-0.184,-0.92,-0.281,28.23,-24.46,-76.11,0.5655,-0.49150000000000005,-0.3355,-0.5709000000000001,0.01,-0.02,-0.01
2025-11-06 18:34:09.394,53.345,0.06,0.647,0.426,-0.195,-0.921,-0.276,28.23,-24.46,-76.11,0.5641,-0.49210000000000004,-0.335,-0.5719000000000001,0.018000000000000002,-0.019,-0.015
2025-11-06 18:34:09.394,53.35,0.048,0.678,0.438,-0.203,-0.924,-0.274,28.41,-25.080000000000002,-75.21000000000001,0.5627,-0.4929,-0.3345,-0.5730000000000001,0.023,-0.015,-0.016
2025-11-06 18:34:09.394,53.355,0.029,0.711,0.449,-0.217,-0.931,-0.269,28.41,-25.080000000000002,-75.21000000000001,0.5611,-0.49410000000000004,-0.3337,-0.5740000000000001,0.033,-0.007,-0.02
2025-11-06 18:34:09.394,53.36,0.008,0.757,0.468,-0.216,-0.9450000000000001,-0.263,28.23,-24.23,-75.09,0.5595,-0.49520000000000003,-0.33330000000000004,-0.5748,0.027,0.006,-0.024
2025-11-06 18:34:09.394,53.365,0.01,0.775,0.485,-0.214,-0.961,-0.26,28.23,-24.23,-75.09,0.558,-0.4964,-0.3332,-0.5754,0.023,0.021,-0.025
2025-11-06 18:34:09.394,53.37,0.018000000000000002,0.778,0.512,-0.218,-0.976,-0.257,28.23,-24.23,-75.09,0.5564,-0.49760000000000004,-0.3332,-0.5759000000000001,0.024,0.036000000000000004,-0.026000000000000002
2025-11-06 18:34:09.394,53.375,0.032,0.771,0.544,-0.22,-0.995,-0.255,27.71,-24.72,-74.51,0.5547000000000001,-0.4989,-0.33340000000000003,-0.5762,0.023,0.055,-0.025
2025-11-06 18:34:09.394,53.38,0.045,0.741,0.594,-0.23,-1.012,-0.264,27.71,-24.72,-74.51,0.553,-0.5001,-0.3335,-0.5768,0.03,0.07200000000000001,-0.014
2025-11-06 18:34:09.394,53.385,0.052000000000000005,0.711,0.643,-0.276,-1.057,-0.261,27.240000000000002,-25.080000000000002,-74.13,0.5506,-0.5023,-0.3327,-0.5776,0.07200000000000001,0.117,-0.014
2025-11-06 18:34:09.394,53.39,0.049,0.706,0.677,-0.244,-1.072,-0.248,27.240000000000002,-25.080000000000002,-74.13,0.5489,-0.5043,-0.33290000000000003,-0.5774,0.035,0.133,-0.023
2025-11-06 18:34:09.394,53.395,0.054,0.672,0.6940000000000001,-0.249,-1.055,-0.273,27.240000000000002,-25.080000000000002,-74.13,0.5471,-0.5052,-0.33280000000000004,-0.5784,0.038,0.115,0.004
2025-11-06 18:34:09.394,53.4,0.075,0.622,0.712,-0.259,-1.035,-0.28600000000000003,27.060000000000002,-24.75,-74.10000000000001,0.5449,-0.5057,-0.33240000000000003,-0.5802,0.044,0.096,0.018000000000000002
2025-11-06 18:34:09.394,53.405,0.062,0.6,0.731,-0.23,-1.012,-0.278,27.060000000000002,-24.75,-74.10000000000001,0.5434,-0.5058,-0.3326,-0.5814,0.012,0.073,0.01
2025-11-06 18:34:09.394,53.41,-0.018000000000000002,0.597,0.733,-0.201,-0.9550000000000001,-0.295,26.68,-24.900000000000002,-73.83,0.5425,-0.5043,-0.33290000000000003,-0.5834,-0.017,0.017,0.026000000000000002
2025-11-06 18:34:09.394,53.415,-0.061,0.5740000000000001,0.7000000000000001,-0.177,-0.914,-0.316,26.68,-24.900000000000002,-73.83,0.542,-0.5013000000000001,-0.33330000000000004,-0.5861000000000001,-0.041,-0.022,0.041
2025-11-06 18:34:09.394,53.42,-0.084,0.544,0.664,-0.16,-0.896,-0.316,26.57,-24.87,-74.07000000000001,0.542,-0.498,-0.3341,-0.5886,-0.056,-0.039,0.036000000000000004
2025-11-06 18:34:09.394,53.425,-0.068,0.545,0.635,-0.13,-0.901,-0.28700000000000003,26.57,-24.87,-74.07000000000001,0.5423,-0.4953,-0.3361,-0.5894,-0.083,-0.033,0.004
2025-11-06 18:34:09.394,53.43,-0.004,0.595,0.614,-0.108,-0.924,-0.263,26.57,-24.87,-74.07000000000001,0.5425,-0.49310000000000004,-0.3395,-0.5891000000000001,-0.098,-0.011,-0.02
2025-11-06 18:34:09.394,53.435,0.042,0.619,0.608,-0.085,-0.935,-0.25,26.22,-25.51,-73.13,0.5428000000000001,-0.49100000000000005,-0.3438,-0.5882000000000001,-0.113,-0.002,-0.031
2025-11-06 18:34:09.394,53.44,0.078,0.619,0.612,-0.063,-0.9460000000000001,-0.241,26.22,-25.51,-73.13,0.543,-0.4888,-0.3487,-0.5868,-0.127,0.006,-0.038
2025-11-06 18:34:09.394,53.445,0.114,0.6,0.617,-0.043000000000000003,-0.9550000000000001,-0.242,25.66,-25.37,-73.31,0.5436,-0.48650000000000004,-0.3538,-0.5852,-0.136,0.012,-0.034
2025-11-06 18:34:09.394,53.45,0.15,0.5630000000000001,0.626,-0.032,-0.9530000000000001,-0.229,25.66,-25.37,-73.31,0.5438000000000001,-0.4843,-0.3593,-0.5834,-0.137,0.007,-0.045
2025-11-06 18:34:09.395,53.455,0.215,0.54,0.627,-0.023,-0.9390000000000001,-0.214,25.66,-25.37,-73.31,0.5437000000000001,-0.48250000000000004,-0.365,-0.5816,-0.136,-0.009000000000000001,-0.055
2025-11-06 18:34:09.395,53.46,0.25,0.534,0.631,-0.024,-0.929,-0.20800000000000002,24.93,-25.84,-72.9,0.5433,-0.48090000000000005,-0.3704,-0.5799000000000001,-0.125,-0.022,-0.055
2025-11-06 18:34:09.395,53.465,0.255,0.518,0.635,-0.035,-0.926,-0.20700000000000002,24.93,-25.84,-72.9,0.5425,-0.4796,-0.37510000000000004,-0.5786,-0.107,-0.027,-0.052000000000000005
2025-11-06 18:34:09.395,53.47,0.23900000000000002,0.483,0.646,-0.052000000000000005,-0.925,-0.209,25.19,-25.78,-73.13,0.5415,-0.4787,-0.3789,-0.5779000000000001,-0.084,-0.03,-0.046
2025-11-06 18:34:09.395,53.475,0.203,0.41600000000000004,0.666,-0.066,-0.925,-0.214,25.19,-25.78,-73.13,0.5404,-0.4781,-0.38170000000000004,-0.5775,-0.067,-0.032,-0.037
2025-11-06 18:34:09.395,53.48,0.176,0.322,0.685,-0.051000000000000004,-0.93,-0.22,25.19,-25.78,-73.13,0.5403,-0.47750000000000004,-0.384,-0.5766,-0.077,-0.028,-0.03
2025-11-06 18:34:09.395,53.485,0.158,0.248,0.706,-0.097,-0.936,-0.234,24.52,-26.13,-72.28,0.5395,-0.4777,-0.3845,-0.5768,-0.031,-0.023,-0.013000000000000001
2025-11-06 18:34:09.395,53.49,0.15,0.187,0.72,-0.106,-0.9480000000000001,-0.248,24.52,-26.13,-72.28,0.5392,-0.47800000000000004,-0.38420000000000004,-0.5771000000000001,-0.023,-0.011,0.0
2025-11-06 18:34:09.395,53.495,0.156,0.121,0.735,-0.111,-0.976,-0.266,24.14,-26.07,-72.46000000000001,0.5395,-0.47840000000000005,-0.38320000000000004,-0.5770000000000001,-0.019,0.016,0.017
2025-11-06 18:34:09.395,53.5,0.171,0.039,0.772,-0.094,-1.0110000000000001,-0.281,24.14,-26.07,-72.46000000000001,0.5408000000000001,-0.4787,-0.38220000000000004,-0.5763,-0.036000000000000004,0.051000000000000004,0.031
2025-11-06 18:34:09.395,53.505,0.155,-0.016,0.799,-0.08600000000000001,-1.02,-0.266,24.96,-27.94,-73.10000000000001,0.5412,-0.47890000000000005,-0.38230000000000003,-0.5757,-0.043000000000000003,0.06,0.016
2025-11-06 18:34:09.395,53.51,0.121,-0.022,0.8140000000000001,-0.08,-1.01,-0.244,24.96,-27.94,-73.10000000000001,0.5406000000000001,-0.47900000000000004,-0.38330000000000003,-0.5754,-0.048,0.05,-0.003
2025-11-06 18:34:09.395,53.515,0.097,-0.017,0.8190000000000001,-0.082,-0.992,-0.229,24.96,-27.94,-73.10000000000001,0.5394,-0.4792,-0.38480000000000003,-0.5754,-0.046,0.031,-0.016
2025-11-06 18:34:09.395,53.52,0.096,-0.005,0.81,-0.112,-0.9550000000000001,-0.214,23.5,-26.57,-71.96000000000001,0.537,-0.4798,-0.3859,-0.5765,-0.018000000000000002,-0.005,-0.027
2025-11-06 18:34:09.395,53.525,0.15,0.022,0.762,-0.149,-0.901,-0.203,23.5,-26.57,-71.96000000000001,0.5333,-0.48100000000000004,-0.38630000000000003,-0.5786,0.013000000000000001,-0.059000000000000004,-0.036000000000000004
2025-11-06 18:34:09.395,53.53,0.202,0.05,0.714,-0.197,-0.866,-0.183,24.29,-27.03,-72.58,0.5273,-0.48300000000000004,-0.3866,-0.5823,0.051000000000000004,-0.094,-0.052000000000000005
2025-11-06 18:34:09.395,53.535,0.256,0.074,0.682,-0.187,-0.8250000000000001,-0.179,24.29,-27.03,-72.58,0.5222,-0.4849,-0.3865,-0.5853,0.031,-0.134,-0.052000000000000005
2025-11-06 18:34:09.395,53.54,0.313,0.08,0.657,-0.218,-0.8160000000000001,-0.18,24.29,-27.03,-72.58,0.5164,-0.48710000000000003,-0.3859,-0.5890000000000001,0.052000000000000005,-0.14300000000000002,-0.048
2025-11-06 18:34:09.395,53.545,0.382,0.077,0.643,-0.248,-0.8190000000000001,-0.185,22.77,-26.68,-72.2,0.5102,-0.4897,-0.3846,-0.5931000000000001,0.07,-0.138,-0.039
2025-11-06 18:34:09.395,53.55,0.431,0.06,0.64,-0.257,-0.8240000000000001,-0.186,22.77,-26.68,-72.2,0.5043,-0.4922,-0.3834,-0.5968,0.066,-0.132,-0.036000000000000004
2025-11-06 18:34:09.395,53.555,0.455,0.038,0.644,-0.263,-0.836,-0.191,22.740000000000002,-26.740000000000002,-72.2,0.499,-0.49470000000000003,-0.382,-0.6001000000000001,0.06,-0.117,-0.028
2025-11-06 18:34:09.395,53.56,0.468,0.017,0.651,-0.259,-0.841,-0.195,22.740000000000002,-26.740000000000002,-72.2,0.49450000000000005,-0.4968,-0.38070000000000004,-0.6029,0.046,-0.111,-0.022
2025-11-06 18:34:09.395,53.565,0.467,0.01,0.653,-0.254,-0.843,-0.196,22.740000000000002,-26.740000000000002,-72.2,0.4907,-0.49870000000000003,-0.3795,-0.6052000000000001,0.031,-0.107,-0.019
2025-11-06 18:34:09.395,53.57,0.47100000000000003,0.011,0.652,-0.263,-0.842,-0.203,23.03,-27.740000000000002,-71.35000000000001,0.4869,-0.5004000000000001,-0.3781,-0.6078,0.032,-0.107,-0.01
2025-11-06 18:34:09.395,53.575,0.47200000000000003,0.01,0.652,-0.257,-0.839,-0.20700000000000002,23.03,-27.740000000000002,-71.35000000000001,0.4838,-0.5017,-0.37670000000000003,-0.61,0.018000000000000002,-0.108,-0.005
2025-11-06 18:34:09.395,53.58,0.465,-0.005,0.653,-0.255,-0.845,-0.211,21.6,-26.98,-71.14,0.4811,-0.5027,-0.37560000000000004,-0.612,0.009000000000000001,-0.1,-0.001
2025-11-06 18:34:09.395,53.585,0.45,-0.022,0.659,-0.241,-0.848,-0.20700000000000002,21.6,-26.98,-71.14,0.4791,-0.5036,-0.3748,-0.6133000000000001,-0.009000000000000001,-0.095,-0.004
2025-11-06 18:34:09.395,53.59,0.441,-0.041,0.654,-0.263,-0.86,-0.19,21.6,-26.98,-71.14,0.4766,-0.5054000000000001,-0.3739,-0.6143000000000001,0.007,-0.083,-0.019
2025-11-06 18:34:09.395,53.595,0.433,-0.07100000000000001,0.648,-0.274,-0.863,-0.189,22.01,-29.990000000000002,-72.02,0.47400000000000003,-0.5074000000000001,-0.3729,-0.6154000000000001,0.012,-0.078,-0.018000000000000002
2025-11-06 18:34:09.395,53.6,0.431,-0.101,0.639,-0.289,-0.868,-0.192,22.01,-29.990000000000002,-72.02,0.4712,-0.5093,-0.37170000000000003,-0.6166,0.02,-0.07100000000000001,-0.013000000000000001
2025-11-06 18:34:09.395,53.605,0.434,-0.14300000000000002,0.629,-0.296,-0.873,-0.195,21.28,-29.66,-71.2,0.4686,-0.5112,-0.3704,-0.6178,0.02,-0.065,-0.008
2025-11-06 18:34:09.396,53.61,0.444,-0.179,0.621,-0.311,-0.878,-0.192,21.28,-29.66,-71.2,0.46580000000000005,-0.5134000000000001,-0.3689,-0.619,0.028,-0.059000000000000004,-0.009000000000000001
2025-11-06 18:34:09.396,53.615,0.46,-0.212,0.616,-0.319,-0.883,-0.198,22.12,-28.0,-71.03,0.4631,-0.5153,-0.3675,-0.6203000000000001,0.029,-0.052000000000000005,0.0
2025-11-06 18:34:09.396,53.62,0.467,-0.24,0.61,-0.329,-0.885,-0.199,22.12,-28.0,-71.03,0.46040000000000003,-0.5172,-0.3659,-0.6216,0.031,-0.048,0.001
2025-11-06 18:34:09.396,53.625,0.461,-0.243,0.611,-0.331,-0.888,-0.199,22.12,-28.0,-71.03,0.45790000000000003,-0.519,-0.3645,-0.6229,0.027,-0.043000000000000003,0.003
2025-11-06 18:34:09.396,53.63,0.455,-0.231,0.613,-0.33,-0.89,-0.202,20.92,-27.3,-71.03,0.4556,-0.5204,-0.3632,-0.6241,0.02,-0.039,0.007
2025-11-06 18:34:09.396,53.635,0.444,-0.20700000000000002,0.617,-0.306,-0.885,-0.201,20.92,-27.3,-71.03,0.4539,-0.5212,-0.3627,-0.6249,-0.008,-0.043000000000000003,0.007
2025-11-06 18:34:09.396,53.64,0.435,-0.165,0.613,-0.339,-0.881,-0.192,20.43,-27.560000000000002,-70.88,0.4516,-0.5229,-0.3614,-0.6259,0.019,-0.046,0.0
2025-11-06 18:34:09.396,53.645,0.424,-0.10300000000000001,0.607,-0.333,-0.867,-0.186,20.43,-27.560000000000002,-70.88,0.4494,-0.5244,-0.3604,-0.6269,0.008,-0.058,-0.004
2025-11-06 18:34:09.396,53.65,0.422,-0.058,0.602,-0.335,-0.856,-0.182,20.43,-27.560000000000002,-70.88,0.44720000000000004,-0.5259,-0.3593,-0.6278,0.005,-0.067,-0.006
2025-11-06 18:34:09.396,53.655,0.43,-0.001,0.596,-0.337,-0.848,-0.177,20.19,-27.3,-69.86,0.445,-0.5273,-0.3584,-0.6288,0.001,-0.074,-0.009000000000000001
2025-11-06 18:34:09.396,53.66,0.431,0.045,0.593,-0.332,-0.844,-0.169,20.19,-27.3,-69.86,0.4429,-0.5288,-0.3577,-0.6293000000000001,-0.008,-0.076,-0.016
2025-11-06 18:34:09.396,53.665,0.44,0.099,0.59,-0.334,-0.851,-0.161,20.05,-27.44,-69.97,0.44110000000000005,-0.5304,-0.3573,-0.6295000000000001,-0.01,-0.068,-0.022
2025-11-06 18:34:09.396,53.67,0.448,0.129,0.588,-0.327,-0.861,-0.153,20.05,-27.44,-69.97,0.4395,-0.532,-0.3573,-0.6293000000000001,-0.021,-0.057,-0.026000000000000002
2025-11-06 18:34:09.396,53.675,0.449,0.14300000000000002,0.587,-0.33,-0.866,-0.145,20.05,-27.44,-69.97,0.43810000000000004,-0.5337000000000001,-0.3573,-0.6288,-0.02,-0.052000000000000005,-0.03
2025-11-06 18:34:09.396,53.68,0.451,0.145,0.583,-0.327,-0.873,-0.146,19.29,-27.62,-69.48,0.43670000000000003,-0.5352,-0.35760000000000003,-0.6283000000000001,-0.025,-0.045,-0.026000000000000002
2025-11-06 18:34:09.396,53.685,0.455,0.132,0.577,-0.339,-0.878,-0.14400000000000002,19.29,-27.62,-69.48,0.43520000000000003,-0.5367000000000001,-0.3577,-0.628,-0.016,-0.04,-0.024
2025-11-06 18:34:09.396,53.69,0.462,0.11800000000000001,0.5690000000000001,-0.34,-0.885,-0.14300000000000002,19.29,-27.740000000000002,-69.83,0.4338,-0.5382,-0.3579,-0.6276,-0.017,-0.032,-0.022
2025-11-06 18:34:09.396,53.695,0.481,0.09,0.555,-0.34800000000000003,-0.901,-0.148,19.29,-27.740000000000002,-69.83,0.4324,-0.5394,-0.35810000000000003,-0.6274000000000001,-0.011,-0.017,-0.014
2025-11-06 18:34:09.396,53.7,0.485,0.064,0.548,-0.335,-0.896,-0.165,19.080000000000002,-29.66,-68.89,0.4313,-0.5397000000000001,-0.35860000000000003,-0.6276,-0.025,-0.021,0.004
2025-11-06 18:34:09.396,53.705,0.484,0.024,0.545,-0.335,-0.908,-0.181,19.080000000000002,-29.66,-68.89,0.4304,-0.5394,-0.35910000000000003,-0.6282,-0.026000000000000002,-0.009000000000000001,0.02
2025-11-06 18:34:09.396,53.71,0.481,-0.015,0.539,-0.323,-0.909,-0.194,19.080000000000002,-29.66,-68.89,0.4299,-0.5385,-0.3597,-0.629,-0.038,-0.008,0.032
2025-11-06 18:34:09.396,53.715,0.483,-0.029,0.53,-0.323,-0.909,-0.197,18.0,-28.79,-68.95,0.4294,-0.5375,-0.3603,-0.6298,-0.037,-0.008,0.035
2025-11-06 18:34:09.396,53.72,0.489,-0.014,0.519,-0.309,-0.904,-0.193,18.0,-28.79,-68.95,0.4292,-0.5364,-0.3612,-0.6304000000000001,-0.05,-0.013000000000000001,0.029
2025-11-06 18:34:09.397,53.725,0.491,0.013000000000000001,0.508,-0.309,-0.901,-0.184,18.38,-27.41,-69.10000000000001,0.4289,-0.5357000000000001,-0.3622,-0.6307,-0.048,-0.016,0.019
2025-11-06 18:34:09.397,53.73,0.489,0.036000000000000004,0.494,-0.309,-0.902,-0.179,18.38,-27.41,-69.10000000000001,0.42850000000000005,-0.535,-0.3633,-0.6308,-0.047,-0.016,0.015
2025-11-06 18:34:09.397,53.735,0.486,0.059000000000000004,0.488,-0.306,-0.905,-0.188,18.38,-27.41,-69.10000000000001,0.4283,-0.534,-0.3644,-0.6312,-0.049,-0.013000000000000001,0.023
2025-11-06 18:34:09.397,53.74,0.481,0.076,0.482,-0.308,-0.912,-0.193,17.94,-27.71,-68.86,0.42810000000000004,-0.533,-0.3653,-0.6317,-0.045,-0.007,0.028
2025-11-06 18:34:09.397,53.745,0.47600000000000003,0.085,0.47500000000000003,-0.318,-0.916,-0.197,17.94,-27.71,-68.86,0.4278,-0.5321,-0.3659,-0.6323000000000001,-0.034,-0.003,0.031
2025-11-06 18:34:09.397,53.75,0.467,0.092,0.47000000000000003,-0.304,-0.917,-0.203,17.56,-27.560000000000002,-68.48,0.4278,-0.5307000000000001,-0.3668,-0.6329,-0.046,-0.003,0.036000000000000004
2025-11-06 18:34:09.397,53.755,0.461,0.093,0.459,-0.31,-0.914,-0.21,17.56,-27.560000000000002,-68.48,0.4279,-0.5295,-0.3672,-0.6337,-0.039,-0.006,0.04
2025-11-06 18:34:09.397,53.76,0.452,0.10400000000000001,0.434,-0.29,-0.903,-0.219,17.56,-27.560000000000002,-68.48,0.4284,-0.5275000000000001,-0.3679,-0.6345000000000001,-0.057,-0.017,0.046
2025-11-06 18:34:09.397,53.765,0.453,0.101,0.421,-0.28500000000000003,-0.894,-0.219,17.68,-27.76,-67.99,0.42900000000000005,-0.5256000000000001,-0.36860000000000004,-0.6353,-0.059000000000000004,-0.027,0.043000000000000003
2025-11-06 18:34:09.397,53.77,0.456,0.096,0.40900000000000003,-0.28400000000000003,-0.89,-0.218,17.68,-27.76,-67.99,0.4295,-0.5239,-0.3693,-0.636,-0.058,-0.031,0.04
2025-11-06 18:34:09.397,53.775,0.455,0.10200000000000001,0.4,-0.275,-0.885,-0.219,17.36,-28.55,-68.07000000000001,0.43,-0.5219,-0.37020000000000003,-0.6367,-0.064,-0.036000000000000004,0.038
2025-11-06 18:34:09.397,53.78,0.458,0.089,0.393,-0.276,-0.884,-0.224,17.36,-28.55,-68.07000000000001,0.43060000000000004,-0.5201,-0.3708,-0.6374000000000001,-0.061,-0.038,0.04
2025-11-06 18:34:09.397,53.785,0.464,0.07100000000000001,0.395,-0.28500000000000003,-0.893,-0.23,17.39,-27.060000000000002,-67.78,0.4313,-0.5186000000000001,-0.371,-0.6381,-0.049,-0.029,0.044
2025-11-06 18:34:09.397,53.79,0.466,0.053,0.402,-0.28800000000000003,-0.901,-0.23,17.39,-27.060000000000002,-67.78,0.4318,-0.5173,-0.37120000000000003,-0.6387,-0.044,-0.021,0.041
2025-11-06 18:34:09.398,53.795,0.466,0.043000000000000003,0.41100000000000003,-0.294,-0.912,-0.23,17.39,-27.060000000000002,-67.78,0.43210000000000004,-0.5163,-0.3714,-0.6393,-0.037,-0.01,0.039
2025-11-06 18:34:09.398,53.8,0.465,0.021,0.41500000000000004,-0.302,-0.925,-0.23500000000000001,16.8,-27.650000000000002,-66.93,0.4324,-0.5154,-0.3713,-0.6398,-0.028,0.001,0.042
2025-11-06 18:34:09.398,53.805,0.454,0.001,0.418,-0.292,-0.9470000000000001,-0.245,16.8,-27.650000000000002,-66.93,0.43270000000000003,-0.5139,-0.372,-0.6404000000000001,-0.037,0.024,0.05
2025-11-06 18:34:09.398,53.81,0.448,-0.03,0.423,-0.269,-0.965,-0.248,16.98,-27.12,-67.4,0.4329,-0.5117,-0.3738,-0.641,-0.056,0.041,0.051000000000000004
2025-11-06 18:34:09.398,53.815,0.45,-0.066,0.424,-0.276,-0.982,-0.23500000000000001,16.98,-27.12,-67.4,0.4324,-0.5099,-0.376,-0.6414000000000001,-0.045,0.057,0.038
2025-11-06 18:34:09.398,53.82,0.443,-0.1,0.419,-0.301,-0.983,-0.233,16.98,-27.12,-67.4,0.43210000000000004,-0.5093,-0.3769,-0.6416000000000001,-0.018000000000000002,0.057,0.035
2025-11-06 18:34:09.398,53.825,0.424,-0.121,0.41400000000000003,-0.314,-0.975,-0.242,16.830000000000002,-27.94,-67.69,0.4325,-0.5091,-0.3765,-0.6417,-0.005,0.049,0.044
2025-11-06 18:34:09.398,53.83,0.379,-0.157,0.391,-0.312,-0.9570000000000001,-0.246,16.830000000000002,-27.94,-67.69,0.43320000000000003,-0.509,-0.37560000000000004,-0.6418,-0.007,0.032,0.046
2025-11-06 18:34:09.398,53.835,0.35100000000000003,-0.195,0.376,-0.326,-0.9430000000000001,-0.243,17.5,-28.0,-67.14,0.434,-0.5096,-0.3739,-0.6418,0.004,0.018000000000000002,0.041
2025-11-06 18:34:09.398,53.84,0.323,-0.261,0.359,-0.325,-0.926,-0.233,17.5,-28.0,-67.14,0.43460000000000004,-0.5104000000000001,-0.3723,-0.6417,0.002,0.002,0.031
2025-11-06 18:34:09.398,53.845,0.301,-0.34400000000000003,0.341,-0.326,-0.906,-0.215,17.5,-28.0,-67.14,0.4348,-0.5117,-0.3708,-0.6414000000000001,0.0,-0.016,0.013000000000000001
2025-11-06 18:34:09.398,53.85,0.29,-0.426,0.317,-0.301,-0.882,-0.2,16.98,-27.47,-66.96000000000001,0.43460000000000004,-0.5124000000000001,-0.37070000000000003,-0.6411,-0.026000000000000002,-0.039,0.0
2025-11-06 18:34:09.398,53.855,0.271,-0.527,0.28700000000000003,-0.303,-0.871,-0.196,16.98,-27.47,-66.96000000000001,0.4345,-0.5134000000000001,-0.37020000000000003,-0.6406000000000001,-0.025,-0.05,-0.003
2025-11-06 18:34:09.398,53.86,0.252,-0.587,0.269,-0.305,-0.871,-0.191,16.34,-27.12,-66.58,0.4345,-0.5145000000000001,-0.36970000000000003,-0.64,-0.024,-0.05,-0.006
2025-11-06 18:34:09.398,53.865,0.227,-0.636,0.25,-0.3,-0.874,-0.182,16.34,-27.12,-66.58,0.43420000000000003,-0.5156000000000001,-0.3699,-0.6392,-0.03,-0.048,-0.013000000000000001
2025-11-06 18:34:09.398,53.87,0.202,-0.661,0.226,-0.281,-0.884,-0.171,16.34,-27.12,-66.61,0.43360000000000004,-0.5159,-0.3715,-0.6384000000000001,-0.048,-0.039,-0.021
2025-11-06 18:34:09.398,53.875,0.183,-0.674,0.2,-0.28500000000000003,-0.902,-0.15,16.04,-27.47,-66.61,0.4323,-0.5166000000000001,-0.3739,-0.6374000000000001,-0.043000000000000003,-0.022,-0.037
2025-11-06 18:34:09.398,53.88,0.176,-0.671,0.17,-0.291,-0.921,-0.137,16.04,-27.47,-66.61,0.43060000000000004,-0.5174,-0.37670000000000003,-0.6362,-0.036000000000000004,-0.004,-0.045
2025-11-06 18:34:09.398,53.885,0.179,-0.653,0.146,-0.302,-0.93,-0.128,16.31,-27.47,-67.05,0.4289,-0.5187,-0.37920000000000004,-0.6349,-0.024,0.003,-0.047
2025-11-06 18:34:09.398,53.89,0.18,-0.627,0.124,-0.319,-0.93,-0.129,16.31,-27.47,-67.05,0.4274,-0.5203,-0.38070000000000004,-0.6337,-0.007,0.001,-0.04
2025-11-06 18:34:09.398,53.895,0.181,-0.597,0.106,-0.315,-0.919,-0.134,16.54,-29.37,-66.55,0.4264,-0.5217,-0.38170000000000004,-0.6325000000000001,-0.011,-0.009000000000000001,-0.03
2025-11-06 18:34:09.398,53.9,0.179,-0.5720000000000001,0.081,-0.329,-0.909,-0.147,16.54,-29.37,-66.55,0.42600000000000005,-0.5232,-0.3815,-0.6317,0.0,-0.02,-0.014
2025-11-06 18:34:09.398,53.905,0.163,-0.5690000000000001,0.066,-0.31,-0.897,-0.152,16.54,-29.37,-66.55,0.4263,-0.5242,-0.3814,-0.6308,-0.018000000000000002,-0.032,-0.007
2025-11-06 18:34:09.398,53.91,0.14100000000000001,-0.589,0.055,-0.31,-0.887,-0.146,16.51,-27.59,-66.58,0.4264,-0.5253,-0.38120000000000004,-0.6298,-0.019,-0.042,-0.011
2025-11-06 18:34:09.398,53.915,0.108,-0.592,0.039,-0.312,-0.879,-0.14200000000000002,16.51,-27.59,-66.58,0.42660000000000003,-0.5265000000000001,-0.3809,-0.6289,-0.017,-0.05,-0.013000000000000001
2025-11-06 18:34:09.398,53.92,0.062,-0.589,0.023,-0.314,-0.874,-0.14200000000000002,17.12,-27.27,-67.05,0.4268,-0.5277000000000001,-0.3803,-0.6281,-0.016,-0.056,-0.012
2025-11-06 18:34:09.398,53.925,-0.008,-0.581,-0.006,-0.33,-0.868,-0.149,17.12,-27.27,-67.05,0.4273,-0.529,-0.3788,-0.6276,-0.002,-0.06,-0.003
2025-11-06 18:34:09.398,53.93,-0.048,-0.582,-0.027,-0.35100000000000003,-0.861,-0.156,17.12,-27.27,-67.05,0.4277,-0.5306000000000001,-0.3763,-0.6275000000000001,0.015,-0.067,0.002
2025-11-06 18:34:09.398,53.935,-0.081,-0.589,-0.054,-0.364,-0.85,-0.17200000000000001,16.42,-27.68,-66.82000000000001,0.42850000000000005,-0.5321,-0.3728,-0.6277,0.023,-0.075,0.016
2025-11-06 18:34:09.398,53.94,-0.111,-0.606,-0.082,-0.358,-0.834,-0.184,16.42,-27.68,-66.82000000000001,0.4297,-0.5332,-0.36910000000000004,-0.6282,0.013000000000000001,-0.09,0.025
2025-11-06 18:34:09.398,53.945,-0.117,-0.633,-0.111,-0.366,-0.8260000000000001,-0.2,16.25,-27.240000000000002,-66.91,0.4313,-0.5341,-0.3648,-0.6289,0.016,-0.095,0.037
2025-11-06 18:34:09.398,53.95,-0.10300000000000001,-0.657,-0.133,-0.366,-0.834,-0.20500000000000002,16.25,-27.240000000000002,-66.91,0.4329,-0.5348,-0.3609,-0.6295000000000001,0.012,-0.085,0.038
2025-11-06 18:34:09.398,53.955,-0.059000000000000004,-0.672,-0.148,-0.354,-0.841,-0.209,16.25,-27.240000000000002,-66.91,0.4345,-0.5349,-0.3579,-0.6299,0.0,-0.076,0.038
2025-11-06 18:34:09.398,53.96,-0.017,-0.676,-0.157,-0.376,-0.859,-0.2,16.77,-28.35,-67.49,0.4358,-0.536,-0.3548,-0.6299,0.018000000000000002,-0.057,0.026000000000000002
2025-11-06 18:34:09.398,53.965,-0.016,-0.684,-0.164,-0.385,-0.885,-0.184,16.77,-28.35,-67.49,0.43670000000000003,-0.5376000000000001,-0.3524,-0.6292,0.024,-0.03,0.01
2025-11-06 18:34:09.398,53.97,-0.041,-0.6970000000000001,-0.166,-0.41600000000000004,-0.9480000000000001,-0.128,17.21,-27.18,-68.1,0.4369,-0.5411,-0.3508,-0.6269,0.052000000000000005,0.033,-0.041
2025-11-06 18:34:09.398,53.975,-0.092,-0.722,-0.177,-0.466,-0.991,-0.032,17.21,-27.18,-68.1,0.43610000000000004,-0.5479,-0.34940000000000004,-0.6224000000000001,0.097,0.076,-0.126
2025-11-06 18:34:09.398,53.98,-0.125,-0.739,-0.191,-0.468,-0.979,0.014,17.04,-27.650000000000002,-67.43,0.435,-0.5555,-0.3482,-0.617,0.094,0.065,-0.158
2025-11-06 18:34:09.398,53.985,-0.157,-0.737,-0.203,-0.498,-0.927,0.037,17.04,-27.650000000000002,-67.43,0.43260000000000004,-0.5639000000000001,-0.3461,-0.6124,0.116,0.013000000000000001,-0.165
2025-11-06 18:34:09.398,53.99,-0.157,-0.713,-0.217,-0.526,-0.868,0.045,17.04,-27.650000000000002,-67.43,0.42850000000000005,-0.5722,-0.3433,-0.6091,0.133,-0.042,-0.158
2025-11-06 18:34:09.398,53.995,-0.113,-0.707,-0.23600000000000002,-0.541,-0.8230000000000001,0.049,16.51,-26.92,-67.87,0.42300000000000004,-0.5801000000000001,-0.3405,-0.6069,0.134,-0.083,-0.148
2025-11-06 18:34:09.398,54.0,-0.09,-0.733,-0.244,-0.544,-0.8310000000000001,0.054,16.51,-26.92,-67.87,0.4182,-0.5876,-0.3378,-0.6046,0.125,-0.07100000000000001,-0.139
2025-11-06 18:34:09.398,54.005,-0.089,-0.763,-0.241,-0.532,-0.862,0.045,17.07,-26.71,-68.05,0.4151,-0.5940000000000001,-0.3355,-0.6017,0.10300000000000001,-0.037,-0.117
2025-11-06 18:34:09.398,54.01,-0.081,-0.77,-0.23600000000000002,-0.507,-0.91,0.016,17.07,-26.71,-68.05,0.4142,-0.5987,-0.3336,-0.5987,0.074,0.012,-0.079
2025-11-06 18:34:09.398,54.015,-0.047,-0.76,-0.221,-0.47500000000000003,-0.9570000000000001,-0.048,17.07,-26.71,-68.05,0.41490000000000005,-0.6002000000000001,-0.33290000000000003,-0.5971000000000001,0.041,0.06,-0.009000000000000001
2025-11-06 18:34:09.398,54.02,0.031,-0.721,-0.196,-0.456,-0.971,-0.11,16.86,-27.03,-68.89,0.41540000000000005,-0.599,-0.33330000000000004,-0.5977,0.023,0.073,0.05
2025-11-06 18:34:09.398,54.025,0.08600000000000001,-0.683,-0.17,-0.45,-0.9490000000000001,-0.137,16.86,-27.03,-68.89,0.4151,-0.5966,-0.33430000000000004,-0.5998,0.019,0.05,0.073
2025-11-06 18:34:09.398,54.03,0.137,-0.636,-0.14400000000000002,-0.447,-0.925,-0.14,17.04,-26.98,-68.86,0.4142,-0.5942000000000001,-0.3352,-0.6023000000000001,0.017,0.026000000000000002,0.07100000000000001
2025-11-06 18:34:09.398,54.035,0.183,-0.578,-0.122,-0.451,-0.904,-0.124,17.04,-26.98,-68.86,0.41300000000000003,-0.5928,-0.33580000000000004,-0.6042000000000001,0.02,0.006,0.052000000000000005
2025-11-06 18:34:09.398,54.04,0.217,-0.489,-0.10200000000000001,-0.465,-0.885,-0.083,17.04,-26.98,-68.86,0.4116,-0.5932000000000001,-0.3356,-0.6049,0.031,-0.011,0.012
2025-11-06 18:34:09.398,54.045,0.229,-0.384,-0.089,-0.46900000000000003,-0.879,-0.065,17.5,-26.89,-68.98,0.4101,-0.5943,-0.3352,-0.605,0.032,-0.015,-0.003
2025-11-06 18:34:09.398,54.05,0.23800000000000002,-0.289,-0.085,-0.482,-0.9420000000000001,-0.044,17.5,-26.89,-68.98,0.4097,-0.5962000000000001,-0.33480000000000004,-0.6036,0.044,0.047,-0.021
2025-11-06 18:34:09.398,54.055,0.257,-0.20400000000000001,-0.096,-0.47200000000000003,-1.0030000000000001,-0.042,17.36,-26.54,-68.48,0.4107,-0.5978,-0.33490000000000003,-0.6013000000000001,0.035,0.108,-0.019
2025-11-06 18:34:09.398,54.06,0.258,-0.136,-0.099,-0.456,-1.0210000000000001,-0.065,17.36,-26.54,-68.48,0.41200000000000003,-0.5981000000000001,-0.3356,-0.5997,0.022,0.124,0.005
2025-11-06 18:34:09.398,54.065,0.217,-0.058,-0.081,-0.443,-0.9450000000000001,-0.126,17.150000000000002,-26.89,-68.57000000000001,0.4118,-0.5956,-0.3367,-0.6017,0.01,0.046,0.063
2025-11-06 18:34:09.399,54.07,0.20800000000000002,0.013000000000000001,-0.07,-0.41300000000000003,-0.898,-0.158,17.150000000000002,-26.89,-68.57000000000001,0.41140000000000004,-0.5916,-0.3382,-0.6051000000000001,-0.017,0.0,0.089
2025-11-06 18:34:09.399,54.075,0.231,0.057,-0.061,-0.366,-0.872,-0.18,17.150000000000002,-26.89,-68.57000000000001,0.41200000000000003,-0.5864,-0.3403,-0.6086,-0.06,-0.026000000000000002,0.101
2025-11-06 18:34:09.399,54.08,0.278,0.083,-0.057,-0.322,-0.866,-0.19,17.330000000000002,-28.0,-68.51,0.41350000000000003,-0.5806,-0.3433,-0.6115,-0.098,-0.035,0.10200000000000001
2025-11-06 18:34:09.399,54.085,0.32,0.116,-0.052000000000000005,-0.29,-0.864,-0.183,17.330000000000002,-28.0,-68.51,0.41550000000000004,-0.5748,-0.34700000000000003,-0.6135,-0.122,-0.039,0.08600000000000001
2025-11-06 18:34:09.399,54.09,0.37,0.198,-0.045,-0.258,-0.866,-0.158,17.07,-26.740000000000002,-67.81,0.4176,-0.5696,-0.3517,-0.6142000000000001,-0.14300000000000002,-0.041,0.055
2025-11-06 18:34:09.399,54.095,0.39,0.273,-0.04,-0.241,-0.875,-0.135,17.07,-26.740000000000002,-67.81,0.4194,-0.5650000000000001,-0.3573,-0.6141,-0.149,-0.037,0.029
2025-11-06 18:34:09.399,54.1,0.40900000000000003,0.34700000000000003,-0.026000000000000002,-0.234,-0.895,-0.107,17.07,-26.740000000000002,-67.81,0.42050000000000004,-0.5611,-0.3635,-0.6132000000000001,-0.14400000000000002,-0.021,0.0
2025-11-06 18:34:09.399,54.105,0.438,0.391,-0.016,-0.23900000000000002,-0.929,-0.066,17.36,-26.45,-67.78,0.4202,-0.5584,-0.37070000000000003,-0.6116,-0.127,0.007,-0.036000000000000004
2025-11-06 18:34:09.399,54.11,0.456,0.419,0.0,-0.272,-0.962,-0.014,17.36,-26.45,-67.78,0.4178,-0.5573,-0.37820000000000004,-0.6096,-0.08600000000000001,0.035,-0.08
2025-11-06 18:34:09.399,54.115,0.437,0.419,0.008,-0.307,-0.969,0.026000000000000002,17.53,-28.35,-67.05,0.4138,-0.5575,-0.3854,-0.6076,-0.046,0.04,-0.11
2025-11-06 18:34:09.399,54.12,0.4,0.394,0.002,-0.342,-0.9560000000000001,0.036000000000000004,17.53,-28.35,-67.05,0.40890000000000004,-0.5586,-0.3912,-0.6063000000000001,-0.008,0.025,-0.109
2025-11-06 18:34:09.399,54.125,0.367,0.331,-0.012,-0.366,-0.935,0.029,17.53,-28.35,-67.05,0.404,-0.5599000000000001,-0.3955,-0.6056,0.014,0.002,-0.091
2025-11-06 18:34:09.399,54.13,0.34800000000000003,0.234,-0.03,-0.392,-0.908,0.022,17.94,-26.36,-67.17,0.39880000000000004,-0.5615,-0.3985,-0.6055,0.037,-0.023,-0.076
2025-11-06 18:34:09.399,54.135,0.327,0.114,-0.061,-0.463,-0.903,0.046,17.94,-26.36,-67.17,0.3912,-0.5643,-0.4006,-0.6065,0.1,-0.026000000000000002,-0.09
2025-11-06 18:34:09.399,54.14,0.277,0.039,-0.09,-0.436,-0.873,0.04,17.39,-27.060000000000002,-66.99,0.3851,-0.5667,-0.40240000000000004,-0.6069,0.066,-0.053,-0.075
2025-11-06 18:34:09.399,54.145,0.23,0.007,-0.101,-0.431,-0.8280000000000001,0.033,17.39,-27.060000000000002,-66.99,0.37920000000000004,-0.5690000000000001,-0.4036,-0.6078,0.053,-0.095,-0.061
2025-11-06 18:34:09.399,54.15,0.216,-0.008,-0.11,-0.417,-0.793,0.023,17.18,-27.060000000000002,-67.08,0.3738,-0.5708,-0.4043,-0.6089,0.032,-0.127,-0.045
2025-11-06 18:34:09.399,54.155,0.252,-0.009000000000000001,-0.115,-0.401,-0.782,0.035,17.18,-26.42,-67.08,0.3694,-0.5730000000000001,-0.4052,-0.609,0.009000000000000001,-0.135,-0.051000000000000004
2025-11-06 18:34:09.399,54.16,0.339,0.065,-0.124,-0.356,-0.791,0.062,17.18,-26.42,-67.08,0.3675,-0.5758,-0.4067,-0.6065,-0.037,-0.125,-0.07
2025-11-06 18:34:09.399,54.165,0.372,0.168,-0.131,-0.33,-0.802,0.079,17.39,-27.0,-67.37,0.3673,-0.5788,-0.4083,-0.6026,-0.062,-0.114,-0.078
2025-11-06 18:34:09.399,54.17,0.38,0.27,-0.14,-0.316,-0.8200000000000001,0.075,17.39,-27.0,-67.37,0.36810000000000004,-0.5812,-0.41000000000000003,-0.5987,-0.073,-0.098,-0.064
2025-11-06 18:34:09.399,54.175,0.367,0.331,-0.15,-0.321,-0.8320000000000001,0.056,17.59,-25.95,-67.26,0.3688,-0.5824,-0.41140000000000004,-0.596,-0.065,-0.08700000000000001,-0.04
2025-11-06 18:34:09.399,54.18,0.331,0.34700000000000003,-0.163,-0.321,-0.839,0.024,17.59,-25.95,-67.26,0.3699,-0.5825,-0.41240000000000004,-0.5947,-0.061,-0.082,-0.005
2025-11-06 18:34:09.399,54.185,0.265,0.311,-0.178,-0.322,-0.841,-0.005,17.59,-25.95,-67.26,0.3713,-0.5815,-0.4128,-0.5945,-0.056,-0.082,0.023
2025-11-06 18:34:09.399,54.19,0.23,0.28700000000000003,-0.192,-0.317,-0.834,-0.03,18.150000000000002,-25.810000000000002,-66.12,0.37310000000000004,-0.5799000000000001,-0.4127,-0.595,-0.059000000000000004,-0.09,0.044
2025-11-06 18:34:09.399,54.195,0.214,0.273,-0.214,-0.311,-0.8300000000000001,-0.046,18.150000000000002,-25.810000000000002,-66.12,0.3754,-0.5779000000000001,-0.4123,-0.5958,-0.062,-0.095,0.055
2025-11-06 18:34:09.399,54.2,0.189,0.275,-0.23700000000000002,-0.297,-0.8230000000000001,-0.044,17.59,-25.6,-66.76,0.3779,-0.5759000000000001,-0.4122,-0.5962000000000001,-0.07200000000000001,-0.10300000000000001,0.048
2025-11-06 18:34:09.399,54.205,0.147,0.28300000000000003,-0.263,-0.28500000000000003,-0.804,-0.019,17.59,-25.6,-66.76,0.3799,-0.5746,-0.4128,-0.5958,-0.08,-0.124,0.021
2025-11-06 18:34:09.399,54.21,0.10400000000000001,0.305,-0.294,-0.28700000000000003,-0.781,0.002,17.59,-25.6,-66.76,0.38070000000000004,-0.5738,-0.41390000000000005,-0.5953,-0.075,-0.148,0.0
2025-11-06 18:34:09.399,54.215,0.097,0.34,-0.32,-0.29,-0.765,0.027,17.740000000000002,-26.240000000000002,-66.64,0.3803,-0.5737,-0.4156,-0.5944,-0.07,-0.165,-0.023
2025-11-06 18:34:09.399,54.22,0.106,0.374,-0.342,-0.281,-0.754,0.044,17.740000000000002,-26.240000000000002,-66.64,0.3796,-0.5739000000000001,-0.4178,-0.5931000000000001,-0.077,-0.177,-0.036000000000000004
2025-11-06 18:34:09.399,54.225,0.106,0.397,-0.353,-0.265,-0.739,0.046,19.14,-27.560000000000002,-67.08,0.3793,-0.5740000000000001,-0.42010000000000003,-0.5915,-0.091,-0.192,-0.034
2025-11-06 18:34:09.399,54.23,0.089,0.396,-0.352,-0.261,-0.722,0.045,19.14,-27.560000000000002,-67.08,0.3789,-0.5740000000000001,-0.4223,-0.5902000000000001,-0.092,-0.211,-0.03
2025-11-06 18:34:09.399,54.235,0.095,0.394,-0.34900000000000003,-0.257,-0.725,0.049,19.14,-27.560000000000002,-67.08,0.37870000000000004,-0.5741,-0.42460000000000003,-0.5887,-0.093,-0.209,-0.03
2025-11-06 18:34:09.399,54.24,0.112,0.393,-0.353,-0.243,-0.739,0.06,18.03,-25.78,-66.64,0.379,-0.5743,-0.42710000000000004,-0.5865,-0.10200000000000001,-0.196,-0.037
2025-11-06 18:34:09.399,54.245,0.125,0.392,-0.354,-0.249,-0.762,0.08,18.03,-25.78,-66.64,0.3788,-0.5748,-0.4302,-0.5839,-0.091,-0.17500000000000002,-0.05
2025-11-06 18:34:09.399,54.25,0.126,0.381,-0.357,-0.267,-0.802,0.092,18.32,-25.95,-66.44,0.378,-0.5753,-0.43320000000000003,-0.5816,-0.069,-0.136,-0.055
2025-11-06 18:34:09.399,54.255,0.08,0.321,-0.356,-0.28400000000000003,-0.837,0.084,18.32,-25.95,-66.44,0.3773,-0.5756,-0.43570000000000003,-0.5800000000000001,-0.05,-0.10200000000000001,-0.042
2025-11-06 18:34:09.399,54.26,0.023,0.259,-0.35100000000000003,-0.28800000000000003,-0.849,0.07200000000000001,18.18,-25.98,-66.03,0.3771,-0.5755,-0.4375,-0.5788,-0.042,-0.09,-0.027
2025-11-06 18:34:09.399,54.265,-0.02,0.2,-0.34600000000000003,-0.295,-0.857,0.061,18.18,-25.98,-66.03,0.3771,-0.5752,-0.43870000000000003,-0.5782,-0.033,-0.083,-0.014
2025-11-06 18:34:09.400,54.27,-0.049,0.15,-0.35000000000000003,-0.294,-0.856,0.044,18.18,-25.98,-66.03,0.3776,-0.5746,-0.4393,-0.5780000000000001,-0.033,-0.085,0.002
2025-11-06 18:34:09.400,54.275,-0.065,0.10200000000000001,-0.359,-0.28700000000000003,-0.86,0.0,18.64,-25.51,-66.26,0.3798,-0.5732,-0.4385,-0.5785,-0.037,-0.082,0.043000000000000003
2025-11-06 18:34:09.400,54.28,-0.061,0.085,-0.369,-0.28800000000000003,-0.863,-0.019,18.64,-25.51,-66.26,0.3824,-0.5715,-0.4373,-0.5793,-0.034,-0.08,0.057
2025-11-06 18:34:09.400,54.285,-0.058,0.108,-0.384,-0.276,-0.864,-0.025,18.82,-26.04,-66.58,0.3854,-0.5697,-0.4363,-0.5800000000000001,-0.043000000000000003,-0.081,0.057
2025-11-06 18:34:09.400,54.29,-0.068,0.148,-0.396,-0.274,-0.87,-0.027,18.82,-26.04,-66.58,0.38820000000000005,-0.5679000000000001,-0.4354,-0.5805,-0.041,-0.076,0.053
2025-11-06 18:34:09.400,54.295,-0.097,0.181,-0.41100000000000003,-0.268,-0.874,-0.033,18.82,-26.04,-66.58,0.3912,-0.5659000000000001,-0.4345,-0.5811000000000001,-0.044,-0.074,0.053
2025-11-06 18:34:09.400,54.3,-0.134,0.20600000000000002,-0.432,-0.274,-0.88,-0.049,18.56,-26.13,-66.55,0.39430000000000004,-0.5637,-0.4333,-0.5821000000000001,-0.034,-0.069,0.062
2025-11-06 18:34:09.400,54.305,-0.176,0.217,-0.442,-0.291,-0.885,-0.06,18.56,-26.13,-66.55,0.39680000000000004,-0.5615,-0.43160000000000004,-0.5837,-0.015,-0.065,0.066
2025-11-06 18:34:09.400,54.31,-0.215,0.231,-0.451,-0.299,-0.883,-0.064,19.32,-25.78,-66.7,0.399,-0.5595,-0.4298,-0.5855,-0.006,-0.067,0.062
2025-11-06 18:34:09.400,54.315,-0.241,0.256,-0.456,-0.296,-0.874,-0.07,19.32,-25.78,-66.7,0.401,-0.5575,-0.42810000000000004,-0.5873,-0.009000000000000001,-0.076,0.06
2025-11-06 18:34:09.400,54.32,-0.25,0.289,-0.458,-0.305,-0.867,-0.07100000000000001,19.32,-25.78,-66.7,0.4027,-0.5557,-0.42610000000000003,-0.5893,0.0,-0.083,0.054
2025-11-06 18:34:09.400,54.325,-0.259,0.34400000000000003,-0.464,-0.326,-0.863,-0.07,19.02,-25.46,-66.67,0.4036,-0.5545,-0.4238,-0.5914,0.019,-0.08700000000000001,0.046
2025-11-06 18:34:09.400,54.33,-0.28800000000000003,0.371,-0.47000000000000003,-0.342,-0.865,-0.068,19.02,-25.46,-66.67,0.4041,-0.5538000000000001,-0.4213,-0.5936,0.032,-0.083,0.038
2025-11-06 18:34:09.400,54.335,-0.335,0.385,-0.47000000000000003,-0.35100000000000003,-0.869,-0.07100000000000001,19.38,-28.14,-67.29,0.4045,-0.5531,-0.4186,-0.5958,0.038,-0.078,0.035
2025-11-06 18:34:09.400,54.34,-0.402,0.363,-0.46900000000000003,-0.362,-0.88,-0.077,19.38,-28.14,-67.29,0.405,-0.5525,-0.41590000000000005,-0.598,0.045,-0.066,0.034
2025-11-06 18:34:09.400,54.345,-0.496,0.319,-0.462,-0.374,-0.896,-0.084,19.64,-25.78,-67.29,0.4055,-0.5519000000000001,-0.41290000000000004,-0.6003000000000001,0.054,-0.049,0.035
2025-11-06 18:34:09.400,54.35,-0.5730000000000001,0.265,-0.467,-0.379,-0.905,-0.096,19.64,-25.78,-67.29,0.4062,-0.5509000000000001,-0.4098,-0.6027,0.055,-0.038,0.041
2025-11-06 18:34:09.400,54.355,-0.607,0.229,-0.47300000000000003,-0.372,-0.907,-0.105,19.64,-25.78,-67.29,0.4072,-0.5497000000000001,-0.4071,-0.6051000000000001,0.046,-0.034,0.042
2025-11-06 18:34:09.400,54.36,-0.618,0.201,-0.482,-0.364,-0.904,-0.111,20.43,-26.57,-67.46000000000001,0.4082,-0.5481,-0.4047,-0.6074,0.035,-0.036000000000000004,0.041
2025-11-06 18:34:09.400,54.365,-0.609,0.183,-0.491,-0.352,-0.898,-0.124,20.43,-26.57,-67.46000000000001,0.40940000000000004,-0.5459,-0.40280000000000005,-0.6099,0.023,-0.041,0.046
2025-11-06 18:34:09.400,54.37,-0.582,0.165,-0.507,-0.343,-0.879,-0.128,20.25,-25.89,-67.87,0.4106,-0.5438000000000001,-0.40090000000000003,-0.6122000000000001,0.014,-0.059000000000000004,0.043000000000000003
2025-11-06 18:34:09.400,54.375,-0.554,0.162,-0.531,-0.334,-0.858,-0.125,20.25,-25.89,-67.87,0.4118,-0.5419,-0.39930000000000004,-0.6142000000000001,0.003,-0.08,0.032
2025-11-06 18:34:09.400,54.38,-0.546,0.159,-0.551,-0.334,-0.839,-0.129,20.25,-25.89,-67.87,0.41300000000000003,-0.5402,-0.39730000000000004,-0.6161,0.003,-0.098,0.029
2025-11-06 18:34:09.400,54.385,-0.552,0.159,-0.5730000000000001,-0.324,-0.8210000000000001,-0.137,20.25,-26.16,-68.45,0.4142,-0.5382,-0.3955,-0.6182000000000001,-0.006,-0.115,0.03
2025-11-06 18:34:09.400,54.39,-0.5760000000000001,0.165,-0.588,-0.32,-0.812,-0.145,20.25,-26.16,-68.45,0.41550000000000004,-0.536,-0.3937,-0.6204000000000001,-0.011,-0.123,0.031
2025-11-06 18:34:09.400,54.395,-0.616,0.179,-0.595,-0.315,-0.797,-0.156,21.1,-25.66,-68.54,0.4167,-0.5333,-0.3919,-0.623,-0.016,-0.137,0.034
2025-11-06 18:34:09.400,54.4,-0.648,0.183,-0.59,-0.303,-0.785,-0.164,21.1,-25.66,-68.54,0.41800000000000004,-0.5302,-0.3904,-0.6258,-0.027,-0.148,0.033
2025-11-06 18:34:09.400,54.405,-0.676,0.17,-0.58,-0.273,-0.77,-0.18,21.1,-25.66,-68.54,0.41910000000000003,-0.5254,-0.3901,-0.6292,-0.055,-0.162,0.039
2025-11-06 18:34:09.401,54.41,-0.7020000000000001,0.15,-0.5640000000000001,-0.263,-0.754,-0.197,20.84,-25.400000000000002,-68.28,0.4202,-0.52,-0.38980000000000004,-0.6331,-0.061,-0.178,0.044
2025-11-06 18:34:09.401,54.415,-0.73,0.137,-0.549,-0.23600000000000002,-0.729,-0.20500000000000002,20.84,-25.400000000000002,-68.28,0.4212,-0.5137,-0.3902,-0.6374000000000001,-0.084,-0.202,0.039
2025-11-06 18:34:09.401,54.42,-0.75,0.116,-0.525,-0.229,-0.709,-0.21,20.87,-25.37,-68.45,0.4224,-0.5075000000000001,-0.3902,-0.6416000000000001,-0.08700000000000001,-0.222,0.033
2025-11-06 18:34:09.401,54.425,-0.758,0.10400000000000001,-0.507,-0.216,-0.6940000000000001,-0.214,20.87,-25.37,-68.45,0.42350000000000004,-0.5013000000000001,-0.3902,-0.6456000000000001,-0.095,-0.23600000000000002,0.024
2025-11-06 18:34:09.401,54.43,-0.753,0.091,-0.488,-0.215,-0.686,-0.214,20.900000000000002,-25.51,-68.43,0.42500000000000004,-0.4958,-0.38980000000000004,-0.6492,-0.092,-0.243,0.012
2025-11-06 18:34:09.402,54.435,-0.739,0.078,-0.47100000000000003,-0.223,-0.684,-0.212,20.900000000000002,-25.51,-68.43,0.4268,-0.4918,-0.3884,-0.6519,-0.08,-0.244,0.0
2025-11-06 18:34:09.402,54.44,-0.717,0.061,-0.46,-0.223,-0.6910000000000001,-0.201,20.900000000000002,-25.51,-68.43,0.42850000000000005,-0.4888,-0.38730000000000003,-0.6537000000000001,-0.078,-0.23600000000000002,-0.019
2025-11-06 18:34:09.402,54.445,-0.71,0.027,-0.458,-0.219,-0.706,-0.19,20.75,-25.34,-69.51,0.4299,-0.4862,-0.387,-0.6548,-0.079,-0.22,-0.036000000000000004
2025-11-06 18:34:09.402,54.45,-0.709,-0.01,-0.461,-0.20400000000000001,-0.717,-0.186,20.75,-25.34,-69.51,0.4309,-0.48300000000000004,-0.38820000000000005,-0.6559,-0.09,-0.209,-0.044
2025-11-06 18:34:09.402,54.455,-0.709,-0.073,-0.47100000000000003,-0.193,-0.731,-0.182,21.6,-25.66,-68.95,0.43160000000000004,-0.4797,-0.3902,-0.6566000000000001,-0.095,-0.195,-0.052000000000000005
2025-11-06 18:34:09.402,54.46,-0.718,-0.137,-0.492,-0.189,-0.744,-0.18,21.6,-25.66,-68.95,0.4323,-0.4766,-0.3925,-0.657,-0.093,-0.184,-0.057
2025-11-06 18:34:09.402,54.465,-0.718,-0.222,-0.532,-0.195,-0.741,-0.182,21.6,-25.66,-68.95,0.4335,-0.47440000000000004,-0.39380000000000004,-0.6571,-0.082,-0.188,-0.057
2025-11-06 18:34:09.402,54.47,-0.719,-0.322,-0.559,-0.202,-0.734,-0.159,21.6,-25.28,-69.54,0.4349,-0.47390000000000004,-0.3946,-0.656,-0.07100000000000001,-0.196,-0.08
2025-11-06 18:34:09.402,54.475,-0.721,-0.40700000000000003,-0.591,-0.216,-0.723,-0.14400000000000002,21.6,-25.28,-69.54,0.4365,-0.4751,-0.39430000000000004,-0.6542,-0.055,-0.20800000000000002,-0.093
2025-11-06 18:34:09.402,54.48,-0.709,-0.47300000000000003,-0.625,-0.195,-0.6880000000000001,-0.146,21.42,-25.310000000000002,-69.45,0.4383,-0.47550000000000003,-0.39440000000000003,-0.6528,-0.074,-0.244,-0.09
2025-11-06 18:34:09.402,54.485,-0.684,-0.524,-0.651,-0.186,-0.658,-0.146,21.42,-25.310000000000002,-69.45,0.4403,-0.4758,-0.3941,-0.6514,-0.08,-0.274,-0.09
2025-11-06 18:34:09.402,54.49,-0.614,-0.496,-0.67,-0.20600000000000002,-0.634,-0.139,21.42,-25.310000000000002,-69.45,0.4423,-0.4777,-0.39230000000000004,-0.6497,-0.061,-0.299,-0.097
2025-11-06 18:34:09.402,54.495,-0.5660000000000001,-0.438,-0.683,-0.225,-0.617,-0.131,22.01,-25.37,-69.89,0.4441,-0.48100000000000004,-0.38920000000000005,-0.6479,-0.045,-0.316,-0.10300000000000001
2025-11-06 18:34:09.402,54.5,-0.528,-0.34700000000000003,-0.6900000000000001,-0.268,-0.618,-0.117,22.01,-25.37,-69.89,0.4455,-0.48660000000000003,-0.3844,-0.6456000000000001,-0.01,-0.313,-0.115
2025-11-06 18:34:09.402,54.505,-0.496,-0.234,-0.6980000000000001,-0.317,-0.629,-0.096,22.740000000000002,-27.27,-70.3,0.44620000000000004,-0.49460000000000004,-0.3783,-0.6426000000000001,0.027,-0.3,-0.13
2025-11-06 18:34:09.402,54.51,-0.47200000000000003,-0.10300000000000001,-0.714,-0.377,-0.652,-0.077,22.740000000000002,-27.27,-70.3,0.4459,-0.5042,-0.37120000000000003,-0.6395000000000001,0.073,-0.275,-0.14
2025-11-06 18:34:09.402,54.515,-0.461,0.08700000000000001,-0.735,-0.41400000000000003,-0.668,-0.088,22.740000000000002,-27.27,-70.3,0.44430000000000003,-0.5125000000000001,-0.3643,-0.638,0.093,-0.255,-0.122
2025-11-06 18:34:09.402,54.52,-0.457,0.17400000000000002,-0.741,-0.442,-0.682,-0.115,22.77,-25.16,-70.82000000000001,0.4413,-0.5185000000000001,-0.3582,-0.6387,0.105,-0.23600000000000002,-0.091
2025-11-06 18:34:09.402,54.525,-0.446,0.22,-0.74,-0.433,-0.6950000000000001,-0.14400000000000002,22.77,-25.16,-70.82000000000001,0.438,-0.5218,-0.3536,-0.6409,0.083,-0.218,-0.061
2025-11-06 18:34:09.402,54.53,-0.425,0.22,-0.735,-0.439,-0.71,-0.167,23.5,-24.990000000000002,-70.62,0.43420000000000003,-0.5234,-0.34990000000000004,-0.6442,0.078,-0.199,-0.039
2025-11-06 18:34:09.402,54.535,-0.404,0.19,-0.738,-0.397,-0.722,-0.201,23.5,-24.990000000000002,-70.62,0.4308,-0.5218,-0.34850000000000003,-0.6485000000000001,0.028,-0.183,-0.009000000000000001
2025-11-06 18:34:09.402,54.54,-0.417,0.133,-0.743,-0.361,-0.722,-0.227,23.44,-24.61,-70.94,0.42760000000000004,-0.5178,-0.3488,-0.6536000000000001,-0.01,-0.179,0.008
2025-11-06 18:34:09.402,54.545,-0.442,0.063,-0.745,-0.31,-0.726,-0.255,23.44,-24.61,-70.94,0.4248,-0.511,-0.3513,-0.6594,-0.059000000000000004,-0.17300000000000001,0.026000000000000002
2025-11-06 18:34:09.402,54.55,-0.459,-0.03,-0.74,-0.267,-0.745,-0.271,23.44,-24.61,-70.94,0.42300000000000004,-0.503,-0.3551,-0.6647000000000001,-0.096,-0.154,0.031
2025-11-06 18:34:09.402,54.555,-0.482,-0.11900000000000001,-0.739,-0.20600000000000002,-0.759,-0.28300000000000003,23.85,-24.52,-70.59,0.4224,-0.4932,-0.3608,-0.6693,-0.146,-0.14200000000000002,0.032
2025-11-06 18:34:09.402,54.56,-0.537,-0.20600000000000002,-0.73,-0.11,-0.758,-0.264,23.85,-24.52,-70.59,0.42410000000000003,-0.48210000000000003,-0.36920000000000003,-0.6717000000000001,-0.223,-0.146,0.003
2025-11-06 18:34:09.402,54.565,-0.581,-0.20800000000000002,-0.718,-0.059000000000000004,-0.735,-0.214,23.91,-24.080000000000002,-70.79,0.42800000000000005,-0.4728,-0.3781,-0.6709,-0.251,-0.17500000000000002,-0.051000000000000004
2025-11-06 18:34:09.402,54.57,-0.623,-0.154,-0.708,-0.035,-0.705,-0.159,23.91,-24.080000000000002,-70.79,0.433,-0.46590000000000004,-0.38720000000000004,-0.6674,-0.251,-0.213,-0.107
2025-11-06 18:34:09.402,54.575,-0.668,-0.052000000000000005,-0.7030000000000001,-0.027,-0.664,-0.099,23.91,-24.080000000000002,-70.79,0.4379,-0.4617,-0.39640000000000003,-0.6616000000000001,-0.23600000000000002,-0.262,-0.161
2025-11-06 18:34:09.402,54.58,-0.707,0.08,-0.712,-0.04,-0.605,-0.048,23.73,-24.29,-71.38,0.44120000000000004,-0.4601,-0.4055,-0.655,-0.20400000000000001,-0.329,-0.202
2025-11-06 18:34:09.402,54.585,-0.744,0.298,-0.729,-0.07,-0.549,-0.015,23.73,-24.29,-71.38,0.4415,-0.4606,-0.41400000000000003,-0.649,-0.16,-0.392,-0.221
2025-11-06 18:34:09.402,54.59,-0.78,0.41500000000000004,-0.741,-0.121,-0.522,-0.017,24.46,-25.72,-71.9,0.43820000000000003,-0.4622,-0.42010000000000003,-0.6463,-0.10400000000000001,-0.425,-0.20400000000000001
2025-11-06 18:34:09.402,54.595,-0.839,0.501,-0.748,-0.2,-0.518,-0.04,24.46,-25.72,-71.9,0.4307,-0.46430000000000005,-0.42260000000000003,-0.6481,-0.031,-0.43,-0.17300000000000001
2025-11-06 18:34:09.402,54.6,-0.931,0.5740000000000001,-0.751,-0.28,-0.525,-0.037,24.46,-25.72,-71.9,0.41960000000000003,-0.468,-0.42300000000000004,-0.6525000000000001,0.033,-0.421,-0.168
2025-11-06 18:34:09.402,54.605,-1.008,0.609,-0.754,-0.303,-0.577,-0.015,24.96,-24.64,-71.99,0.41050000000000003,-0.4728,-0.4233,-0.6547000000000001,0.039,-0.366,-0.181
2025-11-06 18:34:09.402,54.61,-1.041,0.592,-0.739,-0.305,-0.7020000000000001,0.003,24.96,-24.64,-71.99,0.40640000000000004,-0.4783,-0.4238,-0.6528,0.031,-0.241,-0.189
2025-11-06 18:34:09.402,54.615,-1.09,0.534,-0.723,-0.298,-0.851,-0.018000000000000002,25.19,-23.580000000000002,-72.61,0.4067,-0.4824,-0.4242,-0.6494,0.022,-0.092,-0.157
2025-11-06 18:34:09.402,54.62,-1.1280000000000001,0.459,-0.6990000000000001,-0.28400000000000003,-1.004,-0.10400000000000001,25.19,-23.580000000000002,-72.61,0.41000000000000003,-0.48310000000000003,-0.42400000000000004,-0.6469,0.013000000000000001,0.059000000000000004,-0.068
2025-11-06 18:34:09.403,54.625,-1.082,0.45,-0.663,-0.257,-1.145,-0.178,25.25,-23.32,-72.93,0.41600000000000004,-0.4822,-0.4233,-0.6443,-0.005,0.197,0.002
2025-11-06 18:34:09.403,54.63,-0.929,0.594,-0.58,-0.127,-1.256,-0.187,25.25,-23.32,-72.93,0.4295,-0.4822,-0.4219,-0.6362,-0.11900000000000001,0.305,0.008
2025-11-06 18:34:09.403,54.635,-0.748,0.791,-0.513,-0.017,-1.242,-0.197,25.25,-23.32,-72.93,0.4466,-0.48200000000000004,-0.42060000000000003,-0.6253000000000001,-0.20700000000000002,0.28700000000000003,0.016
2025-11-06 18:34:09.403,54.64,-0.554,0.906,-0.44,0.043000000000000003,-1.208,-0.20700000000000002,25.69,-24.52,-73.13,0.4637,-0.48100000000000004,-0.4199,-0.6141,-0.243,0.248,0.023
2025-11-06 18:34:09.403,54.645,-0.418,0.983,-0.367,0.07100000000000001,-1.186,-0.178,25.69,-24.52,-73.13,0.4781,-0.4796,-0.42110000000000003,-0.6032000000000001,-0.245,0.221,-0.007
2025-11-06 18:34:09.403,54.65,-0.338,1.0010000000000001,-0.313,0.076,-1.185,-0.093,25.400000000000002,-25.28,-73.22,0.4867,-0.4783,-0.42610000000000003,-0.5938,-0.227,0.216,-0.08700000000000001
2025-11-06 18:34:09.405,54.655,-0.216,0.835,-0.249,-0.033,-1.199,0.001,25.400000000000002,-25.28,-73.22,0.48410000000000003,-0.4772,-0.4353,-0.5901000000000001,-0.10200000000000001,0.225,-0.169
2025-11-06 18:34:09.405,54.66,-0.084,0.54,-0.198,-0.171,-1.235,0.045,25.400000000000002,-25.28,-73.22,0.4726,-0.4762,-0.44630000000000003,-0.5921000000000001,0.037,0.258,-0.197
2025-11-06 18:34:09.405,54.665,0.082,0.113,-0.131,-0.317,-1.308,0.054,26.13,-24.26,-73.10000000000001,0.45520000000000005,-0.4752,-0.45690000000000003,-0.5983,0.176,0.329,-0.188
2025-11-06 18:34:09.405,54.67,0.265,-0.326,-0.06,-0.436,-1.405,0.026000000000000002,26.13,-24.26,-73.10000000000001,0.43670000000000003,-0.47450000000000003,-0.4657,-0.6059,0.281,0.425,-0.145
2025-11-06 18:34:09.405,54.675,0.461,-0.646,-0.02,-0.46900000000000003,-1.578,0.014,25.54,-23.32,-72.34,0.42250000000000004,-0.47540000000000004,-0.4721,-0.6103000000000001,0.3,0.599,-0.12
2025-11-06 18:34:09.405,54.68,0.579,-0.58,-0.053,-0.291,-1.749,0.042,25.54,-23.32,-72.34,0.42100000000000004,-0.47940000000000005,-0.4753,-0.6056,0.12,0.771,-0.133
2025-11-06 18:34:09.405,54.685,0.546,-0.302,-0.157,-0.07100000000000001,-1.854,0.112,25.54,-23.32,-72.34,0.4302,-0.48610000000000003,-0.47650000000000003,-0.5928,-0.088,0.874,-0.188
2025-11-06 18:34:09.405,54.69,0.432,0.07100000000000001,-0.313,0.073,-1.958,0.11800000000000001,25.48,-22.88,-72.28,0.444,-0.49250000000000005,-0.47650000000000003,-0.5771000000000001,-0.213,0.975,-0.181
2025-11-06 18:34:09.405,54.695,0.29,0.34,-0.464,0.117,-2.08,0.0,25.48,-22.88,-72.28,0.45880000000000004,-0.49660000000000004,-0.4748,-0.5632,-0.234,1.093,-0.055
2025-11-06 18:34:09.405,54.7,0.156,0.405,-0.532,0.0,-2.207,-0.218,25.43,-25.43,-72.31,0.4707,-0.4978,-0.4713,-0.5552,-0.098,1.216,0.159
2025-11-06 18:34:09.405,54.705,-0.263,0.185,-0.464,-0.195,-2.278,-0.362,25.43,-25.43,-72.31,0.4776,-0.4969,-0.46680000000000005,-0.5539000000000001,0.106,1.285,0.294
2025-11-06 18:34:09.405,54.71,-0.525,-0.002,-0.353,-0.334,-2.244,-0.386,25.66,-22.3,-72.14,0.47990000000000005,-0.49510000000000004,-0.46290000000000003,-0.5569000000000001,0.244,1.2510000000000001,0.307
2025-11-06 18:34:09.405,54.715,-0.7010000000000001,-0.10400000000000001,-0.246,-0.446,-2.164,-0.364,25.66,-22.3,-72.14,0.4781,-0.4928,-0.45990000000000003,-0.5629000000000001,0.34900000000000003,1.172,0.275
2025-11-06 18:34:09.405,54.72,-0.761,-0.099,-0.162,-0.537,-2.08,-0.301,25.66,-22.3,-72.14,0.4723,-0.49060000000000004,-0.45830000000000004,-0.5710000000000001,0.428,1.09,0.203
2025-11-06 18:34:09.405,54.725,-0.667,0.07,-0.076,-0.614,-1.921,-0.223,25.54,-22.71,-72.72,0.4622,-0.48860000000000003,-0.45830000000000004,-0.5808,0.489,0.933,0.121
2025-11-06 18:34:09.405,54.73,-0.539,0.224,-0.008,-0.651,-1.811,-0.193,25.54,-22.71,-72.72,0.4506,-0.48700000000000004,-0.4587,-0.5910000000000001,0.507,0.8260000000000001,0.089
2025-11-06 18:34:09.405,54.735,-0.429,0.371,0.073,-0.668,-1.737,-0.21,25.78,-22.71,-73.89,0.4389,-0.48550000000000004,-0.4585,-0.601,0.505,0.756,0.10200000000000001
2025-11-06 18:34:09.405,54.74,-0.356,0.554,0.149,-0.679,-1.736,-0.26,25.78,-22.71,-73.89,0.4282,-0.48350000000000004,-0.45780000000000004,-0.6108,0.498,0.758,0.147
2025-11-06 18:34:09.405,54.745,-0.31,0.748,0.229,-0.631,-1.7630000000000001,-0.341,25.78,-22.71,-73.89,0.42000000000000004,-0.48040000000000005,-0.4566,-0.6198,0.436,0.789,0.221
2025-11-06 18:34:09.405,54.75,-0.34,0.9540000000000001,0.312,-0.515,-1.7750000000000001,-0.421,25.54,-22.94,-73.31,0.4151,-0.47550000000000003,-0.45530000000000004,-0.6277,0.312,0.804,0.29
2025-11-06 18:34:09.405,54.755,-0.381,1.028,0.355,-0.376,-1.786,-0.464,25.54,-22.94,-73.31,0.4137,-0.4696,-0.4545,-0.6337,0.171,0.8180000000000001,0.32
2025-11-06 18:34:09.406,54.76,-0.43,1.131,0.37,-0.2,-1.7850000000000001,-0.487,25.57,-22.82,-73.54,0.41600000000000004,-0.46240000000000003,-0.4546,-0.6374000000000001,0.0,0.8180000000000001,0.33
2025-11-06 18:34:09.406,54.765,-0.456,1.27,0.361,-0.006,-1.778,-0.498,25.57,-22.82,-73.54,0.4218,-0.45370000000000005,-0.4561,-0.6387,-0.179,0.812,0.328
2025-11-06 18:34:09.406,54.77,-0.47000000000000003,1.447,0.327,0.258,-1.738,-0.425,25.57,-22.82,-73.54,0.43170000000000003,-0.4439,-0.46040000000000003,-0.6359,-0.421,0.77,0.245
2025-11-06 18:34:09.406,54.775,-0.47600000000000003,1.573,0.262,0.378,-1.62,-0.329,24.78,-23.18,-73.66,0.4419,-0.43360000000000004,-0.4671,-0.6311,-0.51,0.649,0.14300000000000002
2025-11-06 18:34:09.406,54.78,-0.449,1.592,0.185,0.433,-1.479,-0.224,24.78,-23.18,-73.66,0.45070000000000005,-0.42300000000000004,-0.47640000000000005,-0.6251,-0.532,0.506,0.035
2025-11-06 18:34:09.406,54.785,-0.389,1.5250000000000001,0.099,0.436,-1.333,-0.147,25.16,-22.88,-73.69,0.4575,-0.4123,-0.48750000000000004,-0.6187,-0.501,0.356,-0.037
2025-11-06 18:34:09.406,54.79,-0.326,1.3960000000000001,0.022,0.40900000000000003,-1.189,-0.12,25.16,-22.88,-73.69,0.4637,-0.402,-0.4983,-0.6123000000000001,-0.441,0.209,-0.06
2025-11-06 18:34:09.406,54.795,-0.212,1.1400000000000001,-0.063,0.373,-1.0070000000000001,-0.15,25.16,-22.88,-73.69,0.4732,-0.3932,-0.5057,-0.6046,-0.372,0.025,-0.028
2025-11-06 18:34:09.406,54.8,-0.15,0.859,-0.095,0.353,-0.923,-0.181,24.34,-23.5,-74.33,0.48510000000000003,-0.3859,-0.5098,-0.5964,-0.321,-0.057,0.0
2025-11-06 18:34:09.406,54.805,-0.11800000000000001,0.663,-0.117,0.352,-0.857,-0.184,24.34,-23.5,-74.33,0.497,-0.3788,-0.5132,-0.5882000000000001,-0.29,-0.121,0.0
2025-11-06 18:34:09.406,54.81,-0.116,0.504,-0.137,0.364,-0.808,-0.161,24.32,-22.77,-74.21000000000001,0.5063,-0.3703,-0.5187,-0.5808,-0.272,-0.168,-0.025
2025-11-06 18:34:09.406,54.815,-0.124,0.388,-0.17,0.379,-0.735,-0.131,24.32,-22.77,-74.21000000000001,0.5135000000000001,-0.36000000000000004,-0.5264,-0.5739000000000001,-0.256,-0.23700000000000002,-0.055
2025-11-06 18:34:09.406,54.82,-0.11,0.272,-0.228,0.389,-0.656,-0.124,24.990000000000002,-23.53,-73.60000000000001,0.5225000000000001,-0.3497,-0.5334,-0.5656,-0.232,-0.312,-0.061
2025-11-06 18:34:09.406,54.825,-0.077,0.20700000000000002,-0.272,0.382,-0.614,-0.14100000000000001,24.990000000000002,-23.53,-73.60000000000001,0.5344,-0.3413,-0.5373,-0.556,-0.192,-0.34700000000000003,-0.047
2025-11-06 18:34:09.406,54.83,-0.03,0.14,-0.318,0.361,-0.595,-0.165,24.990000000000002,-23.53,-73.60000000000001,0.5484,-0.33540000000000003,-0.5375,-0.5456,-0.14100000000000001,-0.359,-0.029
2025-11-06 18:34:09.406,54.835,0.012,0.065,-0.37,0.339,-0.587,-0.195,24.78,-22.5,-73.98,0.5645,-0.3322,-0.534,-0.5345,-0.094,-0.359,-0.009000000000000001
2025-11-06 18:34:09.406,54.84,0.052000000000000005,-0.011,-0.436,0.295,-0.591,-0.24,24.78,-22.5,-73.98,0.5839,-0.33390000000000003,-0.5243,-0.522,-0.031,-0.34700000000000003,0.018000000000000002
2025-11-06 18:34:09.406,54.845,0.093,-0.077,-0.496,0.258,-0.608,-0.303,24.61,-23.38,-73.45,0.6068,-0.33990000000000004,-0.5083,-0.5076,0.015,-0.322,0.057
2025-11-06 18:34:09.406,54.85,0.11900000000000001,-0.127,-0.513,0.23600000000000002,-0.63,-0.35100000000000003,24.61,-23.38,-73.45,0.629,-0.34690000000000004,-0.4902,-0.4934,0.042,-0.291,0.078
2025-11-06 18:34:09.406,54.855,0.163,-0.171,-0.509,0.2,-0.66,-0.384,24.61,-23.38,-73.45,0.6489,-0.3548,-0.47140000000000004,-0.4803,0.076,-0.254,0.085
2025-11-06 18:34:09.406,54.86,0.215,-0.20500000000000002,-0.47900000000000004,0.17200000000000001,-0.6960000000000001,-0.402,25.310000000000002,-22.12,-73.39,0.6652,-0.36260000000000003,-0.45370000000000005,-0.4691,0.098,-0.213,0.081
2025-11-06 18:34:09.406,54.865,0.279,-0.225,-0.421,0.14400000000000002,-0.746,-0.422,25.310000000000002,-22.12,-73.39,0.6784,-0.37060000000000004,-0.43710000000000004,-0.4595,0.117,-0.16,0.082
2025-11-06 18:34:09.407,54.87,0.327,-0.222,-0.379,0.125,-0.772,-0.424,25.22,-23.5,-73.63,0.6888000000000001,-0.3781,-0.4224,-0.4516,0.124,-0.131,0.069
2025-11-06 18:34:09.407,54.875,0.34500000000000003,-0.189,-0.338,0.10300000000000001,-0.792,-0.422,25.22,-23.5,-73.63,0.6970000000000001,-0.38530000000000003,-0.4091,-0.4451,0.133,-0.11,0.055
2025-11-06 18:34:09.407,54.88,0.35100000000000003,-0.15,-0.3,0.065,-0.799,-0.419,25.22,-23.5,-73.63,0.7040000000000001,-0.3932,-0.39580000000000004,-0.4394,0.157,-0.10300000000000001,0.043000000000000003
2025-11-06 18:34:09.407,54.885,0.34900000000000003,-0.117,-0.266,0.016,-0.792,-0.41500000000000004,25.37,-21.92,-73.57000000000001,0.7099000000000001,-0.40180000000000005,-0.38170000000000004,-0.4344,0.188,-0.111,0.03
2025-11-06 18:34:09.407,54.89,0.331,-0.099,-0.223,-0.057,-0.761,-0.41300000000000003,25.37,-21.92,-73.57000000000001,0.7153,-0.41150000000000003,-0.3653,-0.43060000000000004,0.23800000000000002,-0.14400000000000002,0.019
2025-11-06 18:34:09.407,54.895,0.312,-0.124,-0.192,-0.111,-0.729,-0.40900000000000003,25.72,-22.06,-73.86,0.7196,-0.4209,-0.3481,-0.42850000000000005,0.265,-0.177,0.007
2025-11-06 18:34:09.407,54.9,0.293,-0.157,-0.155,-0.161,-0.6910000000000001,-0.4,25.72,-22.06,-73.86,0.7225,-0.43,-0.3305,-0.42850000000000005,0.28500000000000003,-0.216,-0.01
2025-11-06 18:34:09.407,54.905,0.277,-0.178,-0.111,-0.21,-0.66,-0.393,25.22,-22.18,-73.57000000000001,0.7241000000000001,-0.4384,-0.3128,-0.4307,0.3,-0.246,-0.025
2025-11-06 18:34:09.407,54.91,0.268,-0.171,-0.053,-0.262,-0.635,-0.396,25.22,-22.18,-73.57000000000001,0.7240000000000001,-0.44580000000000003,-0.29500000000000004,-0.43570000000000003,0.316,-0.27,-0.03
2025-11-06 18:34:09.407,54.915,0.28,-0.115,0.009000000000000001,-0.302,-0.618,-0.41100000000000003,25.22,-22.18,-73.57000000000001,0.7227,-0.4516,-0.2778,-0.4431,0.319,-0.28500000000000003,-0.025
2025-11-06 18:34:09.407,54.92,0.296,-0.059000000000000004,0.058,-0.32,-0.62,-0.41500000000000004,25.28,-21.54,-73.42,0.7207,-0.4567,-0.26180000000000003,-0.4509,0.3,-0.279,-0.029
2025-11-06 18:34:09.407,54.925,0.28800000000000003,0.027,0.10300000000000001,-0.327,-0.636,-0.432,25.28,-21.54,-73.42,0.7184,-0.4606,-0.2474,-0.4587,0.275,-0.257,-0.02
2025-11-06 18:34:09.407,54.93,0.272,0.121,0.14300000000000002,-0.314,-0.656,-0.452,25.22,-21.39,-73.37,0.7162000000000001,-0.46290000000000003,-0.2353,-0.4661,0.232,-0.231,-0.007
2025-11-06 18:34:09.407,54.935,0.23900000000000002,0.241,0.188,-0.273,-0.705,-0.482,25.22,-21.39,-73.37,0.7144,-0.46330000000000005,-0.22690000000000002,-0.4726,0.17,-0.176,0.015
2025-11-06 18:34:09.407,54.94,0.198,0.364,0.224,-0.20500000000000002,-0.772,-0.492,25.22,-21.39,-73.37,0.7132000000000001,-0.4627,-0.2227,-0.47690000000000005,0.091,-0.10400000000000001,0.019
2025-11-06 18:34:09.407,54.945,0.165,0.462,0.247,-0.163,-0.8260000000000001,-0.49,24.96,-21.57,-73.16,0.7123,-0.4622,-0.2212,-0.47950000000000004,0.043000000000000003,-0.048,0.014
2025-11-06 18:34:09.407,54.95,0.134,0.587,0.253,-0.133,-0.88,-0.47800000000000004,24.96,-21.57,-73.16,0.7115,-0.46230000000000004,-0.2215,-0.48040000000000005,0.012,0.007,0.001
2025-11-06 18:34:09.407,54.955,0.116,0.72,0.243,-0.11,-0.9400000000000001,-0.455,24.96,-22.650000000000002,-72.25,0.7107,-0.4635,-0.2233,-0.47950000000000004,-0.009000000000000001,0.065,-0.017
2025-11-06 18:34:09.407,54.96,0.081,0.897,0.18,-0.025,-1.036,-0.429,24.96,-22.650000000000002,-72.25,0.7099000000000001,-0.4646,-0.22920000000000001,-0.47700000000000004,-0.08600000000000001,0.158,-0.036000000000000004
2025-11-06 18:34:09.407,54.965,0.04,0.9450000000000001,0.126,0.049,-1.098,-0.426,24.96,-22.650000000000002,-72.25,0.7089000000000001,-0.46430000000000005,-0.2381,-0.47450000000000003,-0.148,0.214,-0.031
2025-11-06 18:34:09.408,54.97,0.001,0.926,0.065,0.08600000000000001,-1.1440000000000001,-0.42,24.78,-22.56,-72.31,0.7078,-0.46380000000000005,-0.24760000000000001,-0.4716,-0.168,0.254,-0.03
2025-11-06 18:34:09.408,54.975,-0.048,0.89,0.003,0.14,-1.161,-0.41200000000000003,24.78,-22.56,-72.31,0.7068,-0.4625,-0.25830000000000003,-0.4687,-0.20400000000000001,0.266,-0.029
2025-11-06 18:34:09.408,54.98,-0.096,0.843,-0.046,0.11900000000000001,-1.2,-0.387,24.46,-23.94,-72.66,0.7055,-0.4627,-0.2675,-0.46530000000000005,-0.167,0.299,-0.044
2025-11-06 18:34:09.408,54.985,-0.13,0.809,-0.097,0.122,-1.238,-0.375,24.46,-23.94,-72.66,0.7040000000000001,-0.46330000000000005,-0.2762,-0.4617,-0.156,0.331,-0.046
2025-11-06 18:34:09.408,54.99,-0.179,0.741,-0.17,0.151,-1.27,-0.385,24.93,-22.09,-72.31,0.7029000000000001,-0.46340000000000003,-0.2848,-0.4581,-0.17,0.359,-0.025
2025-11-06 18:34:09.408,54.995,-0.246,0.665,-0.198,0.166,-1.2630000000000001,-0.40700000000000003,24.93,-22.09,-72.31,0.7024,-0.4625,-0.2926,-0.455,-0.17,0.34700000000000003,0.003
2025-11-06 18:34:09.408,55.0,-0.355,0.608,-0.20700000000000002,0.178,-1.233,-0.40900000000000003,24.93,-22.09,-72.31,0.7022,-0.46090000000000003,-0.2999,-0.4521,-0.169,0.315,0.012
2025-11-06 18:34:09.408,55.005,-0.519,0.556,-0.194,0.17200000000000001,-1.17,-0.401,24.64,-22.21,-72.9,0.7023,-0.45890000000000003,-0.30610000000000004,-0.44980000000000003,-0.149,0.25,0.008
2025-11-06 18:34:09.408,55.01,-0.646,0.491,-0.169,0.168,-1.071,-0.401,24.64,-22.21,-72.9,0.7032,-0.45580000000000004,-0.31120000000000003,-0.4479,-0.133,0.15,0.01
2025-11-06 18:34:09.408,55.015,-0.681,0.432,-0.169,0.155,-0.998,-0.396,24.46,-21.830000000000002,-72.31,0.7045,-0.4525,-0.3153,-0.4465,-0.11,0.078,0.004
2025-11-06 18:34:09.408,55.02,-0.642,0.39,-0.191,0.128,-0.925,-0.377,24.46,-21.830000000000002,-72.31,0.7056,-0.44970000000000004,-0.3184,-0.4454,-0.074,0.006,-0.015
2025-11-06 18:34:09.408,55.025,-0.594,0.363,-0.214,0.068,-0.891,-0.34800000000000003,24.46,-21.830000000000002,-72.31,0.7056,-0.44870000000000004,-0.31980000000000003,-0.4454,-0.01,-0.027,-0.045
2025-11-06 18:34:09.408,55.03,-0.59,0.277,-0.241,-0.046,-0.864,-0.331,25.25,-21.86,-72.69,0.7039000000000001,-0.4505,-0.3176,-0.44770000000000004,0.099,-0.055,-0.061
2025-11-06 18:34:09.408,55.035,-0.624,0.145,-0.255,-0.106,-0.8230000000000001,-0.312,25.25,-21.86,-72.69,0.7015,-0.45370000000000005,-0.3134,-0.45130000000000003,0.147,-0.097,-0.08
2025-11-06 18:34:09.408,55.04,-0.637,0.002,-0.265,-0.138,-0.798,-0.373,24.75,-21.8,-72.2,0.7003,-0.455,-0.3069,-0.4562,0.163,-0.121,-0.023
2025-11-06 18:34:09.408,55.045,-0.602,-0.16,-0.258,-0.17300000000000001,-0.777,-0.38,24.75,-21.8,-72.2,0.6989000000000001,-0.4567,-0.2992,-0.46180000000000004,0.181,-0.14,-0.022
2025-11-06 18:34:09.408,55.05,-0.56,-0.289,-0.24,-0.17500000000000002,-0.765,-0.397,24.75,-21.8,-72.2,0.6980000000000001,-0.4577,-0.2914,-0.4671,0.165,-0.149,-0.012
2025-11-06 18:34:09.408,55.055,-0.488,-0.443,-0.20700000000000002,-0.155,-0.75,-0.404,24.900000000000002,-22.68,-72.75,0.6977,-0.4581,-0.2844,-0.47150000000000003,0.129,-0.16,-0.013000000000000001
2025-11-06 18:34:09.408,55.06,-0.439,-0.47500000000000003,-0.185,-0.125,-0.734,-0.402,24.900000000000002,-22.68,-72.75,0.6979000000000001,-0.45780000000000004,-0.2787,-0.47490000000000004,0.088,-0.17300000000000001,-0.022
2025-11-06 18:34:09.408,55.065,-0.397,-0.461,-0.17,-0.093,-0.727,-0.401,25.02,-22.91,-72.75,0.6986,-0.4567,-0.2745,-0.4772,0.049,-0.17500000000000002,-0.03
2025-11-06 18:34:09.408,55.07,-0.353,-0.425,-0.158,-0.066,-0.748,-0.397,25.02,-22.91,-72.75,0.6995,-0.45580000000000004,-0.272,-0.4783,0.018000000000000002,-0.152,-0.039
2025-11-06 18:34:09.408,55.075,-0.306,-0.38,-0.145,-0.024,-0.802,-0.39,25.02,-22.91,-72.75,0.7005,-0.45520000000000005,-0.2718,-0.47750000000000004,-0.023,-0.096,-0.048
2025-11-06 18:34:09.408,55.08,-0.268,-0.305,-0.13,0.011,-0.873,-0.381,24.87,-21.77,-73.72,0.7014,-0.45530000000000004,-0.2736,-0.4751,-0.054,-0.026000000000000002,-0.055
2025-11-06 18:34:09.408,55.085,-0.23700000000000002,-0.23900000000000002,-0.122,0.039,-0.929,-0.374,24.87,-21.77,-73.72,0.7020000000000001,-0.4559,-0.2766,-0.47190000000000004,-0.076,0.027,-0.058
2025-11-06 18:34:09.408,55.09,-0.21,-0.153,-0.123,0.084,-0.966,-0.37,25.19,-22.3,-74.42,0.7028,-0.456,-0.2811,-0.46790000000000004,-0.111,0.062,-0.057
2025-11-06 18:34:09.408,55.095,-0.198,-0.054,-0.11900000000000001,0.13,-0.981,-0.37,25.19,-22.3,-74.42,0.7038,-0.45530000000000004,-0.2868,-0.4635,-0.145,0.074,-0.052000000000000005
2025-11-06 18:34:09.408,55.1,-0.169,0.085,-0.126,0.126,-1.059,-0.339,25.310000000000002,-23.41,-74.13,0.7036,-0.45640000000000003,-0.2928,-0.459,-0.128,0.148,-0.075
2025-11-06 18:34:09.408,55.105,-0.13,0.223,-0.161,0.128,-1.12,-0.314,25.310000000000002,-23.41,-74.13,0.7025,-0.45840000000000003,-0.2993,-0.4545,-0.11900000000000001,0.20500000000000002,-0.089
2025-11-06 18:34:09.408,55.11,-0.122,0.319,-0.211,0.10400000000000001,-1.171,-0.289,25.310000000000002,-23.41,-74.13,0.7004,-0.4615,-0.3054,-0.45070000000000005,-0.085,0.251,-0.10200000000000001
2025-11-06 18:34:09.408,55.115,-0.132,0.399,-0.261,0.07100000000000001,-1.194,-0.268,25.69,-23.2,-74.13,0.6974,-0.4651,-0.3109,-0.44770000000000004,-0.047,0.268,-0.108
2025-11-06 18:34:09.408,55.12,-0.14400000000000002,0.438,-0.298,0.047,-1.174,-0.259,25.69,-23.2,-74.13,0.6942,-0.46880000000000005,-0.3156,-0.4456,-0.019,0.243,-0.105
2025-11-06 18:34:09.408,55.125,-0.182,0.391,-0.28300000000000003,-0.018000000000000002,-1.099,-0.262,26.16,-22.06,-73.83,0.6905,-0.47240000000000004,-0.3183,-0.4456,0.045,0.163,-0.091
2025-11-06 18:34:09.408,55.13,-0.22,0.295,-0.244,-0.07,-1.073,-0.293,26.16,-22.06,-73.83,0.6869000000000001,-0.47550000000000003,-0.31880000000000003,-0.4476,0.092,0.134,-0.053
2025-11-06 18:34:09.408,55.135,-0.254,0.163,-0.20700000000000002,-0.114,-1.029,-0.319,26.16,-22.06,-73.83,0.6834,-0.47790000000000005,-0.3173,-0.45130000000000003,0.127,0.088,-0.023
2025-11-06 18:34:09.408,55.14,-0.275,0.046,-0.171,-0.14100000000000001,-0.973,-0.339,26.13,-22.150000000000002,-73.69,0.6803,-0.4797,-0.3145,-0.4561,0.14200000000000002,0.031,-0.002
2025-11-06 18:34:09.408,55.145,-0.293,-0.031,-0.14100000000000001,-0.166,-0.927,-0.35000000000000003,26.13,-22.150000000000002,-73.69,0.6773,-0.48100000000000004,-0.3106,-0.46180000000000004,0.154,-0.013000000000000001,0.005
2025-11-06 18:34:09.408,55.15,-0.314,-0.063,-0.109,-0.186,-0.908,-0.35000000000000003,25.46,-23.64,-74.3,0.6742,-0.4824,-0.3063,-0.4677,0.159,-0.031,0.003
2025-11-06 18:34:09.408,55.155,-0.315,-0.049,-0.10200000000000001,-0.188,-0.902,-0.34900000000000003,25.46,-23.64,-74.3,0.6713,-0.4838,-0.30210000000000004,-0.4731,0.147,-0.035,0.0
2025-11-06 18:34:09.408,55.16,-0.299,-0.021,-0.10300000000000001,-0.178,-0.897,-0.34600000000000003,25.46,-23.64,-74.3,0.6689,-0.4849,-0.2985,-0.4776,0.124,-0.039,-0.005
2025-11-06 18:34:09.408,55.165,-0.27,0.018000000000000002,-0.115,-0.15,-0.889,-0.341,25.72,-22.240000000000002,-74.3,0.6673,-0.4857,-0.29600000000000004,-0.4807,0.08700000000000001,-0.045,-0.012
2025-11-06 18:34:09.409,55.17,-0.188,0.09,-0.14100000000000001,-0.107,-0.884,-0.34700000000000003,25.72,-22.240000000000002,-74.3,0.6667000000000001,-0.48550000000000004,-0.2948,-0.48250000000000004,0.039,-0.049,-0.007
2025-11-06 18:34:09.409,55.175,-0.10200000000000001,0.164,-0.167,-0.062,-0.877,-0.34600000000000003,24.93,-21.740000000000002,-73.95,0.667,-0.48450000000000004,-0.29500000000000004,-0.4828,-0.005,-0.055,-0.01
2025-11-06 18:34:09.409,55.18,-0.045,0.211,-0.191,-0.03,-0.865,-0.336,24.93,-21.740000000000002,-73.95,0.6679,-0.4834,-0.2963,-0.48190000000000005,-0.034,-0.067,-0.021
2025-11-06 18:34:09.409,55.185,0.002,0.247,-0.20600000000000002,-0.003,-0.858,-0.328,25.37,-21.95,-73.51,0.6691,-0.48200000000000004,-0.2985,-0.4803,-0.055,-0.074,-0.029
2025-11-06 18:34:09.409,55.19,0.045,0.271,-0.219,0.015,-0.856,-0.324,25.37,-21.95,-73.51,0.6705,-0.4806,-0.30110000000000003,-0.4782,-0.066,-0.077,-0.033
2025-11-06 18:34:09.409,55.195,0.073,0.28500000000000003,-0.222,0.038,-0.863,-0.332,25.37,-21.95,-73.51,0.6722,-0.4787,-0.30410000000000004,-0.4757,-0.08,-0.07,-0.024
2025-11-06 18:34:09.409,55.2,0.07200000000000001,0.275,-0.219,0.054,-0.88,-0.34,25.72,-21.92,-73.8,0.674,-0.4766,-0.3073,-0.4732,-0.08600000000000001,-0.053,-0.017
2025-11-06 18:34:09.409,55.205,0.06,0.245,-0.209,0.062,-0.904,-0.34500000000000003,25.72,-21.92,-73.8,0.6757000000000001,-0.4747,-0.3104,-0.4706,-0.084,-0.03,-0.012
2025-11-06 18:34:09.409,55.21,0.031,0.20600000000000002,-0.197,0.07100000000000001,-0.931,-0.34700000000000003,25.78,-21.42,-73.54,0.6773,-0.47300000000000003,-0.3135,-0.468,-0.084,-0.003,-0.009000000000000001
2025-11-06 18:34:09.409,55.215,-0.009000000000000001,0.159,-0.186,0.077,-0.961,-0.34900000000000003,25.78,-21.42,-73.54,0.6787000000000001,-0.4717,-0.3165,-0.46540000000000004,-0.081,0.026000000000000002,-0.006
2025-11-06 18:34:09.409,55.22,-0.078,0.083,-0.177,0.08600000000000001,-0.997,-0.35100000000000003,25.78,-21.42,-73.54,0.6799000000000001,-0.4706,-0.31930000000000003,-0.4627,-0.082,0.061,-0.002
2025-11-06 18:34:09.409,55.225,-0.123,0.041,-0.17300000000000001,0.091,-1.016,-0.35000000000000003,25.48,-21.66,-73.75,0.681,-0.4697,-0.3221,-0.4601,-0.079,0.079,-0.001
2025-11-06 18:34:09.409,55.23,-0.156,0.004,-0.17,0.094,-1.027,-0.353,25.48,-21.66,-73.75,0.6821,-0.46890000000000004,-0.3245,-0.4577,-0.074,0.09,0.002
2025-11-06 18:34:09.409,55.235,-0.17200000000000001,-0.028,-0.171,0.088,-1.027,-0.359,25.78,-21.68,-73.10000000000001,0.6831,-0.468,-0.3265,-0.4556,-0.062,0.089,0.009000000000000001
2025-11-06 18:34:09.409,55.24,-0.18,-0.07200000000000001,-0.17400000000000002,0.067,-1.004,-0.37,25.78,-21.68,-73.10000000000001,0.6841,-0.4672,-0.32730000000000004,-0.4544,-0.037,0.066,0.02
2025-11-06 18:34:09.409,55.245,-0.193,-0.11800000000000001,-0.183,0.046,-0.963,-0.377,25.78,-21.68,-73.10000000000001,0.6852,-0.4661,-0.3271,-0.4539,-0.014,0.025,0.026000000000000002
2025-11-06 18:34:09.409,55.25,-0.195,-0.133,-0.192,0.028,-0.928,-0.376,26.01,-22.06,-73.39,0.6863,-0.4652,-0.3262,-0.4539,0.004,-0.007,0.021
2025-11-06 18:34:09.409,55.255,-0.189,-0.132,-0.20600000000000002,0.008,-0.903,-0.372,26.01,-22.06,-73.39,0.687,-0.4645,-0.3247,-0.4545,0.022,-0.031,0.014
2025-11-06 18:34:09.409,55.26,-0.17,-0.134,-0.218,-0.011,-0.884,-0.37,25.92,-22.97,-73.86,0.6875,-0.4642,-0.32270000000000004,-0.4555,0.04,-0.049,0.009000000000000001
2025-11-06 18:34:09.409,55.265,-0.13,-0.117,-0.23,-0.038,-0.868,-0.368,25.92,-22.97,-73.86,0.6876,-0.46430000000000005,-0.3201,-0.4571,0.062,-0.064,0.004
2025-11-06 18:34:09.409,55.27,-0.099,-0.091,-0.233,-0.044,-0.857,-0.378,25.89,-21.39,-73.77,0.6879000000000001,-0.4641,-0.3173,-0.45890000000000003,0.062,-0.074,0.01
2025-11-06 18:34:09.409,55.275,-0.106,-0.076,-0.229,-0.066,-0.87,-0.384,25.89,-21.39,-73.77,0.6878000000000001,-0.46440000000000003,-0.314,-0.461,0.078,-0.06,0.012
2025-11-06 18:34:09.409,55.28,-0.124,-0.059000000000000004,-0.228,-0.07,-0.896,-0.381,25.89,-21.39,-73.77,0.6874,-0.465,-0.31120000000000003,-0.46280000000000004,0.077,-0.033,0.007
2025-11-06 18:34:09.409,55.285,-0.14100000000000001,-0.027,-0.227,-0.081,-0.912,-0.354,26.6,-21.95,-73.57000000000001,0.6863,-0.46680000000000005,-0.3089,-0.4641,0.081,-0.016,-0.019
2025-11-06 18:34:09.409,55.29,-0.168,0.059000000000000004,-0.227,-0.082,-0.9470000000000001,-0.332,26.6,-21.95,-73.57000000000001,0.6848000000000001,-0.4693,-0.30760000000000004,-0.46490000000000004,0.076,0.017,-0.039
2025-11-06 18:34:09.410,55.295,-0.179,0.116,-0.225,-0.07200000000000001,-0.973,-0.314,26.16,-21.19,-74.42,0.683,-0.4721,-0.30710000000000004,-0.46490000000000004,0.061,0.042,-0.053
2025-11-06 18:34:09.410,55.3,-0.194,0.168,-0.216,-0.067,-0.984,-0.3,26.16,-21.19,-74.42,0.6813,-0.47490000000000004,-0.30720000000000003,-0.4646,0.052000000000000005,0.051000000000000004,-0.061
2025-11-06 18:34:09.411,55.305,-0.203,0.195,-0.217,-0.056,-0.984,-0.29,26.16,-21.19,-74.42,0.6796,-0.4776,-0.30770000000000003,-0.46390000000000003,0.039,0.049,-0.066
2025-11-06 18:34:09.411,55.31,-0.202,0.194,-0.216,-0.03,-0.975,-0.28700000000000003,26.740000000000002,-21.54,-73.75,0.6785,-0.4796,-0.3089,-0.4626,0.012,0.038,-0.063
2025-11-06 18:34:09.411,55.315,-0.179,0.149,-0.218,-0.008,-0.966,-0.28500000000000003,26.740000000000002,-21.54,-73.75,0.6779000000000001,-0.4811,-0.3105,-0.46090000000000003,-0.007,0.027,-0.06
2025-11-06 18:34:09.411,55.32,-0.155,0.115,-0.224,0.008,-0.9540000000000001,-0.28200000000000003,26.57,-21.25,-74.24,0.6776,-0.4823,-0.3123,-0.45880000000000004,-0.021,0.013000000000000001,-0.058
2025-11-06 18:34:09.411,55.325,-0.132,0.077,-0.231,0.034,-0.9420000000000001,-0.275,26.57,-21.25,-74.24,0.6778000000000001,-0.48310000000000003,-0.31470000000000004,-0.4561,-0.042,0.0,-0.061
2025-11-06 18:34:09.411,55.33,-0.107,0.033,-0.244,0.052000000000000005,-0.934,-0.267,26.57,-21.25,-74.24,0.6782,-0.4837,-0.3174,-0.4529,-0.054,-0.009000000000000001,-0.064
2025-11-06 18:34:09.411,55.335,-0.082,-0.021,-0.25,0.069,-0.936,-0.269,26.01,-23.56,-74.24,0.679,-0.48410000000000003,-0.32020000000000004,-0.4494,-0.065,-0.008,-0.058
2025-11-06 18:34:09.411,55.34,-0.056,-0.082,-0.253,0.069,-0.9460000000000001,-0.278,26.01,-23.56,-74.24,0.6797000000000001,-0.4843,-0.3226,-0.44630000000000003,-0.057,0.0,-0.045
2025-11-06 18:34:09.411,55.345,-0.039,-0.122,-0.257,0.055,-0.9460000000000001,-0.28300000000000003,26.57,-22.5,-73.77,0.6802,-0.4847,-0.32430000000000003,-0.4439,-0.038,-0.001,-0.037
2025-11-06 18:34:09.411,55.35,-0.022,-0.154,-0.262,0.035,-0.9390000000000001,-0.292,26.57,-22.5,-73.77,0.6805,-0.48510000000000003,-0.3252,-0.4424,-0.015,-0.008,-0.026000000000000002
2025-11-06 18:34:09.411,55.355,0.004,-0.188,-0.272,0.017,-0.93,-0.308,26.57,-22.5,-73.77,0.6808000000000001,-0.4852,-0.3252,-0.44170000000000004,0.003,-0.018000000000000002,-0.009000000000000001
2025-11-06 18:34:09.411,55.36,0.044,-0.23600000000000002,-0.28800000000000003,0.012,-0.917,-0.337,26.8,-21.42,-74.51,0.6817000000000001,-0.48460000000000003,-0.3245,-0.44160000000000005,0.008,-0.031,0.017
2025-11-06 18:34:09.411,55.365,0.054,-0.28,-0.295,0.028,-0.871,-0.342,26.8,-21.42,-74.51,0.6834,-0.4832,-0.32370000000000004,-0.44110000000000005,-0.006,-0.075,0.019
2025-11-06 18:34:09.411,55.37,0.042,-0.299,-0.28,0.053,-0.791,-0.34900000000000003,27.36,-21.98,-74.56,0.6864,-0.4802,-0.32280000000000003,-0.4403,-0.027,-0.153,0.02
2025-11-06 18:34:09.411,55.375,0.061,-0.301,-0.271,0.044,-0.812,-0.34400000000000003,27.36,-21.98,-74.56,0.6886,-0.4782,-0.322,-0.43960000000000005,-0.016,-0.131,0.009000000000000001
2025-11-06 18:34:09.411,55.38,0.08700000000000001,-0.303,-0.274,0.061,-0.8210000000000001,-0.356,26.86,-22.01,-73.95,0.6911,-0.4758,-0.3215,-0.43860000000000005,-0.029,-0.12,0.016
2025-11-06 18:34:09.412,55.385,0.083,-0.28300000000000003,-0.28400000000000003,0.08,-0.8270000000000001,-0.367,26.86,-22.01,-73.95,0.6939000000000001,-0.4731,-0.3215,-0.43710000000000004,-0.042,-0.111,0.021
2025-11-06 18:34:09.412,55.39,0.08600000000000001,-0.262,-0.291,0.09,-0.84,-0.371,26.86,-22.01,-73.95,0.6966,-0.47040000000000004,-0.32180000000000003,-0.43560000000000004,-0.046,-0.097,0.021
2025-11-06 18:34:09.412,55.395,0.095,-0.25,-0.294,0.10400000000000001,-0.869,-0.379,28.03,-21.51,-74.24,0.6990000000000001,-0.46790000000000004,-0.3225,-0.4338,-0.054,-0.065,0.024
2025-11-06 18:34:09.412,55.4,0.095,-0.25,-0.295,0.11900000000000001,-0.892,-0.391,28.03,-21.51,-74.24,0.7015,-0.46530000000000005,-0.3235,-0.4319,-0.062,-0.041,0.033
2025-11-06 18:34:09.412,55.405,0.076,-0.248,-0.281,0.121,-0.903,-0.392,27.330000000000002,-20.92,-74.8,0.7037,-0.463,-0.3244,-0.43010000000000004,-0.057,-0.029,0.031
2025-11-06 18:34:09.412,55.41,0.061,-0.252,-0.271,0.098,-0.917,-0.387,27.330000000000002,-20.92,-74.8,0.7052,-0.4617,-0.3246,-0.4288,-0.03,-0.013000000000000001,0.024
2025-11-06 18:34:09.412,55.415,0.048,-0.258,-0.273,0.084,-0.921,-0.391,27.330000000000002,-20.92,-74.8,0.7066,-0.46080000000000004,-0.3242,-0.4279,-0.013000000000000001,-0.009000000000000001,0.025
2025-11-06 18:34:09.412,55.42,0.031,-0.261,-0.276,0.066,-0.927,-0.393,27.18,-20.81,-74.68,0.7076,-0.46030000000000004,-0.32330000000000003,-0.4274,0.005,-0.002,0.026000000000000002
2025-11-06 18:34:09.412,55.425,0.006,-0.262,-0.278,0.053,-0.9410000000000001,-0.393,27.18,-20.81,-74.68,0.7084,-0.46030000000000004,-0.3221,-0.42700000000000005,0.017,0.012,0.023
2025-11-06 18:34:09.412,55.43,-0.016,-0.258,-0.28,0.058,-0.9490000000000001,-0.392,27.38,-22.150000000000002,-74.39,0.7091000000000001,-0.46030000000000004,-0.32120000000000004,-0.42660000000000003,0.011,0.021,0.021
2025-11-06 18:34:09.412,55.435,-0.041,-0.22,-0.281,0.047,-0.969,-0.389,27.38,-22.150000000000002,-74.39,0.7094,-0.4607,-0.32030000000000003,-0.4263,0.021,0.041,0.018000000000000002
2025-11-06 18:34:09.412,55.44,-0.052000000000000005,-0.178,-0.279,0.044,-0.978,-0.39,27.38,-22.150000000000002,-74.39,0.7096,-0.4612,-0.3194,-0.4262,0.023,0.05,0.019
2025-11-06 18:34:09.412,55.445,-0.053,-0.149,-0.28,0.034,-0.985,-0.388,27.97,-20.84,-74.51,0.7096,-0.46190000000000003,-0.3183,-0.42610000000000003,0.032,0.057,0.017
2025-11-06 18:34:09.412,55.45,-0.054,-0.135,-0.28200000000000003,0.021,-0.999,-0.387,27.97,-20.84,-74.51,0.7093,-0.463,-0.3171,-0.4263,0.042,0.07,0.015
2025-11-06 18:34:09.412,55.455,-0.059000000000000004,-0.134,-0.29,0.013000000000000001,-1.004,-0.38,28.17,-22.06,-74.33,0.7089000000000001,-0.46440000000000003,-0.3159,-0.4264,0.047,0.075,0.009000000000000001
2025-11-06 18:34:09.412,55.46,-0.057,-0.138,-0.294,0.008,-0.991,-0.378,28.17,-22.06,-74.33,0.7085,-0.4657,-0.3146,-0.42660000000000003,0.048,0.062,0.009000000000000001
2025-11-06 18:34:09.412,55.465,-0.043000000000000003,-0.145,-0.303,0.009000000000000001,-0.964,-0.385,27.97,-20.69,-74.39,0.7085,-0.46640000000000004,-0.31320000000000003,-0.4269,0.044,0.034,0.015
2025-11-06 18:34:09.412,55.47,-0.015,-0.166,-0.31,0.012,-0.9420000000000001,-0.394,27.97,-20.69,-74.39,0.7088,-0.4667,-0.3116,-0.4272,0.038,0.013000000000000001,0.023
2025-11-06 18:34:09.412,55.475,0.004,-0.19,-0.313,0.016,-0.921,-0.405,27.97,-20.69,-74.39,0.7096,-0.4662,-0.3099,-0.42760000000000004,0.032,-0.007,0.032
2025-11-06 18:34:09.412,55.48,0.013000000000000001,-0.222,-0.313,0.035,-0.909,-0.40700000000000003,28.14,-23.03,-74.36,0.7107,-0.46540000000000004,-0.3088,-0.42750000000000005,0.012,-0.017,0.03
2025-11-06 18:34:09.412,55.485,0.012,-0.215,-0.313,0.069,-0.9,-0.39,28.14,-23.03,-74.36,0.7119000000000001,-0.4642,-0.30910000000000004,-0.42660000000000003,-0.019,-0.025,0.012
2025-11-06 18:34:09.412,55.49,0.027,-0.20400000000000001,-0.312,0.106,-0.898,-0.375,28.61,-20.25,-74.59,0.7130000000000001,-0.46280000000000004,-0.3109,-0.4249,-0.05,-0.027,-0.003
