System_Time,Timestamp,Gyro_X,Gyro_Y,Gyro_Z,Acc_X,Acc_Y,Acc_Z,Mag_X,Mag_Y,Mag_Z,Quat_W,Quat_X,Quat_Y,Quat_Z,Linear_Acc_X,Linear_Acc_Y,Linear_Acc_Z
2025-11-06 18:37:40.246,310.165,-0.003,-0.003,0.0,-0.17,-0.9560000000000001,-0.20700000000000002,24.55,-22.68,-74.39,-0.5914,0.5459,0.3155,0.5025000000000001,0.002,-0.007,0.002
2025-11-06 18:37:40.246,310.17,-0.006,-0.005,-0.001,-0.17,-0.9570000000000001,-0.20600000000000002,24.93,-22.71,-74.15,-0.5914,0.5459,0.3153,0.5026,0.002,-0.006,0.0
2025-11-06 18:37:40.246,310.175,-0.008,-0.003,0.0,-0.169,-0.9560000000000001,-0.20600000000000002,24.93,-22.71,-74.15,-0.5915,0.5459,0.31520000000000004,0.5027,0.0,-0.007,0.0
2025-11-06 18:37:40.246,310.18,-0.01,0.0,-0.002,-0.169,-0.9550000000000001,-0.20600000000000002,24.93,-22.71,-74.15,-0.5915,0.5458000000000001,0.3151,0.5027,0.0,-0.008,0.0
2025-11-06 18:37:40.246,310.185,-0.011,0.002,-0.002,-0.168,-0.9530000000000001,-0.20400000000000001,24.75,-21.92,-73.31,-0.5915,0.5458000000000001,0.315,0.5028,0.0,-0.009000000000000001,-0.001
2025-11-06 18:37:40.246,310.19,-0.011,0.0,-0.002,-0.168,-0.9520000000000001,-0.20500000000000002,24.75,-21.92,-73.31,-0.5915,0.5457000000000001,0.315,0.5029,0.0,-0.011,0.0
2025-11-06 18:37:40.246,310.195,-0.005,-0.003,-0.002,-0.165,-0.9530000000000001,-0.20400000000000001,24.55,-21.77,-74.27,-0.5916,0.5457000000000001,0.315,0.5028,-0.003,-0.01,-0.002
2025-11-06 18:37:40.246,310.2,-0.006,-0.004,-0.002,-0.167,-0.9540000000000001,-0.20400000000000001,24.55,-21.77,-74.27,-0.5916,0.5457000000000001,0.315,0.5028,-0.001,-0.009000000000000001,-0.002
2025-11-06 18:37:40.246,310.205,-0.006,-0.006,-0.002,-0.168,-0.9550000000000001,-0.201,24.55,-21.77,-74.27,-0.5915,0.5458000000000001,0.315,0.5028,0.0,-0.008,-0.004
2025-11-06 18:37:40.246,310.21,-0.008,-0.003,-0.002,-0.168,-0.9540000000000001,-0.199,24.490000000000002,-21.98,-74.53,-0.5914,0.546,0.315,0.5027,0.0,-0.008,-0.006
2025-11-06 18:37:40.246,310.215,-0.008,0.0,0.0,-0.17,-0.9550000000000001,-0.2,24.490000000000002,-21.98,-74.53,-0.5913,0.5461,0.315,0.5027,0.001,-0.008,-0.004
2025-11-06 18:37:40.246,310.22,-0.009000000000000001,0.002,-0.002,-0.17200000000000001,-0.9560000000000001,-0.199,24.37,-23.18,-75.03,-0.5911000000000001,0.5463,0.3149,0.5027,0.002,-0.007,-0.005
2025-11-06 18:37:40.246,310.225,-0.009000000000000001,0.0,-0.003,-0.17300000000000001,-0.9550000000000001,-0.198,24.37,-23.18,-75.03,-0.5910000000000001,0.5465,0.3149,0.5027,0.003,-0.008,-0.006
2025-11-06 18:37:40.246,310.23,-0.011,-0.002,-0.002,-0.17500000000000002,-0.9540000000000001,-0.201,24.37,-23.18,-75.03,-0.5908,0.5467000000000001,0.31470000000000004,0.5029,0.004,-0.009000000000000001,-0.003
2025-11-06 18:37:40.246,310.235,-0.012,-0.007,-0.002,-0.17500000000000002,-0.9540000000000001,-0.20400000000000001,24.490000000000002,-23.53,-74.45,-0.5908,0.5467000000000001,0.3144,0.503,0.004,-0.009000000000000001,0.0
2025-11-06 18:37:40.246,310.24,-0.011,-0.01,-0.003,-0.17500000000000002,-0.9540000000000001,-0.201,24.490000000000002,-23.53,-74.45,-0.5907,0.5469,0.3143,0.5031,0.003,-0.009000000000000001,-0.003
2025-11-06 18:37:40.246,310.245,-0.013000000000000001,-0.007,-0.004,-0.176,-0.9510000000000001,-0.201,24.23,-22.09,-74.18,-0.5905,0.547,0.314,0.5032,0.004,-0.012,-0.003
2025-11-06 18:37:40.246,310.25,-0.009000000000000001,-0.004,-0.004,-0.176,-0.9530000000000001,-0.199,24.23,-22.09,-74.18,-0.5904,0.5472,0.3139,0.5033,0.003,-0.01,-0.004
2025-11-06 18:37:40.246,310.255,-0.009000000000000001,-0.002,-0.005,-0.176,-0.9550000000000001,-0.199,24.26,-22.04,-74.59,-0.5903,0.5473,0.3138,0.5033,0.003,-0.008,-0.004
2025-11-06 18:37:40.246,310.26,-0.009000000000000001,-0.001,-0.004,-0.176,-0.9570000000000001,-0.199,24.26,-22.04,-74.59,-0.5901000000000001,0.5475,0.31370000000000003,0.5034000000000001,0.003,-0.006,-0.004
2025-11-06 18:37:40.246,310.265,-0.008,-0.003,-0.002,-0.17400000000000002,-0.9580000000000001,-0.202,24.26,-22.04,-74.59,-0.5901000000000001,0.5475,0.31370000000000003,0.5034000000000001,0.0,-0.004,-0.001
2025-11-06 18:37:40.246,310.27,-0.017,0.0,-0.002,-0.17300000000000001,-0.961,-0.201,24.29,-23.35,-74.59,-0.5901000000000001,0.5476,0.31370000000000003,0.5033,0.0,-0.001,-0.002
2025-11-06 18:37:40.246,310.275,-0.018000000000000002,0.002,-0.001,-0.17200000000000001,-0.96,-0.202,24.29,-23.35,-74.59,-0.5901000000000001,0.5476,0.31370000000000003,0.5033,-0.001,-0.002,-0.001
2025-11-06 18:37:40.246,310.28,-0.017,0.002,-0.002,-0.17400000000000002,-0.96,-0.198,24.75,-24.64,-73.92,-0.5900000000000001,0.5477000000000001,0.31370000000000003,0.5032,0.0,-0.003,-0.005
2025-11-06 18:37:40.246,310.285,-0.013000000000000001,0.007,-0.002,-0.17400000000000002,-0.9570000000000001,-0.197,24.75,-24.64,-73.92,-0.5899,0.5478000000000001,0.3138,0.5032,0.0,-0.005,-0.005
2025-11-06 18:37:40.246,310.29,-0.009000000000000001,0.017,-0.002,-0.176,-0.9570000000000001,-0.198,24.75,-24.64,-73.92,-0.5898,0.548,0.31370000000000003,0.5032,0.001,-0.006,-0.004
2025-11-06 18:37:40.246,310.295,-0.009000000000000001,0.019,0.0,-0.176,-0.9570000000000001,-0.2,24.46,-22.740000000000002,-74.68,-0.5897,0.548,0.31370000000000003,0.5033,0.001,-0.006,-0.002
2025-11-06 18:37:40.246,310.3,-0.006,0.024,0.0,-0.177,-0.9570000000000001,-0.201,24.46,-22.740000000000002,-74.68,-0.5896,0.548,0.3136,0.5034000000000001,0.002,-0.006,-0.001
2025-11-06 18:37:40.247,310.305,-0.008,0.022,-0.001,-0.178,-0.9560000000000001,-0.2,24.990000000000002,-22.27,-74.48,-0.5895,0.5481,0.3135,0.5035000000000001,0.003,-0.006,-0.002
2025-11-06 18:37:40.247,310.31,-0.006,0.027,-0.002,-0.178,-0.9530000000000001,-0.2,24.990000000000002,-22.27,-74.48,-0.5894,0.5481,0.3134,0.5037,0.002,-0.01,-0.002
2025-11-06 18:37:40.247,310.315,-0.002,0.025,-0.004,-0.179,-0.9520000000000001,-0.2,24.990000000000002,-22.27,-74.48,-0.5893,0.5482,0.3133,0.5038,0.003,-0.011,-0.002
2025-11-06 18:37:40.247,310.32,-0.001,0.024,-0.004,-0.179,-0.9490000000000001,-0.2,24.46,-21.98,-74.65,-0.5892000000000001,0.5482,0.31320000000000003,0.504,0.003,-0.013000000000000001,-0.002
2025-11-06 18:37:40.247,310.325,0.0,0.02,-0.003,-0.178,-0.9490000000000001,-0.202,24.46,-21.98,-74.65,-0.5891000000000001,0.5482,0.313,0.5042,0.001,-0.013000000000000001,0.0
2025-11-06 18:37:40.247,310.33,-0.001,0.019,-0.001,-0.18,-0.9510000000000001,-0.202,24.43,-22.04,-74.59,-0.5890000000000001,0.5482,0.3129,0.5044000000000001,0.002,-0.011,0.0
2025-11-06 18:37:40.247,310.335,0.004,0.016,-0.001,-0.178,-0.9530000000000001,-0.201,24.43,-22.04,-74.59,-0.5890000000000001,0.5483,0.3128,0.5045000000000001,0.001,-0.009000000000000001,-0.001
2025-11-06 18:37:40.247,310.34,0.003,0.011,-0.001,-0.176,-0.9530000000000001,-0.198,24.7,-22.04,-74.45,-0.5889,0.5484,0.3129,0.5044000000000001,-0.001,-0.008,-0.004
2025-11-06 18:37:40.247,310.345,0.001,0.013000000000000001,0.0,-0.17400000000000002,-0.9560000000000001,-0.197,24.7,-21.98,-74.45,-0.5888,0.5484,0.313,0.5043,-0.003,-0.006,-0.005
2025-11-06 18:37:40.247,310.35,0.0,0.015,0.002,-0.171,-0.9550000000000001,-0.196,24.7,-21.98,-74.45,-0.5888,0.5485,0.31320000000000003,0.5041,-0.005,-0.007,-0.005
2025-11-06 18:37:40.247,310.355,-0.003,0.022,0.004,-0.17,-0.9580000000000001,-0.198,25.19,-22.27,-74.33,-0.5889,0.5484,0.3135,0.504,-0.006,-0.004,-0.003
2025-11-06 18:37:40.247,310.36,0.0,0.019,0.001,-0.166,-0.9570000000000001,-0.203,25.19,-22.27,-74.33,-0.5891000000000001,0.5482,0.31370000000000003,0.5039,-0.009000000000000001,-0.006,0.001
2025-11-06 18:37:40.247,310.365,0.002,0.016,0.003,-0.164,-0.9570000000000001,-0.20500000000000002,24.37,-22.47,-74.01,-0.5893,0.5479,0.3139,0.5038,-0.01,-0.006,0.002
2025-11-06 18:37:40.247,310.37,0.004,0.016,0.003,-0.162,-0.9550000000000001,-0.20600000000000002,24.37,-22.47,-74.01,-0.5896,0.5475,0.3141,0.5037,-0.011,-0.008,0.003
2025-11-06 18:37:40.247,310.375,0.002,0.018000000000000002,0.004,-0.161,-0.9550000000000001,-0.20600000000000002,24.37,-22.47,-74.01,-0.5899,0.5472,0.3144,0.5036,-0.011,-0.008,0.002
2025-11-06 18:37:40.249,310.38,0.002,0.019,0.003,-0.162,-0.9550000000000001,-0.20600000000000002,24.14,-23.150000000000002,-75.06,-0.5901000000000001,0.5469,0.3146,0.5035000000000001,-0.009000000000000001,-0.008,0.002
2025-11-06 18:37:40.249,310.385,-0.003,0.022,0.001,-0.161,-0.9540000000000001,-0.20800000000000002,24.14,-23.150000000000002,-75.06,-0.5904,0.5465,0.3148,0.5035000000000001,-0.009000000000000001,-0.009000000000000001,0.003
2025-11-06 18:37:40.249,310.39,-0.004,0.022,-0.001,-0.161,-0.9540000000000001,-0.21,24.78,-22.71,-74.74,-0.5907,0.5461,0.3149,0.5035000000000001,-0.009000000000000001,-0.008,0.004
2025-11-06 18:37:40.249,310.395,-0.002,0.021,-0.002,-0.16,-0.9540000000000001,-0.211,24.78,-22.71,-74.74,-0.5910000000000001,0.5457000000000001,0.315,0.5035000000000001,-0.009000000000000001,-0.009000000000000001,0.005
2025-11-06 18:37:40.249,310.4,-0.001,0.021,-0.003,-0.159,-0.9570000000000001,-0.213,24.78,-22.71,-74.74,-0.5913,0.5453,0.31520000000000004,0.5034000000000001,-0.009000000000000001,-0.006,0.006
2025-11-06 18:37:40.249,310.405,-0.004,0.021,-0.002,-0.16,-0.9570000000000001,-0.214,23.990000000000002,-22.42,-74.45,-0.5916,0.5449,0.3153,0.5035000000000001,-0.008,-0.006,0.007
2025-11-06 18:37:40.250,310.41,-0.013000000000000001,0.02,-0.003,-0.16,-0.9580000000000001,-0.213,23.990000000000002,-22.42,-74.45,-0.5919,0.5445,0.3154,0.5035000000000001,-0.007,-0.005,0.005
2025-11-06 18:37:40.250,310.415,-0.017,0.018000000000000002,-0.002,-0.161,-0.9570000000000001,-0.213,24.14,-22.82,-74.36,-0.5922000000000001,0.5442,0.3154,0.5035000000000001,-0.006,-0.005,0.004
2025-11-06 18:37:40.250,310.42,-0.02,0.02,-0.005,-0.16,-0.9550000000000001,-0.209,24.14,-22.82,-74.36,-0.5923,0.544,0.3155,0.5035000000000001,-0.006,-0.008,0.0
2025-11-06 18:37:40.250,310.425,-0.019,0.02,-0.003,-0.162,-0.9560000000000001,-0.209,24.14,-22.82,-74.36,-0.5924,0.5438000000000001,0.3156,0.5035000000000001,-0.004,-0.007,0.0
2025-11-06 18:37:40.250,310.43,-0.016,0.018000000000000002,-0.003,-0.162,-0.9560000000000001,-0.20500000000000002,24.37,-22.47,-74.56,-0.5924,0.5438000000000001,0.3158,0.5034000000000001,-0.003,-0.007,-0.004
2025-11-06 18:37:40.250,310.435,-0.012,0.015,-0.004,-0.163,-0.9580000000000001,-0.20500000000000002,24.37,-22.47,-74.56,-0.5924,0.5438000000000001,0.3159,0.5034000000000001,-0.002,-0.005,-0.003
2025-11-06 18:37:40.250,310.44,-0.009000000000000001,0.007,-0.003,-0.163,-0.9580000000000001,-0.20600000000000002,23.96,-22.150000000000002,-74.48,-0.5924,0.5438000000000001,0.316,0.5033,-0.002,-0.005,-0.003
2025-11-06 18:37:40.250,310.445,-0.009000000000000001,0.002,-0.004,-0.165,-0.9560000000000001,-0.20600000000000002,23.96,-22.150000000000002,-74.48,-0.5924,0.5438000000000001,0.316,0.5033,0.0,-0.007,-0.003
2025-11-06 18:37:40.250,310.45,-0.008,-0.005,-0.004,-0.164,-0.9540000000000001,-0.20600000000000002,23.7,-22.77,-74.18,-0.5924,0.5438000000000001,0.316,0.5033,-0.001,-0.009000000000000001,-0.002
2025-11-06 18:37:40.250,310.455,-0.004,-0.013000000000000001,-0.002,-0.163,-0.9550000000000001,-0.203,23.7,-22.77,-74.18,-0.5923,0.5439,0.3161,0.5032,-0.002,-0.007,-0.005
2025-11-06 18:37:40.250,310.46,-0.009000000000000001,-0.014,0.0,-0.164,-0.9550000000000001,-0.201,23.7,-22.77,-74.18,-0.5922000000000001,0.5441,0.31620000000000004,0.5031,-0.001,-0.008,-0.006
2025-11-06 18:37:40.250,310.465,-0.011,-0.01,0.0,-0.164,-0.9570000000000001,-0.202,24.2,-22.12,-74.94,-0.5921000000000001,0.5442,0.31620000000000004,0.503,-0.001,-0.006,-0.006
2025-11-06 18:37:40.250,310.47,-0.015,-0.005,-0.003,-0.164,-0.9570000000000001,-0.202,24.2,-22.12,-74.94,-0.5920000000000001,0.5443,0.3163,0.503,0.0,-0.006,-0.005
2025-11-06 18:37:40.250,310.475,-0.017,-0.002,-0.005,-0.163,-0.9550000000000001,-0.202,24.14,-22.5,-74.13,-0.5920000000000001,0.5444,0.3163,0.5029,-0.001,-0.008,-0.004
2025-11-06 18:37:40.250,310.48,-0.013000000000000001,0.002,-0.004,-0.162,-0.9540000000000001,-0.202,24.14,-22.5,-74.13,-0.5920000000000001,0.5444,0.3164,0.5029,-0.002,-0.009000000000000001,-0.004
2025-11-06 18:37:40.250,310.485,-0.011,0.006,-0.004,-0.162,-0.9530000000000001,-0.20400000000000001,24.14,-22.5,-74.13,-0.5920000000000001,0.5444,0.3165,0.5028,-0.002,-0.01,-0.002
2025-11-06 18:37:40.250,310.49,-0.007,0.007,-0.006,-0.161,-0.9530000000000001,-0.20700000000000002,24.2,-22.18,-75.15,-0.5921000000000001,0.5443,0.3165,0.5028,-0.003,-0.01,0.0
2025-11-06 18:37:40.250,310.495,-0.008,0.006,-0.003,-0.163,-0.9560000000000001,-0.211,24.2,-22.18,-75.15,-0.5922000000000001,0.5441,0.3164,0.5029,-0.002,-0.008,0.003
2025-11-06 18:37:40.250,310.5,-0.014,0.008,-0.002,-0.163,-0.9550000000000001,-0.211,24.93,-22.150000000000002,-74.65,-0.5924,0.5439,0.3163,0.503,-0.001,-0.008,0.002
2025-11-06 18:37:40.250,310.505,-0.014,0.005,-0.001,-0.162,-0.9530000000000001,-0.211,24.93,-22.150000000000002,-74.65,-0.5925,0.5437000000000001,0.3163,0.5031,-0.002,-0.01,0.002
2025-11-06 18:37:40.250,310.51,-0.014,0.005,-0.001,-0.161,-0.9540000000000001,-0.213,24.93,-22.150000000000002,-74.65,-0.5927,0.5435,0.31620000000000004,0.5032,-0.003,-0.009000000000000001,0.004
2025-11-06 18:37:40.250,310.515,-0.013000000000000001,0.005,0.0,-0.16,-0.9510000000000001,-0.212,24.580000000000002,-22.740000000000002,-74.8,-0.5929,0.5432,0.3161,0.5032,-0.004,-0.012,0.002
2025-11-06 18:37:40.250,310.52,-0.011,0.0,-0.001,-0.162,-0.9510000000000001,-0.212,24.580000000000002,-22.740000000000002,-74.8,-0.5930000000000001,0.5431,0.316,0.5033,-0.002,-0.012,0.002
2025-11-06 18:37:40.250,310.525,-0.004,0.0,0.0,-0.161,-0.9530000000000001,-0.211,24.46,-22.77,-74.42,-0.5931000000000001,0.543,0.316,0.5033,-0.003,-0.009000000000000001,0.0
2025-11-06 18:37:40.250,310.53,-0.001,-0.004,-0.002,-0.159,-0.9550000000000001,-0.21,24.46,-22.77,-74.42,-0.5932000000000001,0.5429,0.3161,0.5033,-0.005,-0.008,0.0
2025-11-06 18:37:40.250,310.535,-0.001,-0.002,0.0,-0.159,-0.9560000000000001,-0.209,24.46,-22.47,-74.36,-0.5933,0.5428000000000001,0.31620000000000004,0.5032,-0.004,-0.007,-0.001
2025-11-06 18:37:40.250,310.54,-0.003,-0.005,0.001,-0.159,-0.9550000000000001,-0.20800000000000002,24.46,-22.47,-74.36,-0.5933,0.5428000000000001,0.3163,0.5031,-0.004,-0.007,-0.002
2025-11-06 18:37:40.250,310.545,-0.004,-0.005,-0.001,-0.159,-0.9560000000000001,-0.20700000000000002,24.46,-22.47,-74.36,-0.5934,0.5428000000000001,0.3164,0.503,-0.004,-0.007,-0.003
2025-11-06 18:37:40.250,310.55,-0.006,-0.006,0.0,-0.159,-0.9530000000000001,-0.20600000000000002,24.34,-22.36,-74.56,-0.5933,0.5428000000000001,0.3165,0.503,-0.003,-0.01,-0.004
2025-11-06 18:37:40.250,310.555,-0.005,-0.003,-0.001,-0.16,-0.9540000000000001,-0.20600000000000002,24.34,-22.36,-74.56,-0.5933,0.5428000000000001,0.3165,0.5029,-0.002,-0.009000000000000001,-0.004
2025-11-06 18:37:40.250,310.56,-0.008,-0.002,-0.001,-0.161,-0.9530000000000001,-0.20400000000000001,24.52,-22.68,-74.04,-0.5932000000000001,0.5429,0.3166,0.5028,-0.001,-0.01,-0.006
2025-11-06 18:37:40.250,310.565,-0.005,-0.007,0.0,-0.164,-0.9550000000000001,-0.20800000000000002,24.52,-22.68,-74.04,-0.5932000000000001,0.543,0.3165,0.5029,0.001,-0.008,-0.002
2025-11-06 18:37:40.250,310.57,-0.005,-0.011,0.0,-0.164,-0.9560000000000001,-0.20800000000000002,24.52,-22.68,-74.04,-0.5932000000000001,0.543,0.3164,0.5029,0.0,-0.007,-0.001
2025-11-06 18:37:40.251,310.575,-0.011,-0.013000000000000001,0.001,-0.165,-0.9570000000000001,-0.20600000000000002,24.52,-22.740000000000002,-74.13,-0.5931000000000001,0.5432,0.3163,0.5029,0.001,-0.006,-0.003
2025-11-06 18:37:40.251,310.58,-0.011,-0.012,0.001,-0.166,-0.9570000000000001,-0.20700000000000002,24.52,-22.740000000000002,-74.13,-0.5930000000000001,0.5433,0.31620000000000004,0.503,0.001,-0.006,-0.002
2025-11-06 18:37:40.251,310.585,-0.011,-0.011,0.003,-0.165,-0.9550000000000001,-0.20700000000000002,24.34,-22.39,-75.06,-0.5930000000000001,0.5433,0.3161,0.503,0.001,-0.008,-0.002
2025-11-06 18:37:40.251,310.59,-0.012,-0.009000000000000001,0.0,-0.166,-0.9540000000000001,-0.209,24.34,-22.39,-75.06,-0.5930000000000001,0.5433,0.316,0.5031,0.001,-0.008,0.0
2025-11-06 18:37:40.251,310.595,-0.012,-0.009000000000000001,0.001,-0.166,-0.9550000000000001,-0.209,24.34,-22.39,-75.06,-0.5930000000000001,0.5434,0.3158,0.5032,0.001,-0.007,0.0
2025-11-06 18:37:40.251,310.6,-0.017,-0.012,0.001,-0.166,-0.9550000000000001,-0.209,24.72,-22.56,-73.89,-0.5930000000000001,0.5434,0.31570000000000004,0.5032,0.0,-0.008,-0.001
2025-11-06 18:37:40.251,310.605,-0.02,-0.011,0.0,-0.168,-0.9550000000000001,-0.209,24.72,-22.56,-73.89,-0.5930000000000001,0.5434,0.3155,0.5033,0.002,-0.008,-0.001
2025-11-06 18:37:40.251,310.61,-0.019,-0.007,-0.001,-0.168,-0.9540000000000001,-0.20700000000000002,24.080000000000002,-21.98,-73.95,-0.5929,0.5435,0.3154,0.5034000000000001,0.002,-0.008,-0.002
2025-11-06 18:37:40.251,310.615,-0.017,-0.002,-0.001,-0.169,-0.9530000000000001,-0.209,24.080000000000002,-21.98,-73.95,-0.5929,0.5435,0.31520000000000004,0.5035000000000001,0.002,-0.009000000000000001,0.0
2025-11-06 18:37:40.251,310.62,-0.015,-0.002,-0.001,-0.169,-0.9520000000000001,-0.209,24.580000000000002,-23.35,-74.27,-0.5928,0.5436,0.315,0.5037,0.003,-0.01,-0.001
2025-11-06 18:37:40.251,310.625,-0.014,-0.004,-0.003,-0.17,-0.9510000000000001,-0.21,24.580000000000002,-23.35,-74.27,-0.5928,0.5436,0.3148,0.5038,0.003,-0.012,0.0
2025-11-06 18:37:40.251,310.63,-0.015,-0.004,-0.002,-0.171,-0.9500000000000001,-0.211,24.580000000000002,-23.35,-74.27,-0.5927,0.5436,0.3146,0.504,0.003,-0.012,0.0
2025-11-06 18:37:40.251,310.635,-0.009000000000000001,-0.002,-0.004,-0.171,-0.9520000000000001,-0.209,24.2,-22.01,-74.86,-0.5927,0.5437000000000001,0.3144,0.5041,0.003,-0.01,-0.002
2025-11-06 18:37:40.251,310.64,-0.009000000000000001,-0.005,0.0,-0.171,-0.9530000000000001,-0.211,24.2,-22.01,-74.86,-0.5926,0.5437000000000001,0.31420000000000003,0.5042,0.003,-0.008,0.0
2025-11-06 18:37:40.251,310.645,-0.008,-0.006,-0.001,-0.17,-0.9540000000000001,-0.21,25.34,-23.150000000000002,-74.97,-0.5926,0.5438000000000001,0.3141,0.5043,0.001,-0.007,-0.001
2025-11-06 18:37:40.251,310.65,-0.007,-0.007,0.001,-0.169,-0.9550000000000001,-0.211,25.34,-23.150000000000002,-74.97,-0.5926,0.5437000000000001,0.314,0.5043,0.0,-0.007,0.0
2025-11-06 18:37:40.251,310.655,-0.003,-0.01,0.0,-0.168,-0.9540000000000001,-0.209,25.34,-23.150000000000002,-74.97,-0.5926,0.5438000000000001,0.314,0.5043,-0.001,-0.008,-0.002
2025-11-06 18:37:40.251,310.66,0.0,-0.01,-0.001,-0.167,-0.9520000000000001,-0.20800000000000002,23.82,-22.3,-74.53,-0.5926,0.5438000000000001,0.314,0.5043,-0.001,-0.01,-0.003
2025-11-06 18:37:40.251,310.665,0.006,-0.007,0.0,-0.168,-0.9510000000000001,-0.20600000000000002,23.82,-22.3,-74.53,-0.5926,0.5439,0.314,0.5043,-0.001,-0.011,-0.004
2025-11-06 18:37:40.251,310.67,0.003,-0.002,0.0,-0.169,-0.9540000000000001,-0.20700000000000002,24.14,-22.36,-75.24,-0.5925,0.544,0.314,0.5042,0.0,-0.008,-0.004
2025-11-06 18:37:40.251,310.675,0.001,-0.001,-0.001,-0.168,-0.9540000000000001,-0.203,24.14,-22.36,-75.24,-0.5924,0.5442,0.314,0.5041,-0.001,-0.008,-0.007
2025-11-06 18:37:40.251,310.68,0.0,0.0,0.001,-0.168,-0.9560000000000001,-0.20500000000000002,24.14,-22.36,-75.24,-0.5923,0.5443,0.3141,0.5041,-0.001,-0.006,-0.005
2025-11-06 18:37:40.251,310.685,-0.003,0.002,0.0,-0.17,-0.9550000000000001,-0.20600000000000002,23.990000000000002,-22.09,-74.71000000000001,-0.5922000000000001,0.5444,0.3141,0.5041,0.0,-0.007,-0.003
2025-11-06 18:37:40.251,310.69,-0.002,0.003,-0.001,-0.17300000000000001,-0.9550000000000001,-0.20700000000000002,23.990000000000002,-22.09,-74.71000000000001,-0.5921000000000001,0.5445,0.314,0.5041,0.003,-0.007,-0.002
2025-11-06 18:37:40.251,310.695,-0.003,0.002,0.0,-0.17400000000000002,-0.9530000000000001,-0.20800000000000002,23.5,-21.63,-74.65,-0.5920000000000001,0.5446,0.3138,0.5043,0.004,-0.009000000000000001,-0.001
2025-11-06 18:37:40.251,310.7,-0.002,0.004,0.0,-0.17500000000000002,-0.9540000000000001,-0.209,23.5,-21.63,-74.65,-0.5919,0.5447000000000001,0.3136,0.5044000000000001,0.004,-0.008,0.0
2025-11-06 18:37:40.251,310.705,-0.003,0.002,0.0,-0.176,-0.9540000000000001,-0.209,23.5,-21.63,-74.65,-0.5918,0.5448000000000001,0.3134,0.5046,0.004,-0.008,0.0
2025-11-06 18:37:40.251,310.71,-0.001,0.0,0.002,-0.177,-0.9540000000000001,-0.209,23.85,-22.06,-74.89,-0.5917,0.5449,0.31320000000000003,0.5048,0.005,-0.007,0.0
2025-11-06 18:37:40.251,310.715,0.0,0.008,0.004,-0.178,-0.9540000000000001,-0.20600000000000002,23.85,-22.06,-74.89,-0.5915,0.545,0.313,0.5049,0.005,-0.007,-0.003
2025-11-06 18:37:40.251,310.72,-0.003,0.007,0.001,-0.181,-0.9550000000000001,-0.20600000000000002,24.02,-22.09,-74.97,-0.5913,0.5453,0.3128,0.505,0.007,-0.006,-0.003
2025-11-06 18:37:40.251,310.725,-0.003,0.008,0.001,-0.178,-0.9550000000000001,-0.20600000000000002,24.02,-22.09,-74.97,-0.5911000000000001,0.5454,0.3126,0.5051,0.004,-0.006,-0.003
2025-11-06 18:37:40.251,310.73,-0.003,0.009000000000000001,0.001,-0.178,-0.9560000000000001,-0.20500000000000002,24.2,-22.62,-74.68,-0.5910000000000001,0.5456,0.3125,0.5052,0.004,-0.005,-0.004
2025-11-06 18:37:40.251,310.735,-0.004,0.016,0.001,-0.176,-0.9550000000000001,-0.203,24.2,-22.62,-74.68,-0.5908,0.5458000000000001,0.3125,0.5052,0.001,-0.007,-0.006
2025-11-06 18:37:40.251,310.74,-0.004,0.014,0.0,-0.17400000000000002,-0.9540000000000001,-0.203,24.2,-22.62,-74.68,-0.5907,0.5459,0.3126,0.5051,0.0,-0.007,-0.005
2025-11-06 18:37:40.251,310.745,-0.002,0.013000000000000001,0.001,-0.17300000000000001,-0.9540000000000001,-0.20400000000000001,24.34,-22.39,-73.75,-0.5907,0.5459,0.3126,0.5051,-0.001,-0.007,-0.004
2025-11-06 18:37:40.251,310.75,0.0,0.016,0.0,-0.17300000000000001,-0.9540000000000001,-0.20500000000000002,24.34,-22.39,-73.75,-0.5906,0.546,0.31270000000000003,0.5051,-0.001,-0.007,-0.003
2025-11-06 18:37:40.251,310.755,-0.004,0.016,0.0,-0.17400000000000002,-0.9520000000000001,-0.20600000000000002,24.17,-25.13,-74.53,-0.5906,0.546,0.3126,0.5052,0.0,-0.01,-0.001
2025-11-06 18:37:40.251,310.76,-0.009000000000000001,0.014,0.0,-0.17400000000000002,-0.9560000000000001,-0.21,24.17,-25.13,-74.53,-0.5906,0.5458000000000001,0.3126,0.5053,0.0,-0.005,0.001
2025-11-06 18:37:40.251,310.765,-0.014,0.008,-0.001,-0.17300000000000001,-0.9530000000000001,-0.212,24.17,-25.13,-74.53,-0.5908,0.5456,0.3125,0.5054000000000001,-0.002,-0.008,0.003
2025-11-06 18:37:40.251,310.77,-0.014,0.004,0.0,-0.17300000000000001,-0.9530000000000001,-0.214,24.43,-21.86,-74.62,-0.5909,0.5454,0.3124,0.5056,-0.001,-0.008,0.004
2025-11-06 18:37:40.251,310.775,-0.012,0.0,0.002,-0.17400000000000002,-0.9540000000000001,-0.213,24.43,-21.86,-74.62,-0.5910000000000001,0.5453,0.3123,0.5057,0.0,-0.007,0.003
2025-11-06 18:37:40.251,310.78,-0.012,0.0,0.001,-0.17,-0.9520000000000001,-0.213,25.13,-21.92,-74.45,-0.5911000000000001,0.545,0.3123,0.5057,-0.004,-0.008,0.002
2025-11-06 18:37:40.251,310.785,-0.015,0.0,0.001,-0.169,-0.9520000000000001,-0.214,25.13,-21.92,-74.45,-0.5913,0.5448000000000001,0.3123,0.5058,-0.005,-0.008,0.002
2025-11-06 18:37:40.251,310.79,-0.017,0.002,0.002,-0.169,-0.9540000000000001,-0.211,25.13,-21.92,-74.45,-0.5914,0.5447000000000001,0.3124,0.5057,-0.005,-0.007,0.0
2025-11-06 18:37:40.251,310.795,-0.015,0.002,0.0,-0.166,-0.9540000000000001,-0.21,24.080000000000002,-22.01,-74.77,-0.5916,0.5445,0.3126,0.5056,-0.007,-0.006,-0.001
2025-11-06 18:37:40.251,310.8,-0.015,0.0,0.0,-0.164,-0.9540000000000001,-0.21,24.080000000000002,-22.01,-74.77,-0.5917,0.5443,0.3128,0.5055000000000001,-0.008,-0.007,-0.001
2025-11-06 18:37:40.251,310.805,-0.012,0.0,0.0,-0.164,-0.9520000000000001,-0.209,24.55,-21.98,-74.86,-0.5918,0.5442,0.313,0.5054000000000001,-0.008,-0.008,-0.002
2025-11-06 18:37:40.251,310.81,-0.011,0.001,0.0,-0.163,-0.9540000000000001,-0.209,24.55,-21.98,-74.86,-0.5920000000000001,0.5441,0.31320000000000003,0.5052,-0.008,-0.007,-0.002
2025-11-06 18:37:40.251,310.815,-0.007,0.004,0.0,-0.161,-0.9550000000000001,-0.20800000000000002,24.84,-21.86,-74.86,-0.5921000000000001,0.544,0.3135,0.505,-0.009000000000000001,-0.006,-0.003
2025-11-06 18:37:40.251,310.82,-0.004,0.006,-0.001,-0.162,-0.9540000000000001,-0.20800000000000002,24.84,-21.86,-74.86,-0.5922000000000001,0.5439,0.31370000000000003,0.5048,-0.008,-0.007,-0.002
2025-11-06 18:37:40.251,310.825,-0.003,0.009000000000000001,-0.002,-0.162,-0.9550000000000001,-0.20800000000000002,24.84,-21.86,-74.86,-0.5923,0.5438000000000001,0.314,0.5047,-0.007,-0.007,-0.003
2025-11-06 18:37:40.251,310.83,0.0,0.007,-0.002,-0.162,-0.9550000000000001,-0.209,24.29,-22.01,-74.71000000000001,-0.5924,0.5437000000000001,0.31420000000000003,0.5046,-0.006,-0.006,-0.002
2025-11-06 18:37:40.251,310.835,-0.003,0.012,-0.001,-0.162,-0.9550000000000001,-0.209,24.29,-22.01,-74.71000000000001,-0.5925,0.5436,0.3143,0.5045000000000001,-0.006,-0.006,-0.001
2025-11-06 18:37:40.258,310.84,0.0,0.012,-0.001,-0.163,-0.9550000000000001,-0.21,24.490000000000002,-21.6,-74.91,-0.5925,0.5435,0.3145,0.5044000000000001,-0.005,-0.007,-0.001
2025-11-06 18:37:40.258,310.845,-0.003,0.014,-0.001,-0.163,-0.9550000000000001,-0.212,24.490000000000002,-21.6,-74.91,-0.5927,0.5433,0.3146,0.5044000000000001,-0.004,-0.007,0.0
2025-11-06 18:37:40.258,310.85,-0.003,0.014,0.0,-0.163,-0.9540000000000001,-0.211,24.490000000000002,-21.6,-74.91,-0.5927,0.5432,0.3146,0.5044000000000001,-0.004,-0.008,0.0
2025-11-06 18:37:40.258,310.855,-0.005,0.013000000000000001,-0.001,-0.164,-0.9550000000000001,-0.213,24.11,-22.06,-74.74,-0.5928,0.5431,0.31470000000000004,0.5044000000000001,-0.003,-0.006,0.001
2025-11-06 18:37:40.258,310.86,-0.008,0.007,-0.001,-0.165,-0.9550000000000001,-0.212,24.11,-22.06,-74.74,-0.5929,0.543,0.3146,0.5044000000000001,-0.002,-0.007,0.0
2025-11-06 18:37:40.258,310.865,-0.011,0.002,0.0,-0.164,-0.9540000000000001,-0.215,24.29,-21.95,-74.21000000000001,-0.5930000000000001,0.5428000000000001,0.3146,0.5045000000000001,-0.003,-0.008,0.002
2025-11-06 18:37:40.258,310.87,-0.016,0.001,-0.001,-0.163,-0.9530000000000001,-0.214,24.29,-21.95,-74.21000000000001,-0.5932000000000001,0.5426,0.3146,0.5045000000000001,-0.003,-0.008,0.001
2025-11-06 18:37:40.258,310.875,-0.015,0.0,-0.002,-0.164,-0.9530000000000001,-0.215,24.29,-21.95,-74.21000000000001,-0.5933,0.5425,0.3145,0.5045000000000001,-0.002,-0.009000000000000001,0.001
2025-11-06 18:37:40.258,310.88,-0.015,-0.008,-0.002,-0.163,-0.9520000000000001,-0.212,24.32,-24.05,-74.42,-0.5934,0.5424,0.3146,0.5045000000000001,-0.003,-0.009000000000000001,-0.001
2025-11-06 18:37:40.258,310.885,-0.016,-0.011,-0.001,-0.163,-0.9520000000000001,-0.212,24.32,-24.05,-74.42,-0.5935,0.5424,0.3145,0.5045000000000001,-0.003,-0.009000000000000001,-0.001
2025-11-06 18:37:40.258,310.89,-0.014,-0.01,-0.001,-0.165,-0.9530000000000001,-0.209,24.96,-22.68,-75.06,-0.5935,0.5424,0.3146,0.5044000000000001,-0.001,-0.008,-0.004
2025-11-06 18:37:40.258,310.895,-0.014,-0.008,0.0,-0.165,-0.9550000000000001,-0.20800000000000002,24.96,-22.68,-75.06,-0.5934,0.5425,0.3146,0.5044000000000001,-0.001,-0.006,-0.004
2025-11-06 18:37:40.258,310.9,-0.012,-0.014,-0.001,-0.167,-0.9550000000000001,-0.211,23.85,-22.09,-74.83,-0.5934,0.5426,0.3145,0.5044000000000001,0.0,-0.007,-0.002
2025-11-06 18:37:40.258,310.905,-0.012,-0.015,-0.001,-0.165,-0.9560000000000001,-0.21,23.85,-22.09,-74.83,-0.5934,0.5426,0.3145,0.5044000000000001,-0.001,-0.005,-0.003
2025-11-06 18:37:40.258,310.91,-0.013000000000000001,-0.013000000000000001,-0.002,-0.165,-0.9550000000000001,-0.212,23.85,-22.09,-74.83,-0.5934,0.5426,0.3145,0.5043,-0.001,-0.006,-0.001
2025-11-06 18:37:40.258,310.915,-0.012,-0.013000000000000001,-0.001,-0.165,-0.9540000000000001,-0.211,24.43,-26.07,-75.53,-0.5934,0.5426,0.3145,0.5043,-0.001,-0.007,-0.002
2025-11-06 18:37:40.258,310.92,-0.01,-0.01,-0.001,-0.165,-0.9540000000000001,-0.21,24.43,-26.07,-75.53,-0.5934,0.5427000000000001,0.3145,0.5043,-0.001,-0.008,-0.003
2025-11-06 18:37:40.258,310.925,-0.007,-0.01,-0.002,-0.167,-0.9510000000000001,-0.21,25.25,-21.92,-75.18,-0.5934,0.5427000000000001,0.3144,0.5043,0.0,-0.01,-0.002
2025-11-06 18:37:40.258,310.93,-0.005,-0.006,-0.004,-0.165,-0.9490000000000001,-0.214,25.25,-21.92,-75.18,-0.5935,0.5426,0.3143,0.5044000000000001,-0.001,-0.012,0.0
2025-11-06 18:37:40.258,310.935,-0.002,-0.005,-0.002,-0.164,-0.9480000000000001,-0.216,25.25,-21.92,-75.18,-0.5936,0.5425,0.31420000000000003,0.5045000000000001,-0.002,-0.013000000000000001,0.002
2025-11-06 18:37:40.258,310.94,0.001,-0.008,0.0,-0.165,-0.9500000000000001,-0.216,23.94,-22.59,-75.24,-0.5937,0.5424,0.3141,0.5045000000000001,-0.002,-0.011,0.001
2025-11-06 18:37:40.258,310.945,0.002,-0.009000000000000001,0.0,-0.165,-0.9520000000000001,-0.218,23.94,-22.59,-75.24,-0.5938,0.5422,0.314,0.5046,-0.001,-0.009000000000000001,0.002
2025-11-06 18:37:40.258,310.95,0.002,-0.011,0.002,-0.164,-0.9530000000000001,-0.216,23.79,-21.63,-75.09,-0.5939,0.5421,0.3139,0.5046,-0.003,-0.008,0.001
2025-11-06 18:37:40.258,310.955,0.001,-0.008,0.001,-0.164,-0.9540000000000001,-0.215,23.79,-21.63,-75.09,-0.5940000000000001,0.542,0.3139,0.5046,-0.002,-0.007,0.0
2025-11-06 18:37:40.258,310.96,0.002,-0.007,0.0,-0.161,-0.9540000000000001,-0.216,23.79,-21.63,-75.09,-0.5941000000000001,0.5419,0.314,0.5046,-0.004,-0.008,0.0
2025-11-06 18:37:40.258,310.965,0.002,-0.006,0.0,-0.16,-0.9540000000000001,-0.212,23.94,-21.92,-75.59,-0.5941000000000001,0.5419,0.31420000000000003,0.5044000000000001,-0.006,-0.007,-0.003
2025-11-06 18:37:40.258,310.97,0.001,-0.001,0.001,-0.16,-0.9550000000000001,-0.211,23.94,-21.92,-75.59,-0.5941000000000001,0.5419,0.3143,0.5043,-0.005,-0.006,-0.004
2025-11-06 18:37:40.258,310.975,0.0,-0.002,0.0,-0.161,-0.9540000000000001,-0.21,24.32,-21.86,-75.29,-0.5941000000000001,0.5419,0.3145,0.5042,-0.003,-0.008,-0.004
2025-11-06 18:37:40.259,310.98,0.0,-0.002,0.002,-0.16,-0.9530000000000001,-0.209,24.32,-21.86,-75.29,-0.5941000000000001,0.542,0.3146,0.5041,-0.004,-0.008,-0.005
2025-11-06 18:37:40.259,310.985,0.0,-0.002,0.001,-0.162,-0.9530000000000001,-0.213,23.76,-22.12,-75.06,-0.5941000000000001,0.5419,0.31470000000000004,0.5041,-0.003,-0.008,-0.001
2025-11-06 18:37:40.259,310.99,-0.003,-0.005,0.003,-0.162,-0.9550000000000001,-0.214,23.76,-22.12,-75.06,-0.5942000000000001,0.5419,0.31470000000000004,0.5041,-0.002,-0.007,0.0
2025-11-06 18:37:40.259,310.995,0.0,-0.008,0.001,-0.162,-0.9530000000000001,-0.215,23.76,-22.12,-75.06,-0.5943,0.5418000000000001,0.3146,0.5041,-0.002,-0.008,0.0
2025-11-06 18:37:40.259,311.0,0.0,-0.011,0.001,-0.163,-0.9540000000000001,-0.217,24.37,-22.150000000000002,-75.32000000000001,-0.5944,0.5417000000000001,0.3145,0.5041,-0.001,-0.007,0.002
2025-11-06 18:37:40.259,311.005,-0.001,-0.016,0.001,-0.164,-0.9530000000000001,-0.217,24.37,-22.150000000000002,-75.32000000000001,-0.5945,0.5416000000000001,0.3144,0.5042,0.0,-0.009000000000000001,0.001
2025-11-06 18:37:40.259,311.01,0.001,-0.014,0.0,-0.165,-0.9520000000000001,-0.217,24.32,-22.85,-75.03,-0.5945,0.5416000000000001,0.31420000000000003,0.5043,0.0,-0.009000000000000001,0.001
2025-11-06 18:37:40.259,311.015,-0.001,-0.016,0.0,-0.165,-0.9520000000000001,-0.217,24.32,-22.85,-75.03,-0.5946,0.5415,0.3141,0.5043,0.0,-0.009000000000000001,0.001
2025-11-06 18:37:40.259,311.02,-0.004,-0.015,0.0,-0.164,-0.9520000000000001,-0.215,24.32,-22.85,-75.03,-0.5946,0.5415,0.314,0.5044000000000001,0.0,-0.009000000000000001,-0.001
2025-11-06 18:37:40.259,311.025,-0.005,-0.013000000000000001,0.001,-0.165,-0.9520000000000001,-0.213,24.14,-22.06,-74.83,-0.5946,0.5416000000000001,0.314,0.5043,0.0,-0.009000000000000001,-0.002
2025-11-06 18:37:40.259,311.03,-0.004,-0.013000000000000001,0.0,-0.165,-0.9530000000000001,-0.215,24.14,-22.06,-74.83,-0.5946,0.5416000000000001,0.3139,0.5044000000000001,0.0,-0.009000000000000001,-0.001
2025-11-06 18:37:40.259,311.035,-0.005,-0.014,0.0,-0.165,-0.9530000000000001,-0.214,24.52,-21.45,-74.97,-0.5946,0.5416000000000001,0.3138,0.5044000000000001,0.0,-0.008,-0.002
2025-11-06 18:37:40.259,311.04,-0.006,-0.012,0.0,-0.167,-0.9540000000000001,-0.21,24.52,-21.45,-74.97,-0.5945,0.5418000000000001,0.3138,0.5043,0.001,-0.007,-0.005
2025-11-06 18:37:40.259,311.045,-0.005,-0.013000000000000001,0.0,-0.167,-0.9530000000000001,-0.20800000000000002,24.52,-21.45,-74.97,-0.5943,0.5421,0.3138,0.5043,0.0,-0.008,-0.007
2025-11-06 18:37:40.259,311.05,-0.003,-0.018000000000000002,0.001,-0.169,-0.9530000000000001,-0.20800000000000002,24.400000000000002,-21.57,-74.91,-0.5942000000000001,0.5423,0.31370000000000003,0.5043,0.002,-0.009000000000000001,-0.006
2025-11-06 18:37:40.259,311.055,-0.004,-0.014,0.001,-0.169,-0.9540000000000001,-0.20800000000000002,24.400000000000002,-21.57,-74.91,-0.5940000000000001,0.5425,0.31370000000000003,0.5042,0.002,-0.007,-0.006
2025-11-06 18:37:40.259,311.06,-0.006,-0.013000000000000001,0.001,-0.17,-0.9570000000000001,-0.20800000000000002,24.34,-24.55,-75.24,-0.5938,0.5428000000000001,0.3136,0.5042,0.003,-0.004,-0.006
2025-11-06 18:37:40.260,311.065,-0.011,-0.016,0.001,-0.171,-0.9580000000000001,-0.20800000000000002,24.34,-24.55,-75.24,-0.5936,0.543,0.3135,0.5042,0.003,-0.004,-0.006
2025-11-06 18:37:40.260,311.07,-0.014,-0.012,0.001,-0.171,-0.9550000000000001,-0.20800000000000002,24.34,-24.55,-75.24,-0.5935,0.5432,0.3134,0.5042,0.002,-0.006,-0.005
2025-11-06 18:37:40.260,311.075,-0.011,-0.008,0.002,-0.17300000000000001,-0.9530000000000001,-0.20800000000000002,24.29,-22.27,-75.32000000000001,-0.5933,0.5434,0.3133,0.5043,0.004,-0.008,-0.004
2025-11-06 18:37:40.260,311.08,-0.004,-0.005,0.004,-0.17400000000000002,-0.9520000000000001,-0.209,24.29,-22.27,-75.32000000000001,-0.5932000000000001,0.5436,0.3131,0.5044000000000001,0.005,-0.009000000000000001,-0.003
2025-11-06 18:37:40.260,311.085,0.001,-0.003,0.007,-0.176,-0.9540000000000001,-0.21,24.96,-21.57,-75.56,-0.5930000000000001,0.5438000000000001,0.3128,0.5046,0.006,-0.008,-0.002
2025-11-06 18:37:40.260,311.09,-0.003,0.002,0.011,-0.177,-0.9550000000000001,-0.20700000000000002,24.96,-21.57,-75.56,-0.5927,0.5441,0.31270000000000003,0.5047,0.006,-0.006,-0.005
2025-11-06 18:37:40.260,311.095,-0.011,0.006,0.012,-0.17400000000000002,-0.9510000000000001,-0.203,24.32,-22.62,-74.91,-0.5925,0.5443,0.3126,0.5047,0.003,-0.01,-0.008
2025-11-06 18:37:40.260,311.1,-0.014,0.011,0.014,-0.17400000000000002,-0.9480000000000001,-0.201,24.32,-22.62,-74.91,-0.5922000000000001,0.5447000000000001,0.3126,0.5047,0.001,-0.013000000000000001,-0.01
2025-11-06 18:37:40.260,311.105,-0.018000000000000002,0.016,0.015,-0.17400000000000002,-0.9460000000000001,-0.198,24.32,-22.62,-74.91,-0.5920000000000001,0.545,0.3126,0.5047,0.001,-0.015,-0.012
2025-11-06 18:37:40.260,311.11,-0.015,0.021,0.017,-0.17500000000000002,-0.9460000000000001,-0.198,24.580000000000002,-22.42,-75.0,-0.5917,0.5453,0.3125,0.5046,0.001,-0.015,-0.012
2025-11-06 18:37:40.260,311.115,-0.008,0.022,0.02,-0.17400000000000002,-0.9500000000000001,-0.196,24.580000000000002,-22.42,-75.0,-0.5914,0.5457000000000001,0.3126,0.5046,0.0,-0.012,-0.012
2025-11-06 18:37:40.260,311.12,-0.002,0.022,0.025,-0.176,-0.9530000000000001,-0.194,24.23,-22.42,-74.77,-0.5910000000000001,0.5461,0.31270000000000003,0.5045000000000001,0.002,-0.008,-0.013000000000000001
2025-11-06 18:37:40.260,311.125,-0.009000000000000001,0.021,0.028,-0.17500000000000002,-0.9580000000000001,-0.194,24.23,-22.42,-74.77,-0.5907,0.5465,0.3128,0.5043,0.0,-0.004,-0.013000000000000001
2025-11-06 18:37:40.260,311.13,-0.017,0.019,0.031,-0.176,-0.96,-0.192,24.23,-22.42,-74.77,-0.5904,0.547,0.3129,0.5041,0.001,-0.001,-0.014
2025-11-06 18:37:40.260,311.135,-0.025,0.015,0.032,-0.17500000000000002,-0.9590000000000001,-0.188,24.23,-22.150000000000002,-75.38,-0.5900000000000001,0.5475,0.3131,0.5039,0.0,-0.002,-0.016
2025-11-06 18:37:40.260,311.14,-0.041,0.016,0.031,-0.17400000000000002,-0.9560000000000001,-0.187,24.23,-22.150000000000002,-75.38,-0.5897,0.5479,0.31320000000000003,0.5037,0.0,-0.006,-0.016
2025-11-06 18:37:40.260,311.145,-0.038,0.016,0.031,-0.17300000000000001,-0.9540000000000001,-0.186,24.080000000000002,-22.56,-75.53,-0.5895,0.5483,0.3134,0.5034000000000001,-0.002,-0.008,-0.015
2025-11-06 18:37:40.261,311.15,-0.037,0.019,0.032,-0.171,-0.9510000000000001,-0.19,24.080000000000002,-22.56,-75.53,-0.5893,0.5486,0.3135,0.5033,-0.003,-0.012,-0.012
2025-11-06 18:37:40.261,311.155,-0.029,0.023,0.033,-0.171,-0.9520000000000001,-0.189,24.080000000000002,-22.56,-75.53,-0.5892000000000001,0.5488000000000001,0.3136,0.5031,-0.004,-0.011,-0.011
2025-11-06 18:37:40.261,311.16,-0.026000000000000002,0.027,0.033,-0.171,-0.9540000000000001,-0.186,24.17,-22.5,-74.97,-0.5890000000000001,0.5491,0.3138,0.5029,-0.004,-0.009000000000000001,-0.014
2025-11-06 18:37:40.261,311.165,-0.027,0.039,0.034,-0.168,-0.9560000000000001,-0.178,24.17,-22.5,-74.97,-0.5887,0.5496,0.31420000000000003,0.5025000000000001,-0.006,-0.007,-0.021
2025-11-06 18:37:40.261,311.17,-0.034,0.044,0.036000000000000004,-0.168,-0.9580000000000001,-0.17200000000000001,24.080000000000002,-22.39,-75.59,-0.5883,0.5502,0.31470000000000004,0.5019,-0.007,-0.005,-0.024
2025-11-06 18:37:40.261,311.175,-0.042,0.048,0.039,-0.168,-0.9590000000000001,-0.167,24.080000000000002,-22.39,-75.59,-0.5879,0.5508000000000001,0.31520000000000004,0.5014000000000001,-0.006,-0.005,-0.027
2025-11-06 18:37:40.261,311.18,-0.048,0.05,0.039,-0.168,-0.9590000000000001,-0.161,24.14,-21.95,-75.35000000000001,-0.5874,0.5516,0.3158,0.5008,-0.006,-0.006,-0.03
2025-11-06 18:37:40.261,311.185,-0.052000000000000005,0.049,0.04,-0.168,-0.962,-0.16,24.14,-21.95,-75.35000000000001,-0.5869,0.5523,0.3163,0.5002,-0.005,-0.003,-0.029
2025-11-06 18:37:40.261,311.19,-0.064,0.041,0.044,-0.169,-0.963,-0.161,24.14,-21.95,-75.35000000000001,-0.5865,0.553,0.3168,0.49970000000000003,-0.005,-0.002,-0.026000000000000002
2025-11-06 18:37:40.261,311.195,-0.07200000000000001,0.038,0.045,-0.17,-0.966,-0.163,24.17,-22.3,-75.15,-0.5861000000000001,0.5535,0.3171,0.4993,-0.003,0.0,-0.023
2025-11-06 18:37:40.261,311.2,-0.079,0.03,0.048,-0.17,-0.968,-0.164,24.17,-22.3,-75.15,-0.5858,0.554,0.3174,0.4989,-0.003,0.001,-0.02
2025-11-06 18:37:40.261,311.205,-0.089,0.033,0.05,-0.17,-0.968,-0.162,23.7,-22.85,-75.15,-0.5855,0.5545,0.31770000000000004,0.49860000000000004,-0.003,0.001,-0.02
2025-11-06 18:37:40.261,311.21,-0.10300000000000001,0.039,0.055,-0.17300000000000001,-0.97,-0.162,23.7,-22.85,-75.15,-0.5851000000000001,0.5549000000000001,0.318,0.4984,0.0,0.003,-0.02
2025-11-06 18:37:40.261,311.215,-0.112,0.046,0.053,-0.177,-0.972,-0.159,23.7,-22.85,-75.15,-0.5845,0.5555,0.31820000000000004,0.4983,0.002,0.005,-0.021
2025-11-06 18:37:40.261,311.22,-0.11800000000000001,0.045,0.053,-0.177,-0.973,-0.163,23.67,-21.92,-75.24,-0.5841000000000001,0.5558000000000001,0.3184,0.4983,0.002,0.005,-0.016
2025-11-06 18:37:40.261,311.225,-0.117,0.037,0.053,-0.17400000000000002,-0.975,-0.165,23.67,-21.92,-75.24,-0.5839,0.5561,0.3185,0.49820000000000003,0.0,0.007,-0.013000000000000001
2025-11-06 18:37:40.261,311.23,-0.124,0.024,0.053,-0.171,-0.977,-0.17200000000000001,24.11,-22.42,-74.45,-0.5840000000000001,0.5561,0.3185,0.498,-0.003,0.009000000000000001,-0.005
2025-11-06 18:37:40.261,311.235,-0.13,-0.001,0.046,-0.168,-0.974,-0.18,24.11,-22.42,-74.45,-0.5844,0.5559000000000001,0.3184,0.4979,-0.005,0.006,0.001
2025-11-06 18:37:40.261,311.24,-0.128,-0.022,0.044,-0.162,-0.973,-0.191,24.11,-22.42,-74.45,-0.5852,0.5554,0.3181,0.49770000000000003,-0.011,0.005,0.01
2025-11-06 18:37:40.261,311.245,-0.13,-0.038,0.04,-0.156,-0.972,-0.199,24.23,-22.330000000000002,-75.12,-0.5864,0.5546,0.31770000000000004,0.4974,-0.015,0.004,0.017
2025-11-06 18:37:40.261,311.25,-0.128,-0.049,0.036000000000000004,-0.151,-0.972,-0.20600000000000002,24.23,-22.330000000000002,-75.12,-0.5877,0.5537000000000001,0.3173,0.49710000000000004,-0.019,0.004,0.021
2025-11-06 18:37:40.261,311.255,-0.124,-0.046,0.029,-0.14200000000000002,-0.971,-0.215,23.47,-22.27,-75.21000000000001,-0.5894,0.5526,0.317,0.49660000000000004,-0.026000000000000002,0.004,0.027
2025-11-06 18:37:40.261,311.26,-0.112,-0.041,0.02,-0.138,-0.971,-0.214,23.47,-22.27,-75.21000000000001,-0.5910000000000001,0.5515,0.3168,0.49610000000000004,-0.027,0.004,0.023
2025-11-06 18:37:40.261,311.265,-0.107,-0.03,0.018000000000000002,-0.133,-0.97,-0.212,24.64,-23.44,-75.79,-0.5925,0.5505,0.3168,0.4954,-0.03,0.002,0.018000000000000002
2025-11-06 18:37:40.261,311.27,-0.094,-0.015,0.018000000000000002,-0.13,-0.962,-0.20500000000000002,24.64,-23.44,-75.79,-0.5937,0.5496,0.317,0.49470000000000003,-0.03,-0.004,0.01
2025-11-06 18:37:40.261,311.275,-0.083,0.014,0.014,-0.13,-0.9540000000000001,-0.195,24.64,-23.44,-75.79,-0.5945,0.549,0.3175,0.49410000000000004,-0.028,-0.012,0.0
2025-11-06 18:37:40.261,311.28,-0.062,0.053,0.009000000000000001,-0.134,-0.9410000000000001,-0.18,23.96,-22.12,-76.03,-0.5947,0.5488000000000001,0.31820000000000004,0.4937,-0.022,-0.026000000000000002,-0.014
2025-11-06 18:37:40.261,311.285,-0.052000000000000005,0.096,0.008,-0.133,-0.934,-0.17,23.96,-22.12,-76.03,-0.5945,0.5488000000000001,0.31920000000000004,0.4933,-0.021,-0.034,-0.023
2025-11-06 18:37:40.262,311.29,-0.039,0.131,0.009000000000000001,-0.137,-0.93,-0.16,24.490000000000002,-24.67,-75.91,-0.5938,0.549,0.3204,0.49310000000000004,-0.016,-0.038,-0.032
2025-11-06 18:37:40.262,311.295,-0.028,0.165,0.011,-0.14200000000000002,-0.931,-0.148,24.490000000000002,-24.67,-75.91,-0.5926,0.5495,0.32180000000000003,0.49300000000000005,-0.011,-0.038,-0.041
2025-11-06 18:37:40.262,311.3,-0.023,0.187,0.017,-0.147,-0.936,-0.136,24.490000000000002,-24.67,-75.91,-0.5910000000000001,0.5503,0.3234,0.49310000000000004,-0.006,-0.033,-0.049
2025-11-06 18:37:40.262,311.305,-0.025,0.20700000000000002,0.028,-0.158,-0.9470000000000001,-0.126,24.37,-22.42,-76.2,-0.5888,0.5513,0.3251,0.4934,0.004,-0.022,-0.055
2025-11-06 18:37:40.262,311.31,-0.031,0.209,0.034,-0.167,-0.9570000000000001,-0.11800000000000001,24.37,-22.42,-76.2,-0.5863,0.5526,0.32680000000000003,0.49400000000000005,0.012,-0.013000000000000001,-0.058
2025-11-06 18:37:40.262,311.315,-0.04,0.20700000000000002,0.043000000000000003,-0.176,-0.968,-0.113,24.32,-23.85,-76.05,-0.5836,0.5539000000000001,0.32830000000000004,0.49460000000000004,0.019,-0.003,-0.058
2025-11-06 18:37:40.262,311.32,-0.044,0.196,0.05,-0.182,-0.978,-0.111,24.32,-23.85,-76.05,-0.5809000000000001,0.5552,0.3297,0.4954,0.022,0.005,-0.056
2025-11-06 18:37:40.262,311.325,-0.055,0.181,0.055,-0.188,-0.986,-0.115,24.32,-23.85,-76.05,-0.5784,0.5564,0.33080000000000004,0.49620000000000003,0.026000000000000002,0.013000000000000001,-0.047
2025-11-06 18:37:40.262,311.33,-0.066,0.167,0.055,-0.2,-0.99,-0.11800000000000001,23.82,-21.6,-75.94,-0.5758,0.5574,0.3317,0.4975,0.035,0.017,-0.04
2025-11-06 18:37:40.262,311.335,-0.078,0.156,0.057,-0.209,-0.995,-0.123,23.82,-21.6,-75.94,-0.5732,0.5583,0.33240000000000003,0.49910000000000004,0.041,0.022,-0.032
2025-11-06 18:37:40.262,311.34,-0.089,0.154,0.055,-0.214,-0.995,-0.134,23.82,-21.95,-75.35000000000001,-0.5709000000000001,0.5588000000000001,0.3327,0.5009,0.042,0.022,-0.02
2025-11-06 18:37:40.262,311.345,-0.096,0.153,0.051000000000000004,-0.22,-0.994,-0.148,23.82,-21.95,-75.35000000000001,-0.5689000000000001,0.5589000000000001,0.33280000000000004,0.5031,0.045,0.022,-0.005
2025-11-06 18:37:40.262,311.35,-0.097,0.145,0.043000000000000003,-0.232,-0.992,-0.18,24.61,-21.95,-75.03,-0.5670000000000001,0.558,0.3325,0.5063,0.052000000000000005,0.021,0.024
2025-11-06 18:37:40.262,311.355,-0.098,0.126,0.037,-0.229,-0.991,-0.196,24.61,-22.53,-75.03,-0.5657,0.5568000000000001,0.332,0.5095000000000001,0.046,0.021,0.037
2025-11-06 18:37:40.262,311.36,-0.097,0.116,0.036000000000000004,-0.218,-0.984,-0.21,24.61,-22.53,-75.03,-0.5651,0.5551,0.33140000000000003,0.5123,0.032,0.015,0.047
2025-11-06 18:37:40.262,311.365,-0.094,0.107,0.036000000000000004,-0.216,-0.973,-0.217,23.85,-23.23,-75.09,-0.5647,0.5533,0.33080000000000004,0.5151,0.028,0.006,0.049
2025-11-06 18:37:40.262,311.37,-0.088,0.112,0.037,-0.20600000000000002,-0.963,-0.217,23.85,-23.23,-75.09,-0.5646,0.5516,0.33030000000000004,0.5175000000000001,0.015,-0.002,0.044
2025-11-06 18:37:40.262,311.375,-0.078,0.137,0.04,-0.197,-0.9550000000000001,-0.217,24.34,-22.85,-75.06,-0.5647,0.5498000000000001,0.3299,0.5194,0.005,-0.01,0.04
2025-11-06 18:37:40.262,311.38,-0.07100000000000001,0.159,0.039,-0.192,-0.9490000000000001,-0.217,24.34,-22.85,-75.06,-0.5648000000000001,0.5481,0.3297,0.5212,0.0,-0.014,0.036000000000000004
2025-11-06 18:37:40.262,311.385,-0.063,0.186,0.042,-0.188,-0.9440000000000001,-0.212,24.34,-22.85,-75.06,-0.5650000000000001,0.5466,0.3296,0.5226000000000001,-0.003,-0.019,0.028
2025-11-06 18:37:40.262,311.39,-0.05,0.209,0.047,-0.194,-0.936,-0.202,24.05,-22.09,-75.38,-0.5649000000000001,0.5457000000000001,0.3295,0.5239,0.001,-0.026000000000000002,0.015
2025-11-06 18:37:40.262,311.395,-0.042,0.242,0.055,-0.188,-0.932,-0.186,24.05,-22.09,-75.38,-0.5646,0.5452,0.3296,0.5245000000000001,-0.003,-0.029,-0.001
2025-11-06 18:37:40.264,311.4,-0.019,0.281,0.061,-0.196,-0.932,-0.165,24.17,-22.330000000000002,-75.15,-0.5640000000000001,0.5457000000000001,0.3297,0.5246000000000001,0.003,-0.03,-0.021
2025-11-06 18:37:40.264,311.405,-0.011,0.297,0.066,-0.198,-0.9380000000000001,-0.156,24.17,-22.330000000000002,-75.15,-0.5632,0.5465,0.3299,0.5245000000000001,0.004,-0.024,-0.029
2025-11-06 18:37:40.264,311.41,-0.003,0.308,0.073,-0.21,-0.9480000000000001,-0.152,24.17,-22.330000000000002,-75.15,-0.5622,0.5475,0.3299,0.5246000000000001,0.014,-0.014,-0.031
2025-11-06 18:37:40.264,311.415,-0.003,0.314,0.077,-0.212,-0.9570000000000001,-0.154,24.14,-22.8,-75.85000000000001,-0.5612,0.5484,0.33,0.5246000000000001,0.014,-0.005,-0.026000000000000002
2025-11-06 18:37:40.264,311.42,-0.007,0.313,0.085,-0.213,-0.971,-0.16,24.14,-22.8,-75.85000000000001,-0.5603,0.549,0.3301,0.5248,0.014,0.007,-0.019
2025-11-06 18:37:40.264,311.425,-0.014,0.306,0.096,-0.224,-0.982,-0.162,23.990000000000002,-22.62,-75.56,-0.5593,0.5497000000000001,0.33,0.5253,0.024,0.019,-0.015
2025-11-06 18:37:40.264,311.43,-0.019,0.303,0.10300000000000001,-0.224,-0.99,-0.161,23.990000000000002,-22.62,-75.56,-0.5583,0.5503,0.33,0.5256000000000001,0.022,0.027,-0.015
2025-11-06 18:37:40.264,311.435,-0.023,0.3,0.114,-0.223,-0.994,-0.163,23.990000000000002,-22.62,-75.56,-0.5574,0.5509000000000001,0.3301,0.526,0.019,0.031,-0.012
2025-11-06 18:37:40.264,311.44,-0.027,0.291,0.122,-0.228,-0.995,-0.163,23.79,-22.5,-75.7,-0.5565,0.5514,0.33,0.5264,0.022,0.033,-0.011
2025-11-06 18:37:40.264,311.445,-0.03,0.277,0.13,-0.226,-0.995,-0.169,23.79,-22.5,-75.7,-0.5557,0.5516,0.33,0.527,0.019,0.032,-0.004
2025-11-06 18:37:40.264,311.45,-0.03,0.269,0.132,-0.234,-0.99,-0.17300000000000001,23.96,-23.26,-74.59,-0.5548000000000001,0.5518000000000001,0.32980000000000004,0.528,0.025,0.028,0.0
2025-11-06 18:37:40.264,311.455,-0.02,0.269,0.128,-0.23500000000000001,-0.986,-0.184,23.96,-23.26,-74.59,-0.5539000000000001,0.5515,0.3296,0.5293,0.024,0.024,0.01
2025-11-06 18:37:40.264,311.46,-0.006,0.259,0.121,-0.227,-0.977,-0.191,24.26,-22.77,-74.65,-0.5533,0.5509000000000001,0.3295,0.5306000000000001,0.014,0.016,0.015
2025-11-06 18:37:40.264,311.465,0.013000000000000001,0.248,0.114,-0.224,-0.969,-0.193,24.26,-22.77,-74.65,-0.5527000000000001,0.5503,0.3295,0.5319,0.011,0.008,0.016
2025-11-06 18:37:40.267,311.47,0.039,0.251,0.11,-0.234,-0.9560000000000001,-0.193,24.26,-22.77,-74.65,-0.5519000000000001,0.5498000000000001,0.32930000000000004,0.5334,0.019,-0.003,0.014
2025-11-06 18:37:40.267,311.475,0.05,0.256,0.106,-0.234,-0.9480000000000001,-0.196,23.990000000000002,-22.44,-74.71000000000001,-0.551,0.5492,0.329,0.5351,0.016,-0.011,0.015
2025-11-06 18:37:40.267,311.48,0.068,0.272,0.10200000000000001,-0.242,-0.934,-0.195,23.990000000000002,-22.44,-74.71000000000001,-0.55,0.5487000000000001,0.3286,0.5369,0.022,-0.023,0.013000000000000001
2025-11-06 18:37:40.267,311.485,0.08700000000000001,0.294,0.097,-0.24,-0.924,-0.188,24.17,-25.13,-74.45,-0.5489,0.5485,0.32830000000000004,0.5384,0.018000000000000002,-0.032,0.005
2025-11-06 18:37:40.267,311.49,0.108,0.325,0.099,-0.23700000000000002,-0.917,-0.185,24.17,-25.13,-74.45,-0.5479,0.5483,0.3281,0.5397000000000001,0.012,-0.039,0.001
2025-11-06 18:37:40.267,311.495,0.14100000000000001,0.368,0.108,-0.257,-0.92,-0.186,24.17,-25.13,-74.45,-0.5464,0.5485,0.3276,0.5414,0.029,-0.035,0.002
2025-11-06 18:37:40.267,311.5,0.17,0.384,0.11900000000000001,-0.257,-0.93,-0.202,24.14,-22.82,-74.51,-0.545,0.5479,0.32730000000000004,0.5435,0.026000000000000002,-0.024,0.017
2025-11-06 18:37:40.267,311.505,0.195,0.385,0.134,-0.263,-0.937,-0.217,24.14,-22.82,-74.51,-0.5436,0.547,0.327,0.5461,0.029,-0.016,0.03
2025-11-06 18:37:40.267,311.51,0.225,0.367,0.156,-0.253,-0.9450000000000001,-0.23700000000000002,23.5,-22.650000000000002,-74.91,-0.5423,0.5453,0.3271,0.549,0.017,-0.007,0.046
2025-11-06 18:37:40.267,311.515,0.247,0.352,0.187,-0.266,-0.9380000000000001,-0.259,23.5,-22.650000000000002,-74.91,-0.5409,0.5431,0.32680000000000003,0.5527000000000001,0.028,-0.012,0.064
2025-11-06 18:37:40.267,311.52,0.234,0.356,0.221,-0.257,-0.9410000000000001,-0.264,23.5,-22.650000000000002,-74.91,-0.5396000000000001,0.5407000000000001,0.3269,0.5563,0.016,-0.008,0.063
2025-11-06 18:37:40.268,311.525,0.20700000000000002,0.36,0.252,-0.249,-0.9430000000000001,-0.275,23.44,-22.150000000000002,-74.59,-0.5384,0.5379,0.32730000000000004,0.5599000000000001,0.007,-0.004,0.068
2025-11-06 18:37:40.268,311.53,0.187,0.367,0.279,-0.261,-0.932,-0.28200000000000003,23.44,-22.150000000000002,-74.59,-0.5373,0.5354,0.3269,0.5636,0.017,-0.013000000000000001,0.069
2025-11-06 18:37:40.268,311.535,0.199,0.418,0.299,-0.314,-0.922,-0.26,23.580000000000002,-23.12,-74.27,-0.5362,0.5355,0.324,0.5662,0.064,-0.021,0.043000000000000003
2025-11-06 18:37:40.268,311.54,0.272,0.536,0.29,-0.28400000000000003,-0.9400000000000001,-0.23600000000000002,23.580000000000002,-23.12,-74.27,-0.5349,0.5356000000000001,0.32320000000000004,0.5678000000000001,0.03,-0.002,0.018000000000000002
2025-11-06 18:37:40.268,311.545,0.304,0.616,0.289,-0.267,-0.987,-0.225,23.18,-22.06,-74.33,-0.5336000000000001,0.5354,0.3241,0.5686,0.011,0.045,0.008
2025-11-06 18:37:40.268,311.55,0.328,0.678,0.301,-0.263,-1.006,-0.21,23.18,-22.06,-74.33,-0.5323,0.5357000000000001,0.3254,0.5689000000000001,0.008,0.063,-0.004
2025-11-06 18:37:40.268,311.555,0.34900000000000003,0.727,0.31,-0.23800000000000002,-1.0150000000000001,-0.201,23.18,-22.06,-74.33,-0.531,0.5354,0.328,0.5689000000000001,-0.015,0.07200000000000001,-0.011
2025-11-06 18:37:40.268,311.56,0.362,0.751,0.322,-0.224,-1.028,-0.197,23.06,-22.650000000000002,-73.83,-0.5296000000000001,0.5349,0.3311,0.5688,-0.026000000000000002,0.084,-0.012
2025-11-06 18:37:40.268,311.565,0.365,0.73,0.338,-0.222,-1.022,-0.214,23.06,-22.650000000000002,-73.83,-0.5283,0.5338,0.334,0.5694,-0.025,0.076,0.006
2025-11-06 18:37:40.268,311.57,0.334,0.686,0.35100000000000003,-0.20400000000000001,-1.006,-0.23700000000000002,22.77,-23.32,-74.18,-0.5273,0.5314,0.337,0.5708,-0.039,0.059000000000000004,0.029
2025-11-06 18:37:40.268,311.575,0.294,0.626,0.361,-0.2,-1.004,-0.261,22.77,-23.32,-74.18,-0.5266000000000001,0.5284,0.3396,0.5726,-0.04,0.057,0.051000000000000004
2025-11-06 18:37:40.268,311.58,0.249,0.5690000000000001,0.37,-0.201,-1.0050000000000001,-0.28700000000000003,22.77,-23.32,-74.18,-0.5264,0.525,0.34140000000000004,0.5749000000000001,-0.035,0.058,0.07200000000000001
2025-11-06 18:37:40.269,311.585,0.20400000000000001,0.539,0.386,-0.219,-1.0110000000000001,-0.305,22.59,-22.85,-73.66,-0.5263,0.5219,0.3421,0.5774,-0.015,0.064,0.085
2025-11-06 18:37:40.269,311.59,0.168,0.547,0.393,-0.243,-1.022,-0.311,22.59,-22.85,-73.66,-0.5263,0.5195000000000001,0.3418,0.5797,0.009000000000000001,0.077,0.085
2025-11-06 18:37:40.269,311.595,0.15,0.5640000000000001,0.398,-0.263,-1.037,-0.325,22.5,-23.06,-72.81,-0.5263,0.5176000000000001,0.3407,0.5821000000000001,0.028,0.093,0.094
2025-11-06 18:37:40.269,311.6,0.129,0.594,0.40800000000000003,-0.279,-1.049,-0.335,22.5,-23.06,-72.81,-0.5264,0.5159,0.3392,0.5844,0.042,0.106,0.098
2025-11-06 18:37:40.269,311.605,0.114,0.628,0.419,-0.28300000000000003,-1.046,-0.339,22.5,-23.06,-72.81,-0.5264,0.5143,0.3376,0.5867,0.044,0.105,0.096
2025-11-06 18:37:40.269,311.61,0.129,0.685,0.432,-0.276,-1.004,-0.308,21.89,-25.080000000000002,-73.22,-0.5259,0.5133,0.33640000000000003,0.5887,0.034,0.065,0.062
2025-11-06 18:37:40.269,311.615,0.156,0.743,0.434,-0.243,-0.9530000000000001,-0.279,21.89,-25.080000000000002,-73.22,-0.5248,0.5118,0.33680000000000004,0.5907,0.0,0.015,0.029
2025-11-06 18:37:40.269,311.62,0.181,0.792,0.429,-0.223,-0.9,-0.242,22.04,-25.34,-72.55,-0.5232,0.5107,0.3382,0.5923,-0.02,-0.036000000000000004,-0.008
2025-11-06 18:37:40.269,311.625,0.219,0.836,0.417,-0.185,-0.835,-0.217,22.04,-25.34,-72.55,-0.5211,0.5089,0.3412,0.5941000000000001,-0.057,-0.10200000000000001,-0.032
2025-11-06 18:37:40.269,311.63,0.275,0.868,0.399,-0.162,-0.799,-0.183,21.54,-25.75,-72.52,-0.5183,0.5072,0.3457,0.5953,-0.078,-0.138,-0.064
2025-11-06 18:37:40.269,311.635,0.34800000000000003,0.893,0.41600000000000004,-0.14,-0.8260000000000001,-0.161,21.54,-25.75,-72.52,-0.5146000000000001,0.5053,0.3523,0.5962000000000001,-0.094,-0.113,-0.08
2025-11-06 18:37:40.269,311.64,0.374,0.855,0.452,-0.137,-0.876,-0.168,21.54,-25.75,-72.52,-0.5111,0.5034000000000001,0.3589,0.5969,-0.091,-0.067,-0.068
2025-11-06 18:37:40.269,311.645,0.359,0.782,0.491,-0.149,-0.915,-0.189,21.25,-23.96,-71.73,-0.5084000000000001,0.5015000000000001,0.36410000000000003,0.5977,-0.074,-0.03,-0.043000000000000003
2025-11-06 18:37:40.269,311.65,0.296,0.686,0.527,-0.145,-0.937,-0.232,21.25,-23.96,-71.73,-0.5074000000000001,0.49910000000000004,0.3675,0.5985,-0.073,-0.009000000000000001,0.0
2025-11-06 18:37:40.269,311.655,0.20700000000000002,0.578,0.549,-0.15,-0.963,-0.28,20.84,-23.06,-71.73,-0.5082,0.4965,0.36860000000000004,0.5994,-0.063,0.015,0.045
2025-11-06 18:37:40.269,311.66,0.126,0.453,0.549,-0.139,-0.972,-0.301,20.84,-23.06,-71.73,-0.5098,0.49350000000000005,0.36920000000000003,0.6,-0.069,0.024,0.061
2025-11-06 18:37:40.269,311.665,0.08700000000000001,0.421,0.535,-0.137,-0.967,-0.304,20.84,-23.06,-71.73,-0.5115000000000001,0.4907,0.36960000000000004,0.6007,-0.067,0.02,0.059000000000000004
2025-11-06 18:37:40.269,311.67,0.08600000000000001,0.437,0.517,-0.128,-0.9440000000000001,-0.28700000000000003,21.19,-25.57,-71.61,-0.5124000000000001,0.4878,0.3708,0.6015,-0.07100000000000001,-0.002,0.038
2025-11-06 18:37:40.269,311.675,0.125,0.47900000000000004,0.494,-0.12,-0.919,-0.261,21.19,-25.57,-71.61,-0.5121,0.48500000000000004,0.3733,0.6025,-0.075,-0.028,0.01
2025-11-06 18:37:40.269,311.68,0.183,0.5690000000000001,0.46900000000000003,-0.12,-0.893,-0.228,20.02,-23.26,-70.82000000000001,-0.5102,0.48250000000000004,0.3771,0.6037,-0.07100000000000001,-0.055,-0.022
2025-11-06 18:37:40.269,311.685,0.24,0.652,0.45,-0.122,-0.878,-0.216,20.02,-23.26,-70.82000000000001,-0.5078,0.4803,0.381,0.605,-0.065,-0.07100000000000001,-0.032
2025-11-06 18:37:40.269,311.69,0.278,0.677,0.446,-0.12,-0.872,-0.20800000000000002,20.02,-23.26,-70.82000000000001,-0.5052,0.4783,0.3851,0.6062000000000001,-0.064,-0.078,-0.038
2025-11-06 18:37:40.269,311.695,0.307,0.677,0.447,-0.131,-0.866,-0.20600000000000002,20.05,-22.97,-70.27,-0.5027,0.4768,0.3885,0.6074,-0.051000000000000004,-0.08600000000000001,-0.038
2025-11-06 18:37:40.269,311.7,0.336,0.662,0.449,-0.132,-0.856,-0.2,20.05,-22.97,-70.27,-0.5,0.4756,0.3917,0.6085,-0.048,-0.097,-0.041
2025-11-06 18:37:40.269,311.705,0.398,0.622,0.457,-0.14,-0.845,-0.17500000000000002,19.78,-23.35,-70.47,-0.496,0.47490000000000004,0.3956,0.6097,-0.04,-0.109,-0.061
2025-11-06 18:37:40.269,311.71,0.454,0.579,0.47100000000000003,-0.138,-0.833,-0.165,19.78,-23.35,-70.47,-0.4918,0.47440000000000004,0.3996,0.6109,-0.041,-0.122,-0.067
2025-11-06 18:37:40.269,311.715,0.5,0.519,0.49,-0.14200000000000002,-0.8270000000000001,-0.145,19.78,-23.35,-70.06,-0.48660000000000003,0.4743,0.4043,0.6121,-0.038,-0.129,-0.079
2025-11-06 18:37:40.271,311.72,0.546,0.466,0.508,-0.097,-0.8230000000000001,-0.16,20.66,-24.080000000000002,-70.06,-0.4844,0.4733,0.40850000000000003,0.6118,-0.081,-0.135,-0.058
2025-11-06 18:37:40.271,311.725,0.5750000000000001,0.379,0.532,-0.151,-0.837,-0.167,20.66,-24.080000000000002,-70.06,-0.4812,0.4738,0.4106,0.6125,-0.027,-0.122,-0.047
2025-11-06 18:37:40.271,311.73,0.592,0.261,0.558,-0.159,-0.836,-0.17500000000000002,19.29,-28.060000000000002,-69.24,-0.4786,0.4748,0.4117,0.613,-0.02,-0.124,-0.036000000000000004
2025-11-06 18:37:40.271,311.735,0.612,0.091,0.588,-0.166,-0.837,-0.178,19.29,-28.060000000000002,-69.24,-0.47650000000000003,0.4761,0.4121,0.6134000000000001,-0.018000000000000002,-0.123,-0.029
2025-11-06 18:37:40.271,311.74,0.628,0.023,0.595,-0.169,-0.839,-0.184,18.79,-24.02,-68.66,-0.47490000000000004,0.4776,0.41190000000000004,0.6136,-0.017,-0.121,-0.02
2025-11-06 18:37:40.271,311.745,0.624,-0.043000000000000003,0.604,-0.184,-0.843,-0.162,18.79,-24.02,-68.66,-0.47190000000000004,0.47950000000000004,0.41250000000000003,0.6141,-0.007,-0.117,-0.038
2025-11-06 18:37:40.271,311.75,0.625,-0.107,0.612,-0.211,-0.854,-0.121,18.79,-24.02,-68.66,-0.46630000000000005,0.48210000000000003,0.41450000000000004,0.6149,0.012,-0.106,-0.07100000000000001
2025-11-06 18:37:40.271,311.755,0.619,-0.14,0.614,-0.187,-0.866,-0.10300000000000001,18.88,-24.05,-69.13,-0.46130000000000004,0.4844,0.4176,0.6148,-0.014,-0.094,-0.081
2025-11-06 18:37:40.271,311.76,0.619,-0.14300000000000002,0.61,-0.24,-0.88,-0.108,18.88,-24.05,-69.13,-0.45530000000000004,0.4873,0.4194,0.6158,0.03,-0.08,-0.067
2025-11-06 18:37:40.271,311.765,0.618,-0.139,0.601,-0.262,-0.887,-0.109,18.62,-24.72,-68.86,-0.44930000000000003,0.4904,0.4204,0.617,0.044,-0.074,-0.058
2025-11-06 18:37:40.271,311.77,0.618,-0.131,0.595,-0.273,-0.886,-0.10200000000000001,18.62,-24.72,-68.86,-0.4433,0.49350000000000005,0.4214,0.6182000000000001,0.045,-0.073,-0.057
2025-11-06 18:37:40.271,311.775,0.646,-0.088,0.583,-0.293,-0.884,-0.113,18.62,-24.72,-68.86,-0.4374,0.4964,0.4217,0.6199,0.056,-0.074,-0.04
2025-11-06 18:37:40.271,311.78,0.679,-0.061,0.5740000000000001,-0.321,-0.885,-0.112,18.26,-23.96,-68.69,-0.431,0.4995,0.42160000000000003,0.622,0.073,-0.07100000000000001,-0.034
2025-11-06 18:37:40.271,311.785,0.7030000000000001,-0.051000000000000004,0.5680000000000001,-0.327,-0.879,-0.106,18.26,-23.96,-68.69,-0.4248,0.5025000000000001,0.42150000000000004,0.6238,0.067,-0.075,-0.034
2025-11-06 18:37:40.271,311.79,0.72,-0.041,0.5650000000000001,-0.338,-0.881,-0.108,18.18,-23.67,-68.43,-0.4188,0.5054000000000001,0.4212,0.6257,0.067,-0.07100000000000001,-0.027
2025-11-06 18:37:40.272,311.795,0.736,-0.025,0.558,-0.341,-0.882,-0.126,18.18,-23.67,-68.43,-0.4133,0.5075000000000001,0.4207,0.6281,0.061,-0.067,-0.004
2025-11-06 18:37:40.272,311.8,0.759,-0.039,0.551,-0.34500000000000003,-0.881,-0.135,18.18,-23.67,-68.43,-0.4081,0.5092,0.42010000000000003,0.6305000000000001,0.055,-0.066,0.006
2025-11-06 18:37:40.272,311.805,0.768,-0.051000000000000004,0.539,-0.338,-0.881,-0.134,17.77,-24.02,-67.78,-0.4037,0.5107,0.4197,0.6324000000000001,0.04,-0.064,0.007
2025-11-06 18:37:40.272,311.81,0.784,-0.047,0.528,-0.34700000000000003,-0.885,-0.133,17.77,-24.02,-67.78,-0.39930000000000004,0.5122,0.4193,0.6342,0.04,-0.057,0.009000000000000001
2025-11-06 18:37:40.272,311.815,0.794,-0.033,0.519,-0.329,-0.881,-0.135,17.18,-24.400000000000002,-67.96000000000001,-0.39590000000000003,0.5131,0.4192,0.6356,0.016,-0.059000000000000004,0.012
2025-11-06 18:37:40.272,311.82,0.795,-0.031,0.51,-0.335,-0.88,-0.131,17.18,-24.400000000000002,-67.96000000000001,-0.3925,0.5143,0.41910000000000003,0.6369,0.017,-0.059000000000000004,0.01
2025-11-06 18:37:40.272,311.825,0.786,-0.019,0.498,-0.362,-0.872,-0.122,16.98,-23.88,-67.84,-0.3885,0.516,0.41850000000000004,0.6383,0.037,-0.065,0.004
2025-11-06 18:37:40.272,311.83,0.781,-0.006,0.484,-0.35100000000000003,-0.87,-0.128,16.98,-23.88,-67.84,-0.3849,0.5171,0.4183,0.6398,0.02,-0.065,0.012
2025-11-06 18:37:40.272,311.835,0.775,0.0,0.47300000000000003,-0.364,-0.87,-0.126,16.98,-23.88,-67.84,-0.38130000000000003,0.5183,0.4179,0.6412,0.026000000000000002,-0.063,0.011
2025-11-06 18:37:40.272,311.84,0.764,0.005,0.47100000000000003,-0.364,-0.864,-0.121,17.07,-24.17,-66.85,-0.3778,0.5195000000000001,0.41750000000000004,0.6425000000000001,0.019,-0.066,0.009000000000000001
2025-11-06 18:37:40.272,311.845,0.74,0.003,0.47600000000000003,-0.372,-0.856,-0.097,17.07,-24.17,-66.85,-0.3748,0.5219,0.4169,0.6428,0.021,-0.07200000000000001,-0.011
2025-11-06 18:37:40.272,311.85,0.715,-0.002,0.47600000000000003,-0.293,-0.843,-0.096,16.66,-23.53,-67.08,-0.3739,0.5225000000000001,0.41800000000000004,0.642,-0.059000000000000004,-0.084,-0.008
2025-11-06 18:37:40.272,311.855,0.682,-0.074,0.486,-0.297,-0.844,-0.076,16.66,-23.53,-67.08,-0.3733,0.5241,0.4189,0.6405000000000001,-0.054,-0.085,-0.024
2025-11-06 18:37:40.272,311.86,0.664,-0.121,0.491,-0.353,-0.848,-0.054,16.66,-23.53,-67.08,-0.3714,0.5277000000000001,0.4183,0.639,-0.002,-0.08,-0.04
2025-11-06 18:37:40.272,311.865,0.656,-0.125,0.482,-0.343,-0.86,-0.057,16.51,-24.2,-66.93,-0.37,0.5305,0.4183,0.6376000000000001,-0.016,-0.067,-0.031
2025-11-06 18:37:40.272,311.87,0.631,-0.156,0.47400000000000003,-0.328,-0.857,-0.055,16.51,-24.2,-66.93,-0.36910000000000004,0.5328,0.4186,0.636,-0.033,-0.07,-0.027
2025-11-06 18:37:40.272,311.875,0.601,-0.197,0.467,-0.316,-0.858,-0.053,16.86,-25.51,-66.91,-0.3687,0.5348,0.41900000000000004,0.6342,-0.046,-0.068,-0.024
2025-11-06 18:37:40.272,311.88,0.5760000000000001,-0.243,0.46,-0.307,-0.872,-0.035,16.86,-25.51,-66.91,-0.36910000000000004,0.5372,0.4197,0.6315000000000001,-0.054,-0.054,-0.036000000000000004
2025-11-06 18:37:40.272,311.885,0.5740000000000001,-0.28600000000000003,0.452,-0.31,-0.888,0.0,16.86,-25.51,-66.91,-0.36970000000000003,0.541,0.4204,0.6275000000000001,-0.051000000000000004,-0.039,-0.064
2025-11-06 18:37:40.272,311.89,0.603,-0.297,0.438,-0.29,-0.903,0.043000000000000003,15.58,-23.26,-65.91,-0.3714,0.5458000000000001,0.42160000000000003,0.6215,-0.069,-0.025,-0.095
2025-11-06 18:37:40.272,311.895,0.66,-0.267,0.398,-0.295,-0.916,0.055,15.58,-23.26,-65.91,-0.37270000000000003,0.5504,0.42300000000000004,0.6157,-0.061,-0.014,-0.094
2025-11-06 18:37:40.272,311.9,0.686,-0.213,0.367,-0.301,-0.919,0.028,15.52,-26.1,-66.06,-0.37360000000000004,0.5536,0.4242,0.6115,-0.053,-0.013000000000000001,-0.057
2025-11-06 18:37:40.272,311.905,0.7000000000000001,-0.176,0.34500000000000003,-0.3,-0.919,-0.002,15.52,-26.1,-66.06,-0.3745,0.5555,0.4249,0.6086,-0.051000000000000004,-0.013000000000000001,-0.019
2025-11-06 18:37:40.272,311.91,0.705,-0.137,0.334,-0.305,-0.912,-0.036000000000000004,15.52,-23.47,-65.18,-0.3754,0.5561,0.42510000000000003,0.6073000000000001,-0.045,-0.022,0.016
2025-11-06 18:37:40.272,311.915,0.684,-0.10400000000000001,0.322,-0.324,-0.9,-0.068,15.52,-23.47,-65.18,-0.3755,0.5559000000000001,0.4247,0.6078,-0.025,-0.035,0.047
2025-11-06 18:37:40.272,311.92,0.638,-0.079,0.315,-0.309,-0.884,-0.098,15.52,-23.47,-65.18,-0.3765,0.5547000000000001,0.4237,0.6089,-0.04,-0.051000000000000004,0.074
2025-11-06 18:37:40.272,311.925,0.589,-0.078,0.305,-0.325,-0.875,-0.109,15.34,-24.080000000000002,-65.3,-0.377,0.5534,0.4224,0.6108,-0.025,-0.059000000000000004,0.08
2025-11-06 18:37:40.272,311.93,0.543,-0.063,0.292,-0.34,-0.856,-0.116,15.34,-24.080000000000002,-65.3,-0.3768,0.5522,0.42050000000000004,0.6132000000000001,-0.012,-0.077,0.081
2025-11-06 18:37:40.272,311.935,0.507,-0.057,0.277,-0.336,-0.84,-0.116,14.73,-23.580000000000002,-65.06,-0.3766,0.5511,0.4187,0.6156,-0.019,-0.092,0.075
2025-11-06 18:37:40.272,311.94,0.488,-0.08,0.26,-0.332,-0.8270000000000001,-0.116,14.73,-23.580000000000002,-65.06,-0.3765,0.55,0.41700000000000004,0.6178,-0.025,-0.10400000000000001,0.069
2025-11-06 18:37:40.272,311.945,0.488,-0.115,0.246,-0.334,-0.8260000000000001,-0.10400000000000001,14.73,-23.580000000000002,-65.06,-0.37620000000000003,0.5494,0.4156,0.6194000000000001,-0.025,-0.10400000000000001,0.054
2025-11-06 18:37:40.272,311.95,0.493,-0.137,0.23700000000000002,-0.322,-0.8210000000000001,-0.081,15.200000000000001,-24.17,-64.39,-0.3758,0.5492,0.4152,0.6201,-0.04,-0.108,0.029
2025-11-06 18:37:40.272,311.955,0.497,-0.15,0.227,-0.316,-0.8180000000000001,-0.063,15.200000000000001,-24.17,-64.39,-0.3753,0.5495,0.4152,0.6202000000000001,-0.046,-0.11,0.011
2025-11-06 18:37:40.272,311.96,0.495,-0.154,0.213,-0.305,-0.8130000000000001,-0.042,14.93,-23.26,-65.3,-0.37460000000000004,0.55,0.4161,0.6195,-0.059000000000000004,-0.114,-0.007
2025-11-06 18:37:40.272,311.965,0.482,-0.185,0.185,-0.271,-0.8250000000000001,-0.033,14.93,-23.26,-65.3,-0.3745,0.5497000000000001,0.4186,0.6182000000000001,-0.089,-0.10400000000000001,-0.012
2025-11-06 18:37:40.272,311.97,0.47400000000000003,-0.224,0.17,-0.28800000000000003,-0.8280000000000001,-0.015,14.93,-23.26,-65.3,-0.3739,0.5503,0.42060000000000003,0.6167,-0.07,-0.10200000000000001,-0.026000000000000002
2025-11-06 18:37:40.272,311.975,0.47100000000000003,-0.23500000000000001,0.159,-0.295,-0.8140000000000001,-0.001,15.02,-22.85,-64.36,-0.3729,0.5517000000000001,0.4223,0.6149,-0.062,-0.117,-0.034
2025-11-06 18:37:40.272,311.98,0.47000000000000003,-0.23600000000000002,0.15,-0.28700000000000003,-0.801,0.006,15.02,-22.85,-64.36,-0.3719,0.553,0.4242,0.613,-0.069,-0.13,-0.036000000000000004
2025-11-06 18:37:40.272,311.985,0.47600000000000003,-0.23,0.132,-0.28800000000000003,-0.796,0.001,14.55,-23.23,-64.36,-0.37110000000000004,0.5541,0.4257,0.6115,-0.068,-0.136,-0.025
2025-11-06 18:37:40.272,311.99,0.483,-0.28700000000000003,0.114,-0.278,-0.796,-0.003,14.55,-23.23,-64.36,-0.3708,0.5549000000000001,0.42710000000000004,0.6099,-0.076,-0.136,-0.017
2025-11-06 18:37:40.272,311.995,0.487,-0.341,0.1,-0.299,-0.801,0.003,14.700000000000001,-24.11,-64.27,-0.37,0.5563,0.42810000000000004,0.6084,-0.054,-0.131,-0.019
2025-11-06 18:37:40.272,312.0,0.493,-0.368,0.094,-0.303,-0.804,-0.002,14.700000000000001,-24.11,-64.27,-0.3694,0.5576,0.42860000000000004,0.6072000000000001,-0.051000000000000004,-0.129,-0.008
2025-11-06 18:37:40.272,312.005,0.487,-0.368,0.08700000000000001,-0.311,-0.809,-0.011,14.700000000000001,-24.11,-64.27,-0.3689,0.5587,0.4287,0.6065,-0.043000000000000003,-0.123,0.002
2025-11-06 18:37:40.272,312.01,0.464,-0.369,0.084,-0.322,-0.8190000000000001,-0.006,14.700000000000001,-23.41,-64.3,-0.3683,0.56,0.42860000000000004,0.6057,-0.033,-0.113,0.0
2025-11-06 18:37:40.274,312.015,0.43,-0.361,0.089,-0.313,-0.8280000000000001,-0.003,14.700000000000001,-23.41,-64.3,-0.368,0.5609000000000001,0.4289,0.6048,-0.043000000000000003,-0.10400000000000001,0.0
2025-11-06 18:37:40.274,312.02,0.40700000000000003,-0.357,0.091,-0.32,-0.8320000000000001,-0.01,16.19,-23.61,-63.95,-0.3679,0.5617,0.4287,0.6042000000000001,-0.037,-0.1,0.008
2025-11-06 18:37:40.274,312.025,0.391,-0.355,0.089,-0.311,-0.8290000000000001,-0.024,16.19,-23.61,-63.95,-0.3683,0.562,0.4284,0.6039,-0.045,-0.10200000000000001,0.023
2025-11-06 18:37:40.274,312.03,0.37,-0.355,0.083,-0.308,-0.8290000000000001,-0.031,16.19,-23.61,-63.95,-0.369,0.5621,0.4279,0.6038,-0.048,-0.10300000000000001,0.029
2025-11-06 18:37:40.274,312.035,0.34400000000000003,-0.354,0.065,-0.292,-0.8260000000000001,-0.044,15.84,-26.27,-64.42,-0.3705,0.5614,0.42750000000000005,0.6038,-0.063,-0.106,0.04
2025-11-06 18:37:40.274,312.04,0.327,-0.34700000000000003,0.051000000000000004,-0.292,-0.8320000000000001,-0.051000000000000004,15.84,-26.27,-64.42,-0.37210000000000004,0.5606,0.42700000000000005,0.604,-0.061,-0.101,0.045
2025-11-06 18:37:40.274,312.045,0.318,-0.343,0.042,-0.295,-0.834,-0.053,14.870000000000001,-23.150000000000002,-63.46,-0.37360000000000004,0.5599000000000001,0.4264,0.6041000000000001,-0.057,-0.1,0.045
2025-11-06 18:37:40.274,312.05,0.318,-0.333,0.034,-0.312,-0.837,-0.053,14.870000000000001,-23.150000000000002,-63.46,-0.37470000000000003,0.5597,0.4252,0.6045,-0.039,-0.097,0.042
2025-11-06 18:37:40.274,312.055,0.323,-0.314,0.027,-0.313,-0.838,-0.047,14.870000000000001,-23.150000000000002,-63.46,-0.37560000000000004,0.5596,0.4243,0.6046,-0.037,-0.096,0.034
2025-11-06 18:37:40.274,312.06,0.326,-0.289,0.015,-0.331,-0.853,-0.029,15.34,-23.47,-63.43,-0.3758,0.5603,0.42350000000000004,0.6043000000000001,-0.02,-0.081,0.016
2025-11-06 18:37:40.274,312.065,0.301,-0.259,0.009000000000000001,-0.337,-0.864,-0.014,15.34,-23.47,-63.43,-0.37560000000000004,0.5613,0.4232,0.6038,-0.016,-0.069,0.002
2025-11-06 18:37:40.274,312.07,0.27,-0.249,0.001,-0.34600000000000003,-0.869,0.002,14.99,-22.8,-63.63,-0.375,0.5627,0.42300000000000004,0.603,-0.008,-0.063,-0.012
2025-11-06 18:37:40.274,312.075,0.252,-0.241,-0.007,-0.352,-0.871,0.014,14.99,-22.8,-63.63,-0.37420000000000003,0.5644,0.4229,0.602,-0.004,-0.061,-0.02
2025-11-06 18:37:40.274,312.08,0.25,-0.214,-0.022,-0.35000000000000003,-0.88,0.032,14.99,-22.8,-63.63,-0.37320000000000003,0.5661,0.4234,0.6006,-0.007,-0.052000000000000005,-0.033
2025-11-06 18:37:40.274,312.085,0.253,-0.17400000000000002,-0.037,-0.35100000000000003,-0.884,0.049,14.82,-23.09,-63.160000000000004,-0.3719,0.5680000000000001,0.4243,0.599,-0.006,-0.047,-0.045
2025-11-06 18:37:40.274,312.09,0.255,-0.152,-0.052000000000000005,-0.361,-0.886,0.066,14.82,-23.09,-63.160000000000004,-0.3703,0.5703,0.4253,0.5971000000000001,0.001,-0.044,-0.055
2025-11-06 18:37:40.274,312.095,0.254,-0.133,-0.066,-0.376,-0.883,0.074,15.08,-22.85,-63.02,-0.3683,0.5729000000000001,0.4259,0.5955,0.014,-0.046,-0.056
2025-11-06 18:37:40.274,312.1,0.245,-0.124,-0.083,-0.396,-0.88,0.07,15.08,-22.85,-63.02,-0.366,0.5754,0.42600000000000005,0.5944,0.03,-0.048,-0.046
2025-11-06 18:37:40.274,312.105,0.233,-0.123,-0.095,-0.421,-0.881,0.054,14.73,-22.5,-62.730000000000004,-0.3635,0.5776,0.4253,0.5943,0.051000000000000004,-0.045,-0.026000000000000002
2025-11-06 18:37:40.274,312.11,0.203,-0.123,-0.116,-0.423,-0.883,0.037,14.73,-22.5,-62.730000000000004,-0.3614,0.5790000000000001,0.4244,0.5948,0.048,-0.041,-0.006
2025-11-06 18:37:40.274,312.115,0.17400000000000002,-0.111,-0.125,-0.424,-0.885,0.034,14.73,-22.5,-62.730000000000004,-0.35950000000000004,0.5802,0.42360000000000003,0.5954,0.045,-0.037,-0.002
2025-11-06 18:37:40.274,312.12,0.145,-0.10200000000000001,-0.127,-0.434,-0.885,0.026000000000000002,15.66,-26.04,-63.49,-0.35750000000000004,0.5811000000000001,0.42260000000000003,0.5965,0.05,-0.036000000000000004,0.006
2025-11-06 18:37:40.276,312.125,0.114,-0.107,-0.13,-0.432,-0.879,0.006,15.66,-26.04,-63.49,-0.3557,0.5811000000000001,0.42150000000000004,0.5982000000000001,0.044,-0.04,0.024
2025-11-06 18:37:40.276,312.13,0.07100000000000001,-0.136,-0.137,-0.421,-0.856,-0.006,15.34,-23.2,-62.75,-0.3542,0.5807,0.42050000000000004,0.6003000000000001,0.028,-0.061,0.035
2025-11-06 18:37:40.276,312.135,0.051000000000000004,-0.14200000000000002,-0.148,-0.423,-0.834,-0.014,15.34,-23.2,-62.75,-0.35250000000000004,0.5802,0.4192,0.6027,0.026000000000000002,-0.081,0.039
2025-11-06 18:37:40.276,312.14,0.032,-0.14,-0.158,-0.41100000000000003,-0.8150000000000001,-0.018000000000000002,15.34,-23.2,-62.75,-0.35100000000000003,0.5795,0.41800000000000004,0.605,0.01,-0.098,0.041
2025-11-06 18:37:40.276,312.145,0.037,-0.11900000000000001,-0.167,-0.394,-0.796,-0.033,16.13,-22.94,-62.870000000000005,-0.3497,0.5780000000000001,0.4172,0.6077,-0.009000000000000001,-0.116,0.051000000000000004
2025-11-06 18:37:40.276,312.15,0.039,-0.096,-0.183,-0.377,-0.784,-0.036000000000000004,16.13,-22.94,-62.870000000000005,-0.3488,0.5761000000000001,0.4169,0.6103000000000001,-0.029,-0.127,0.049
2025-11-06 18:37:40.276,312.155,0.039,-0.08,-0.188,-0.356,-0.779,-0.039,16.01,-23.76,-63.050000000000004,-0.3482,0.5738,0.4172,0.6125,-0.049,-0.133,0.047
2025-11-06 18:37:40.276,312.16,0.026000000000000002,-0.07100000000000001,-0.189,-0.34500000000000003,-0.779,-0.039,16.01,-23.76,-63.050000000000004,-0.34800000000000003,0.5715,0.4178,0.6145,-0.06,-0.132,0.042
2025-11-06 18:37:40.276,312.165,0.015,-0.062,-0.188,-0.32,-0.782,-0.034,16.01,-23.76,-63.050000000000004,-0.3482,0.5687,0.4194,0.6158,-0.083,-0.13,0.033
2025-11-06 18:37:40.276,312.17,0.002,-0.051000000000000004,-0.186,-0.306,-0.789,-0.026000000000000002,15.200000000000001,-22.82,-63.160000000000004,-0.3487,0.5661,0.42150000000000004,0.6165,-0.093,-0.125,0.023
2025-11-06 18:37:40.276,312.175,-0.011,-0.045,-0.189,-0.28600000000000003,-0.799,-0.005,15.200000000000001,-22.82,-63.160000000000004,-0.3497,0.5638000000000001,0.4243,0.6161,-0.107,-0.11800000000000001,0.001
2025-11-06 18:37:40.276,312.18,-0.019,-0.052000000000000005,-0.197,-0.281,-0.8170000000000001,0.007,15.4,-24.080000000000002,-62.370000000000005,-0.3508,0.562,0.4274,0.6151,-0.106,-0.10300000000000001,-0.01
2025-11-06 18:37:40.276,312.185,-0.017,-0.053,-0.20400000000000001,-0.296,-0.8260000000000001,0.013000000000000001,15.4,-24.080000000000002,-62.370000000000005,-0.3516,0.5609000000000001,0.4297,0.6139,-0.085,-0.095,-0.015
2025-11-06 18:37:40.276,312.19,-0.017,-0.027,-0.202,-0.314,-0.8250000000000001,0.018000000000000002,15.81,-22.94,-63.370000000000005,-0.3521,0.5606,0.4312,0.6128,-0.063,-0.098,-0.018000000000000002
2025-11-06 18:37:40.276,312.195,-0.023,0.005,-0.201,-0.314,-0.8220000000000001,0.025,15.81,-22.94,-63.370000000000005,-0.35250000000000004,0.5606,0.43260000000000004,0.6117,-0.061,-0.10200000000000001,-0.023
2025-11-06 18:37:40.276,312.2,-0.049,0.022,-0.201,-0.32,-0.841,0.042,15.81,-22.94,-63.370000000000005,-0.3527,0.561,0.43410000000000004,0.6101,-0.053,-0.084,-0.036000000000000004
2025-11-06 18:37:40.278,312.205,-0.08,0.024,-0.203,-0.323,-0.863,0.05,15.69,-22.740000000000002,-63.22,-0.35300000000000004,0.5614,0.43570000000000003,0.6084,-0.046,-0.063,-0.04
2025-11-06 18:37:40.278,312.21,-0.115,0.028,-0.20800000000000002,-0.329,-0.883,0.051000000000000004,15.69,-22.740000000000002,-63.22,-0.3534,0.5617,0.43720000000000003,0.6069,-0.038,-0.044,-0.038
2025-11-06 18:37:40.278,312.215,-0.149,0.026000000000000002,-0.214,-0.34,-0.897,0.05,15.58,-22.53,-63.370000000000005,-0.3536,0.562,0.4383,0.6057,-0.024,-0.031,-0.034
2025-11-06 18:37:40.278,312.22,-0.163,0.021,-0.22,-0.34800000000000003,-0.903,0.038,15.58,-22.53,-63.370000000000005,-0.3539,0.5621,0.4389,0.605,-0.015,-0.026000000000000002,-0.02
2025-11-06 18:37:40.278,312.225,-0.18,0.028,-0.247,-0.357,-0.898,0.021,15.58,-22.53,-63.370000000000005,-0.3542,0.5619000000000001,0.439,0.605,-0.005,-0.031,-0.004
2025-11-06 18:37:40.279,312.23,-0.20600000000000002,0.044,-0.272,-0.358,-0.884,0.008,16.72,-23.26,-63.11,-0.3546,0.5614,0.43860000000000005,0.6055,-0.004,-0.046,0.007
2025-11-06 18:37:40.279,312.235,-0.23600000000000002,0.068,-0.305,-0.361,-0.862,-0.006,16.72,-23.26,-63.11,-0.3549,0.5607,0.43770000000000003,0.6065,-0.001,-0.067,0.019
2025-11-06 18:37:40.279,312.24,-0.251,0.096,-0.339,-0.356,-0.833,-0.02,16.740000000000002,-23.41,-64.07000000000001,-0.3552,0.5597,0.4365,0.6081,-0.008,-0.096,0.029
2025-11-06 18:37:40.279,312.245,-0.257,0.12,-0.378,-0.34400000000000003,-0.804,-0.034,16.740000000000002,-23.41,-64.07000000000001,-0.3558,0.5583,0.43520000000000003,0.61,-0.02,-0.124,0.038
2025-11-06 18:37:40.279,312.25,-0.249,0.149,-0.405,-0.335,-0.776,-0.045,16.740000000000002,-23.41,-64.07000000000001,-0.3564,0.5567,0.4338,0.6122000000000001,-0.031,-0.152,0.042
2025-11-06 18:37:40.279,312.255,-0.23800000000000002,0.154,-0.418,-0.33,-0.757,-0.05,15.98,-22.56,-63.31,-0.35700000000000004,0.5551,0.43220000000000003,0.6144000000000001,-0.037,-0.171,0.041
2025-11-06 18:37:40.280,312.26,-0.234,0.154,-0.423,-0.332,-0.742,-0.044,15.98,-22.56,-63.31,-0.3573,0.5541,0.43060000000000004,0.6162000000000001,-0.036000000000000004,-0.185,0.03
2025-11-06 18:37:40.280,312.265,-0.224,0.151,-0.423,-0.334,-0.732,-0.034,16.45,-23.12,-63.6,-0.35750000000000004,0.5537000000000001,0.4289,0.6176,-0.036000000000000004,-0.194,0.016
2025-11-06 18:37:40.280,312.27,-0.214,0.145,-0.418,-0.343,-0.73,-0.022,16.45,-23.12,-63.6,-0.35750000000000004,0.5543,0.42700000000000005,0.6184000000000001,-0.031,-0.195,0.002
2025-11-06 18:37:40.280,312.275,-0.219,0.134,-0.41200000000000003,-0.34,-0.732,-0.009000000000000001,16.740000000000002,-24.43,-63.63,-0.35760000000000003,0.5553,0.42550000000000004,0.6184000000000001,-0.036000000000000004,-0.192,-0.011
2025-11-06 18:37:40.280,312.28,-0.233,0.123,-0.40900000000000003,-0.34500000000000003,-0.743,0.005,16.740000000000002,-24.43,-63.63,-0.3578,0.5569000000000001,0.42410000000000003,0.6179,-0.033,-0.18,-0.025
2025-11-06 18:37:40.280,312.285,-0.256,0.112,-0.40700000000000003,-0.331,-0.759,0.015,16.740000000000002,-24.43,-63.63,-0.35850000000000004,0.5582,0.42360000000000003,0.6167,-0.048,-0.164,-0.033
2025-11-06 18:37:40.280,312.29,-0.281,0.092,-0.404,-0.34400000000000003,-0.777,0.031,16.740000000000002,-22.94,-63.02,-0.35910000000000003,0.5603,0.4229,0.6149,-0.035,-0.146,-0.046
2025-11-06 18:37:40.280,312.295,-0.303,0.084,-0.40900000000000003,-0.332,-0.797,0.039,16.740000000000002,-22.94,-63.02,-0.3602,0.562,0.4228,0.6127,-0.046,-0.126,-0.05
2025-11-06 18:37:40.280,312.3,-0.316,0.077,-0.41500000000000004,-0.333,-0.812,0.039,17.3,-22.650000000000002,-63.63,-0.3614,0.5634,0.4229,0.6106,-0.044,-0.111,-0.047
2025-11-06 18:37:40.280,312.305,-0.343,0.069,-0.424,-0.335,-0.8250000000000001,0.04,17.3,-22.650000000000002,-63.63,-0.3627,0.5646,0.42310000000000003,0.6087,-0.039,-0.099,-0.045
2025-11-06 18:37:40.280,312.31,-0.361,0.05,-0.427,-0.332,-0.8280000000000001,0.027,17.3,-22.650000000000002,-63.63,-0.3639,0.5651,0.4232,0.6074,-0.04,-0.098,-0.03
2025-11-06 18:37:40.280,312.315,-0.359,0.032,-0.436,-0.316,-0.8180000000000001,-0.012,17.12,-22.85,-63.72,-0.3654,0.5638000000000001,0.42350000000000004,0.6075,-0.053,-0.108,0.008
2025-11-06 18:37:40.280,312.32,-0.328,0.0,-0.444,-0.295,-0.797,-0.061,17.12,-22.85,-63.72,-0.3672,0.5603,0.4238,0.6094,-0.07100000000000001,-0.131,0.05
2025-11-06 18:37:40.280,312.325,-0.296,-0.014,-0.45,-0.27,-0.779,-0.089,17.18,-22.39,-63.63,-0.3695,0.5556,0.4243,0.612,-0.091,-0.15,0.069
2025-11-06 18:37:40.280,312.33,-0.281,-0.021,-0.455,-0.251,-0.764,-0.097,17.18,-22.39,-63.63,-0.37210000000000004,0.5507000000000001,0.42500000000000004,0.6143000000000001,-0.10400000000000001,-0.168,0.067
2025-11-06 18:37:40.280,312.335,-0.28500000000000003,-0.02,-0.463,-0.23700000000000002,-0.749,-0.092,17.18,-22.39,-63.63,-0.37470000000000003,0.5461,0.42600000000000005,0.6162000000000001,-0.112,-0.185,0.053
2025-11-06 18:37:40.280,312.34,-0.289,-0.002,-0.466,-0.228,-0.736,-0.066,17.04,-22.18,-63.89,-0.377,0.5426,0.4273,0.6169,-0.114,-0.2,0.022
2025-11-06 18:37:40.280,312.345,-0.28300000000000003,0.041,-0.465,-0.226,-0.718,-0.051000000000000004,17.04,-22.18,-63.89,-0.3788,0.5401,0.4287,0.6171,-0.111,-0.22,0.003
2025-11-06 18:37:40.280,312.35,-0.268,0.098,-0.465,-0.214,-0.7020000000000001,-0.038,17.5,-22.62,-64.01,-0.3803,0.5378000000000001,0.4307,0.6168,-0.11800000000000001,-0.23800000000000002,-0.012
2025-11-06 18:37:40.280,312.355,-0.259,0.17300000000000001,-0.462,-0.2,-0.6960000000000001,-0.03,17.5,-22.62,-64.01,-0.38170000000000004,0.5354,0.4333,0.6162000000000001,-0.126,-0.245,-0.02
2025-11-06 18:37:40.280,312.36,-0.26,0.256,-0.466,-0.19,-0.6950000000000001,-0.023,17.5,-22.62,-64.13,-0.3829,0.5329,0.4363,0.6155,-0.128,-0.249,-0.027
2025-11-06 18:37:40.280,312.365,-0.267,0.34800000000000003,-0.47600000000000003,-0.184,-0.717,-0.024,17.68,-23.580000000000002,-64.13,-0.3841,0.5301,0.43970000000000004,0.6148,-0.126,-0.229,-0.026000000000000002
2025-11-06 18:37:40.280,312.37,-0.278,0.405,-0.486,-0.194,-0.746,-0.026000000000000002,17.68,-23.580000000000002,-64.13,-0.38520000000000004,0.5274,0.44260000000000005,0.6142000000000001,-0.109,-0.203,-0.024
2025-11-06 18:37:40.280,312.375,-0.3,0.43,-0.498,-0.198,-0.785,-0.024,18.29,-22.77,-64.8,-0.38620000000000004,0.5248,0.44570000000000004,0.6136,-0.098,-0.167,-0.027
2025-11-06 18:37:40.280,312.38,-0.34500000000000003,0.434,-0.517,-0.212,-0.8220000000000001,-0.01,18.29,-22.77,-64.8,-0.3865,0.5226000000000001,0.449,0.6129,-0.076,-0.131,-0.039
2025-11-06 18:37:40.280,312.385,-0.41600000000000004,0.427,-0.546,-0.23500000000000001,-0.849,0.01,17.94,-21.6,-64.33,-0.3856,0.5212,0.45230000000000004,0.6123000000000001,-0.048,-0.106,-0.059000000000000004
2025-11-06 18:37:40.280,312.39,-0.545,0.41200000000000003,-0.593,-0.27,-0.868,0.041,17.94,-21.6,-64.33,-0.3831,0.5207,0.45570000000000005,0.6118,-0.011,-0.088,-0.085
2025-11-06 18:37:40.280,312.395,-0.62,0.397,-0.625,-0.303,-0.862,0.065,17.94,-21.6,-64.33,-0.379,0.5211,0.45890000000000003,0.6116,0.019,-0.094,-0.10200000000000001
2025-11-06 18:37:40.280,312.4,-0.667,0.385,-0.659,-0.331,-0.836,0.075,18.26,-21.830000000000002,-65.18,-0.3738,0.522,0.46140000000000003,0.6121,0.043000000000000003,-0.11900000000000001,-0.105
2025-11-06 18:37:40.280,312.405,-0.6880000000000001,0.371,-0.6900000000000001,-0.34900000000000003,-0.804,0.067,18.26,-21.830000000000002,-65.18,-0.368,0.5231,0.4632,0.6134000000000001,0.055,-0.15,-0.091
2025-11-06 18:37:40.280,312.41,-0.671,0.358,-0.721,-0.355,-0.761,0.03,18.38,-21.98,-65.27,-0.36200000000000004,0.5232,0.46390000000000003,0.6163000000000001,0.053,-0.19,-0.052000000000000005
2025-11-06 18:37:40.280,312.415,-0.65,0.357,-0.746,-0.333,-0.719,-0.015,18.38,-21.98,-65.27,-0.3573,0.5218,0.4637,0.6204000000000001,0.024,-0.23,-0.008
2025-11-06 18:37:40.280,312.42,-0.651,0.379,-0.761,-0.31,-0.6910000000000001,-0.056,18.38,-21.98,-65.27,-0.3536,0.5186000000000001,0.463,0.6256,-0.004,-0.256,0.025
2025-11-06 18:37:40.280,312.425,-0.666,0.418,-0.765,-0.293,-0.664,-0.10200000000000001,18.76,-22.71,-66.15,-0.35050000000000003,0.5134000000000001,0.46180000000000004,0.6326,-0.025,-0.281,0.059000000000000004
2025-11-06 18:37:40.281,312.43,-0.7030000000000001,0.47000000000000003,-0.765,-0.269,-0.645,-0.14100000000000001,18.76,-22.71,-66.15,-0.34840000000000004,0.5063,0.46030000000000004,0.6405000000000001,-0.052000000000000005,-0.299,0.082
2025-11-06 18:37:40.281,312.435,-0.762,0.543,-0.747,-0.243,-0.62,-0.164,19.29,-21.8,-66.15,-0.34700000000000003,0.4979,0.45880000000000004,0.6489,-0.079,-0.323,0.085
2025-11-06 18:37:40.281,312.44,-0.8190000000000001,0.628,-0.721,-0.22,-0.602,-0.167,19.29,-21.8,-66.15,-0.34640000000000004,0.4892,0.4575,0.6567000000000001,-0.1,-0.339,0.068
2025-11-06 18:37:40.281,312.445,-0.857,0.714,-0.7010000000000001,-0.199,-0.587,-0.169,19.29,-21.8,-66.15,-0.3463,0.4802,0.4566,0.6639,-0.11800000000000001,-0.352,0.051000000000000004
2025-11-06 18:37:40.281,312.45,-0.871,0.8160000000000001,-0.6920000000000001,-0.179,-0.578,-0.164,19.02,-21.92,-66.12,-0.34640000000000004,0.4712,0.45640000000000003,0.6704,-0.132,-0.361,0.029
2025-11-06 18:37:40.281,312.455,-0.876,0.912,-0.6960000000000001,-0.164,-0.579,-0.193,19.02,-21.92,-66.12,-0.3468,0.4607,0.45630000000000004,0.6775,-0.14,-0.36,0.038
2025-11-06 18:37:40.281,312.46,-0.907,0.984,-0.725,-0.163,-0.67,-0.301,18.97,-21.92,-66.79,-0.34800000000000003,0.447,0.45530000000000004,0.6867000000000001,-0.13,-0.268,0.121
2025-11-06 18:37:40.281,312.465,-0.934,0.9550000000000001,-0.751,-0.139,-0.8140000000000001,-0.323,18.97,-21.92,-66.79,-0.34800000000000003,0.432,0.4581,0.6944,-0.139,-0.123,0.12
2025-11-06 18:37:40.281,312.47,-0.979,0.856,-0.771,-0.093,-0.96,-0.315,19.17,-20.81,-67.49,-0.3463,0.41590000000000005,0.465,0.7005,-0.164,0.02,0.096
2025-11-06 18:37:40.281,312.475,-1.071,0.68,-0.787,-0.063,-1.089,-0.304,19.17,-20.81,-67.49,-0.3442,0.40030000000000004,0.47340000000000004,0.7050000000000001,-0.17200000000000001,0.146,0.074
2025-11-06 18:37:40.281,312.48,-1.199,0.451,-0.804,-0.054,-1.2,-0.321,19.17,-20.81,-67.49,-0.343,0.3864,0.4807,0.7084,-0.159,0.253,0.083
2025-11-06 18:37:40.281,312.485,-1.332,0.3,-0.8170000000000001,-0.043000000000000003,-1.221,-0.275,19.67,-21.13,-67.2,-0.3411,0.37370000000000003,0.48860000000000003,0.7107,-0.15,0.272,0.031
2025-11-06 18:37:40.281,312.49,-1.554,0.273,-0.8320000000000001,0.005,-1.135,-0.10300000000000001,19.67,-21.13,-67.2,-0.3355,0.3607,0.5016,0.7110000000000001,-0.18,0.181,-0.135
2025-11-06 18:37:40.281,312.495,-1.617,0.435,-0.847,0.091,-0.996,0.0,19.93,-21.16,-68.1,-0.33140000000000003,0.34750000000000003,0.5171,0.7084,-0.242,0.037,-0.226
2025-11-06 18:37:40.281,312.5,-1.469,0.581,-0.868,0.181,-0.881,0.011,19.93,-21.16,-68.1,-0.3345,0.33540000000000003,0.531,0.7025,-0.301,-0.085,-0.225
2025-11-06 18:37:40.281,312.505,-1.078,0.67,-0.889,0.245,-0.857,-0.046,19.93,-21.16,-68.1,-0.34590000000000004,0.3256,0.5402,0.6946,-0.328,-0.114,-0.159
2025-11-06 18:37:40.281,312.51,-0.727,0.762,-0.89,0.257,-0.926,-0.01,20.6,-21.28,-68.37,-0.3511,0.31470000000000004,0.5522,0.6874,-0.304,-0.049,-0.184
2025-11-06 18:37:40.281,312.515,-0.521,0.862,-0.858,0.187,-1.012,0.124,20.6,-21.28,-68.37,-0.34040000000000004,0.301,0.5713,0.6833,-0.209,0.03,-0.296
2025-11-06 18:37:40.281,312.52,-0.34800000000000003,0.896,-0.774,0.028,-1.095,0.268,21.36,-21.39,-68.81,-0.31570000000000004,0.2877,0.5938,0.6817000000000001,-0.04,0.108,-0.405
2025-11-06 18:37:40.281,312.525,-0.166,0.714,-0.651,-0.195,-1.212,0.293,21.36,-21.39,-68.81,-0.28550000000000003,0.2782,0.6122000000000001,0.6828000000000001,0.17500000000000002,0.22,-0.395
2025-11-06 18:37:40.281,312.53,0.062,0.08,-0.381,-0.5640000000000001,-1.456,0.027,21.36,-21.39,-68.81,-0.25830000000000003,0.27590000000000003,0.618,0.6893,0.521,0.46,-0.113
2025-11-06 18:37:40.281,312.535,0.28600000000000003,-0.764,-0.187,-0.6880000000000001,-1.583,-0.20400000000000001,20.92,-20.14,-68.51,-0.2411,0.2796,0.6159,0.6958000000000001,0.615,0.587,0.11900000000000001
2025-11-06 18:37:40.281,312.54,0.389,-1.374,-0.038,-0.646,-1.643,-0.359,20.92,-20.14,-68.51,-0.2318,0.2851,0.6103000000000001,0.7017,0.548,0.65,0.268
2025-11-06 18:37:40.281,312.545,0.428,-1.7590000000000001,0.022,-0.435,-1.68,-0.41000000000000003,21.42,-20.05,-68.22,-0.23020000000000002,0.2893,0.6046,0.7054,0.32,0.6900000000000001,0.31
2025-11-06 18:37:40.281,312.55,0.462,-1.762,-0.04,-0.129,-1.712,-0.176,21.42,-20.05,-68.22,-0.23650000000000002,0.2931,0.604,0.7022,0.011,0.725,0.076
2025-11-06 18:37:40.281,312.555,0.41600000000000004,-1.041,-0.39,0.221,-1.799,-0.037,22.39,-20.37,-68.98,-0.25520000000000004,0.2972,0.6055,0.6926,-0.319,0.812,-0.054
2025-11-06 18:37:40.281,312.56,0.389,-0.44,-0.632,0.34700000000000003,-1.841,-0.014,22.39,-20.37,-68.98,-0.2756,0.2999,0.6075,0.6819000000000001,-0.418,0.852,-0.068
2025-11-06 18:37:40.281,312.565,0.32,0.085,-0.8180000000000001,0.326,-1.851,-0.036000000000000004,22.39,-20.37,-68.98,-0.2913,0.2998,0.6098,0.6732,-0.37,0.86,-0.04
2025-11-06 18:37:40.281,312.57,0.261,0.443,-0.904,0.163,-1.865,-0.049,21.740000000000002,-19.580000000000002,-68.92,-0.2982,0.2977,0.6129,0.6683,-0.187,0.871,-0.022
2025-11-06 18:37:40.281,312.575,0.265,0.615,-0.8250000000000001,-0.155,-1.9000000000000001,-0.067,21.740000000000002,-19.580000000000002,-68.92,-0.2938,0.2958,0.6157,0.6685,0.136,0.904,0.0
2025-11-06 18:37:40.281,312.58,0.28500000000000003,0.545,-0.61,-0.483,-1.8860000000000001,-0.096,23.0,-19.14,-68.89,-0.2821,0.2963,0.6167,0.6724,0.45,0.888,0.031
2025-11-06 18:37:40.281,312.585,0.312,0.35000000000000003,-0.389,-0.682,-1.835,-0.117,23.0,-19.14,-68.89,-0.268,0.2995,0.6158,0.6775,0.626,0.837,0.054
2025-11-06 18:37:40.281,312.59,0.354,0.132,-0.17,-0.769,-1.7810000000000001,-0.137,23.0,-19.14,-68.89,-0.254,0.3045,0.6136,0.6827000000000001,0.685,0.785,0.075
2025-11-06 18:37:40.281,312.595,0.39,-0.041,0.013000000000000001,-0.79,-1.754,-0.153,22.94,-20.11,-67.58,-0.2412,0.3103,0.6107,0.6874,0.678,0.76,0.091
2025-11-06 18:37:40.281,312.6,0.401,-0.126,0.17400000000000002,-0.736,-1.806,-0.169,22.94,-20.11,-67.58,-0.2306,0.3151,0.608,0.6912,0.6,0.8160000000000001,0.106
2025-11-06 18:37:40.281,312.605,0.334,-0.148,0.274,-0.655,-1.9120000000000001,-0.202,22.330000000000002,-18.67,-68.51,-0.2228,0.3181,0.6056,0.6944,0.501,0.925,0.138
2025-11-06 18:37:40.281,312.61,0.182,-0.14300000000000002,0.306,-0.671,-1.957,-0.219,22.330000000000002,-18.67,-68.51,-0.21580000000000002,0.32070000000000004,0.603,0.6977,0.502,0.974,0.153
2025-11-06 18:37:40.281,312.615,-0.049,-0.069,0.295,-0.674,-1.883,-0.244,22.330000000000002,-18.67,-68.51,-0.20900000000000002,0.3229,0.5997,0.7016,0.49,0.902,0.17300000000000001
2025-11-06 18:37:40.281,312.62,-0.313,0.069,0.25,-0.686,-1.72,-0.276,21.95,-19.78,-68.16,-0.2018,0.3247,0.5952000000000001,0.7067,0.485,0.742,0.197
2025-11-06 18:37:40.281,312.625,-0.619,0.308,0.139,-0.633,-1.565,-0.26,21.95,-19.78,-68.16,-0.1953,0.32580000000000003,0.5904,0.7120000000000001,0.41500000000000004,0.592,0.171
2025-11-06 18:37:40.281,312.63,-0.651,0.436,0.076,-0.579,-1.571,-0.183,22.04,-19.38,-68.19,-0.1912,0.3276,0.5873,0.7149,0.34900000000000003,0.602,0.088
2025-11-06 18:37:40.281,312.635,-0.606,0.55,0.038,-0.546,-1.5290000000000001,-0.16,22.04,-19.38,-68.19,-0.1879,0.3292,0.5849,0.7170000000000001,0.307,0.5640000000000001,0.062
2025-11-06 18:37:40.281,312.64,-0.55,0.671,0.003,-0.511,-1.439,-0.17500000000000002,21.8,-21.36,-68.25,-0.1844,0.3297,0.5826,0.7195,0.264,0.47500000000000003,0.07200000000000001
2025-11-06 18:37:40.281,312.645,-0.49,0.8200000000000001,-0.042,-0.39,-1.313,-0.198,21.8,-21.36,-68.25,-0.1819,0.3271,0.5811000000000001,0.7226,0.138,0.352,0.089
2025-11-06 18:37:40.281,312.65,-0.4,1.0210000000000001,-0.124,-0.209,-1.176,-0.219,21.8,-21.36,-68.25,-0.1819,0.3199,0.5810000000000001,0.7258,-0.037,0.215,0.101
2025-11-06 18:37:40.281,312.655,-0.358,1.097,-0.158,-0.07100000000000001,-1.085,-0.224,21.71,-19.43,-68.60000000000001,-0.18480000000000002,0.3098,0.5820000000000001,0.7286,-0.161,0.122,0.096
2025-11-06 18:37:40.281,312.66,-0.321,1.1520000000000001,-0.189,0.018000000000000002,-1.031,-0.20600000000000002,21.71,-19.43,-68.60000000000001,-0.1902,0.29860000000000003,0.5841000000000001,0.7302000000000001,-0.231,0.066,0.069
2025-11-06 18:37:40.283,312.665,-0.28600000000000003,1.22,-0.229,0.082,-1.006,-0.177,21.51,-19.61,-67.61,-0.1973,0.2872,0.5873,0.7304,-0.27,0.036000000000000004,0.033
2025-11-06 18:37:40.283,312.67,-0.23700000000000002,1.299,-0.272,0.179,-0.9590000000000001,-0.17,21.51,-19.61,-67.61,-0.20720000000000002,0.2742,0.5913,0.7295,-0.337,-0.014,0.021
2025-11-06 18:37:40.283,312.675,-0.215,1.3,-0.29,0.255,-0.918,-0.159,21.51,-19.61,-67.61,-0.2189,0.26030000000000003,0.5957,0.7275,-0.377,-0.06,0.006
2025-11-06 18:37:40.283,312.68,-0.23,1.223,-0.292,0.303,-0.901,-0.126,21.740000000000002,-19.35,-67.9,-0.23070000000000002,0.24630000000000002,0.6013000000000001,0.7242000000000001,-0.387,-0.08,-0.028
2025-11-06 18:37:40.283,312.685,-0.23600000000000002,1.117,-0.301,0.343,-0.893,-0.078,21.740000000000002,-19.35,-67.9,-0.24150000000000002,0.23220000000000002,0.6083000000000001,0.7194,-0.388,-0.091,-0.074
2025-11-06 18:37:40.283,312.69,-0.199,1.0090000000000001,-0.317,0.371,-0.887,-0.044,22.06,-21.13,-67.64,-0.2513,0.21830000000000002,0.6163000000000001,0.7136,-0.378,-0.098,-0.10200000000000001
2025-11-06 18:37:40.283,312.695,-0.108,0.8290000000000001,-0.35100000000000003,0.364,-0.879,-0.047,22.06,-21.13,-67.64,-0.2604,0.2058,0.6233000000000001,0.7079000000000001,-0.335,-0.107,-0.092
2025-11-06 18:37:40.283,312.7,-0.014,0.601,-0.368,0.334,-0.875,-0.093,22.06,-21.13,-67.64,-0.2701,0.1962,0.6273000000000001,0.7034,-0.273,-0.111,-0.042
2025-11-06 18:37:40.283,312.705,0.041,0.368,-0.376,0.299,-0.871,-0.151,21.86,-19.29,-67.55,-0.2812,0.19,0.6279,0.7003,-0.212,-0.113,0.013000000000000001
2025-11-06 18:37:40.283,312.71,0.09,0.108,-0.367,0.255,-0.865,-0.197,21.86,-19.29,-67.55,-0.2928,0.18730000000000002,0.6256,0.6982,-0.149,-0.117,0.052000000000000005
2025-11-06 18:37:40.283,312.715,0.13,-0.137,-0.343,0.20500000000000002,-0.861,-0.244,22.06,-19.43,-67.52,-0.30510000000000004,0.1882,0.6206,0.6973,-0.08600000000000001,-0.11900000000000001,0.088
2025-11-06 18:37:40.283,312.72,0.169,-0.424,-0.299,0.14300000000000002,-0.854,-0.28300000000000003,22.06,-19.43,-67.52,-0.3173,0.1928,0.6131,0.6972,-0.018000000000000002,-0.123,0.113
2025-11-06 18:37:40.283,312.725,0.17400000000000002,-0.547,-0.265,0.109,-0.849,-0.299,22.06,-19.43,-67.52,-0.3285,0.1988,0.6048,0.6975,0.017,-0.125,0.113
2025-11-06 18:37:40.283,312.73,0.171,-0.602,-0.233,0.074,-0.841,-0.309,22.240000000000002,-19.29,-67.02,-0.3386,0.2059,0.5962000000000001,0.6981,0.049,-0.131,0.108
2025-11-06 18:37:40.283,312.735,0.167,-0.619,-0.20500000000000002,0.049,-0.845,-0.316,22.240000000000002,-19.29,-67.02,-0.34740000000000004,0.2134,0.5876,0.6988000000000001,0.068,-0.126,0.1
2025-11-06 18:37:40.283,312.74,0.14300000000000002,-0.605,-0.178,-0.003,-0.863,-0.319,21.98,-19.05,-67.49,-0.35450000000000004,0.22260000000000002,0.5788,0.6997,0.112,-0.106,0.091
2025-11-06 18:37:40.283,312.745,0.115,-0.534,-0.158,-0.046,-0.885,-0.322,21.98,-19.05,-67.49,-0.36000000000000004,0.23240000000000002,0.5702,0.7007,0.14100000000000001,-0.082,0.082
2025-11-06 18:37:40.283,312.75,0.094,-0.47300000000000003,-0.148,-0.075,-0.901,-0.319,22.330000000000002,-18.85,-67.87,-0.3643,0.24230000000000002,0.5622,0.7017,0.155,-0.066,0.07
2025-11-06 18:37:40.283,312.755,0.07,-0.41300000000000003,-0.14200000000000002,-0.107,-0.919,-0.312,22.330000000000002,-18.85,-67.87,-0.3672,0.2524,0.5547000000000001,0.7026,0.17200000000000001,-0.047,0.055
2025-11-06 18:37:40.283,312.76,0.043000000000000003,-0.35000000000000003,-0.14200000000000002,-0.129,-0.929,-0.303,22.330000000000002,-18.85,-67.87,-0.36920000000000003,0.2622,0.5478000000000001,0.7033,0.176,-0.036000000000000004,0.041
2025-11-06 18:37:40.283,312.765,0.018000000000000002,-0.277,-0.156,-0.145,-0.928,-0.28200000000000003,22.62,-18.62,-67.93,-0.37010000000000004,0.2716,0.542,0.7038,0.17500000000000002,-0.036000000000000004,0.017
2025-11-06 18:37:40.283,312.77,0.007,-0.195,-0.17500000000000002,-0.148,-0.926,-0.272,22.62,-18.62,-67.93,-0.3705,0.28,0.537,0.7041000000000001,0.162,-0.038,0.005
2025-11-06 18:37:40.283,312.775,0.012,-0.137,-0.191,-0.155,-0.931,-0.261,22.8,-18.73,-68.37,-0.3705,0.2879,0.5327000000000001,0.7042,0.155,-0.033,-0.006
2025-11-06 18:37:40.283,312.78,0.023,-0.08600000000000001,-0.20600000000000002,-0.16,-0.9430000000000001,-0.259,22.8,-18.73,-68.37,-0.37010000000000004,0.29510000000000003,0.5289,0.7042,0.146,-0.021,-0.007
2025-11-06 18:37:40.283,312.785,0.032,-0.046,-0.214,-0.161,-0.9590000000000001,-0.259,22.8,-18.73,-68.37,-0.36960000000000004,0.3014,0.5258,0.7042,0.135,-0.005,-0.006
2025-11-06 18:37:40.283,312.79,0.026000000000000002,-0.034,-0.232,-0.163,-0.985,-0.262,22.97,-18.67,-68.48,-0.369,0.307,0.523,0.7041000000000001,0.126,0.02,-0.002
2025-11-06 18:37:40.283,312.795,-0.017,-0.038,-0.24,-0.154,-0.993,-0.266,22.97,-18.67,-68.48,-0.36860000000000004,0.3116,0.5206000000000001,0.7041000000000001,0.108,0.028,0.001
2025-11-06 18:37:40.283,312.8,-0.077,-0.034,-0.25,-0.14400000000000002,-0.991,-0.273,23.2,-18.97,-67.52,-0.3683,0.315,0.5184,0.7044,0.091,0.027,0.009000000000000001
2025-11-06 18:37:40.283,312.805,-0.13,-0.032,-0.264,-0.13,-0.988,-0.276,23.2,-18.97,-67.52,-0.3682,0.3175,0.5165000000000001,0.7047,0.07100000000000001,0.024,0.011
2025-11-06 18:37:40.283,312.81,-0.178,-0.021,-0.274,-0.106,-0.973,-0.261,23.2,-18.97,-67.52,-0.3684,0.319,0.5155000000000001,0.7047,0.044,0.01,-0.003
2025-11-06 18:37:40.283,312.815,-0.226,0.026000000000000002,-0.28300000000000003,-0.076,-0.9400000000000001,-0.247,23.12,-17.740000000000002,-68.60000000000001,-0.3689,0.3195,0.5152,0.7044,0.013000000000000001,-0.021,-0.017
2025-11-06 18:37:40.283,312.82,-0.227,0.044,-0.278,-0.075,-0.919,-0.246,23.12,-17.740000000000002,-68.60000000000001,-0.3693,0.31970000000000004,0.5149,0.7043,0.012,-0.043000000000000003,-0.018000000000000002
2025-11-06 18:37:40.283,312.825,-0.22,0.052000000000000005,-0.27,-0.084,-0.901,-0.23800000000000002,23.32,-20.72,-68.4,-0.36960000000000004,0.3205,0.5144000000000001,0.7042,0.02,-0.06,-0.027
2025-11-06 18:37:40.283,312.83,-0.21,0.065,-0.258,-0.076,-0.874,-0.225,23.32,-20.72,-68.4,-0.3699,0.32120000000000004,0.5142,0.7039000000000001,0.011,-0.088,-0.039
2025-11-06 18:37:40.283,312.835,-0.195,0.081,-0.245,-0.067,-0.855,-0.216,23.73,-19.35,-68.19,-0.37020000000000003,0.3216,0.5144000000000001,0.7034,0.001,-0.107,-0.048
2025-11-06 18:37:40.283,312.84,-0.183,0.08,-0.23,-0.068,-0.858,-0.216,23.73,-19.35,-68.19,-0.3705,0.3221,0.5146000000000001,0.7029000000000001,0.003,-0.10400000000000001,-0.047
2025-11-06 18:37:40.283,312.845,-0.183,0.068,-0.213,-0.075,-0.871,-0.212,23.73,-19.35,-68.19,-0.37060000000000004,0.3231,0.5147,0.7022,0.01,-0.091,-0.049
2025-11-06 18:37:40.283,312.85,-0.188,0.049,-0.196,-0.076,-0.893,-0.21,23.96,-17.59,-68.98,-0.3708,0.3241,0.515,0.7014,0.01,-0.07,-0.05
2025-11-06 18:37:40.283,312.855,-0.20400000000000001,0.011,-0.177,-0.07200000000000001,-0.911,-0.209,23.96,-17.59,-68.98,-0.371,0.3251,0.5155000000000001,0.7005,0.005,-0.052000000000000005,-0.048
2025-11-06 18:37:40.283,312.86,-0.227,-0.029,-0.159,-0.065,-0.9480000000000001,-0.20700000000000002,23.91,-17.650000000000002,-68.22,-0.3714,0.3261,0.5163,0.6993,0.0,-0.016,-0.047
2025-11-06 18:37:40.283,312.865,-0.241,-0.057,-0.153,-0.055,-0.98,-0.21,23.91,-17.650000000000002,-68.22,-0.37210000000000004,0.3266,0.5173,0.6979000000000001,-0.008,0.015,-0.041
2025-11-06 18:37:40.283,312.87,-0.25,-0.061,-0.157,-0.059000000000000004,-1.0170000000000001,-0.20400000000000001,23.91,-17.650000000000002,-68.22,-0.37270000000000003,0.3276,0.5184,0.6963,-0.003,0.05,-0.044
2025-11-06 18:37:40.283,312.875,-0.245,-0.047,-0.166,-0.047,-1.045,-0.195,23.580000000000002,-18.53,-68.98,-0.3734,0.32830000000000004,0.5201,0.6943,-0.013000000000000001,0.078,-0.049
2025-11-06 18:37:40.283,312.88,-0.23500000000000001,-0.021,-0.177,-0.033,-1.067,-0.184,23.580000000000002,-18.53,-68.98,-0.3743,0.3289,0.5223,0.6919000000000001,-0.023,0.098,-0.055
2025-11-06 18:37:40.286,312.885,-0.217,0.017,-0.202,-0.036000000000000004,-1.087,-0.167,23.79,-17.39,-68.66,-0.375,0.32980000000000004,0.5248,0.6892,-0.018000000000000002,0.117,-0.065
2025-11-06 18:37:40.286,312.89,-0.202,0.032,-0.215,-0.037,-1.097,-0.161,23.79,-17.39,-68.66,-0.3754,0.3307,0.5273,0.6866,-0.014,0.125,-0.064
2025-11-06 18:37:40.286,312.895,-0.192,0.04,-0.229,-0.041,-1.103,-0.169,23.79,-17.39,-68.66,-0.3758,0.3315,0.5294,0.6844,-0.007,0.129,-0.052000000000000005
2025-11-06 18:37:40.286,312.9,-0.189,0.032,-0.23900000000000002,-0.029,-1.097,-0.181,23.64,-17.59,-68.28,-0.3765,0.3317,0.5312,0.6826,-0.016,0.122,-0.035
2025-11-06 18:37:40.286,312.905,-0.191,-0.002,-0.25,-0.037,-1.071,-0.189,23.64,-17.59,-68.28,-0.3771,0.33180000000000004,0.5324,0.6812,-0.006,0.095,-0.024
2025-11-06 18:37:40.286,312.91,-0.189,-0.065,-0.266,-0.04,-1.046,-0.199,23.76,-17.86,-68.48,-0.37770000000000004,0.33190000000000003,0.533,0.6804,-0.001,0.069,-0.012
2025-11-06 18:37:40.286,312.915,-0.178,-0.112,-0.279,-0.04,-1.029,-0.215,23.76,-17.86,-68.48,-0.3785,0.3316,0.5331,0.68,0.0,0.052000000000000005,0.003
2025-11-06 18:37:40.286,312.92,-0.17400000000000002,-0.164,-0.28500000000000003,-0.032,-1.0210000000000001,-0.234,23.990000000000002,-17.56,-68.86,-0.37970000000000004,0.3309,0.5326000000000001,0.68,-0.006,0.045,0.021
2025-11-06 18:37:40.286,312.925,-0.177,-0.20500000000000002,-0.281,-0.021,-1.01,-0.253,23.990000000000002,-17.56,-68.86,-0.3814,0.3297,0.5318,0.6803,-0.014,0.034,0.037
2025-11-06 18:37:40.286,312.93,-0.17400000000000002,-0.23700000000000002,-0.26,-0.023,-0.991,-0.259,23.990000000000002,-17.56,-68.86,-0.383,0.3286,0.5307000000000001,0.6808000000000001,-0.01,0.016,0.038
2025-11-06 18:37:40.286,312.935,-0.163,-0.232,-0.244,-0.035,-0.966,-0.251,24.96,-17.830000000000002,-69.42,-0.3841,0.328,0.5295,0.6814,0.002,-0.007,0.027
2025-11-06 18:37:40.286,312.94,-0.155,-0.211,-0.23600000000000002,-0.032,-0.9470000000000001,-0.23800000000000002,24.96,-17.830000000000002,-69.42,-0.3851,0.3275,0.5287000000000001,0.6817000000000001,0.0,-0.026000000000000002,0.012
2025-11-06 18:37:40.286,312.945,-0.151,-0.17300000000000001,-0.229,-0.039,-0.936,-0.219,24.080000000000002,-17.240000000000002,-68.75,-0.3856,0.3276,0.5283,0.6817000000000001,0.007,-0.036000000000000004,-0.007
2025-11-06 18:37:40.286,312.95,-0.139,-0.126,-0.221,-0.064,-0.932,-0.196,24.080000000000002,-17.240000000000002,-68.75,-0.385,0.32880000000000004,0.5282,0.6816,0.03,-0.041,-0.03
2025-11-06 18:37:40.286,312.955,-0.099,-0.055,-0.215,-0.073,-0.933,-0.167,24.080000000000002,-17.240000000000002,-68.75,-0.38380000000000003,0.3306,0.5288,0.6808000000000001,0.036000000000000004,-0.04,-0.055
2025-11-06 18:37:40.286,312.96,-0.069,0.008,-0.20800000000000002,-0.073,-0.936,-0.151,24.46,-17.5,-69.07000000000001,-0.3825,0.3326,0.53,0.6797000000000001,0.033,-0.038,-0.067
2025-11-06 18:37:40.286,312.965,-0.033,0.042,-0.197,-0.077,-0.93,-0.139,24.46,-17.5,-69.07000000000001,-0.3808,0.3347,0.5314,0.6785,0.035,-0.046,-0.073
2025-11-06 18:37:40.286,312.97,-0.006,0.061,-0.184,-0.068,-0.914,-0.14300000000000002,24.72,-17.36,-68.86,-0.3796,0.33630000000000004,0.5327000000000001,0.6774,0.024,-0.062,-0.064
2025-11-06 18:37:40.286,312.975,0.011,0.078,-0.163,-0.073,-0.924,-0.14400000000000002,24.72,-17.36,-68.86,-0.3783,0.33790000000000003,0.5338,0.6765,0.026000000000000002,-0.053,-0.058
2025-11-06 18:37:40.286,312.98,0.024,0.07100000000000001,-0.145,-0.058,-0.918,-0.159,24.72,-17.36,-68.86,-0.3776,0.3387,0.5346000000000001,0.6758000000000001,0.011,-0.059000000000000004,-0.04
2025-11-06 18:37:40.286,312.985,0.001,0.039,-0.125,-0.008,-0.84,-0.189,24.52,-17.240000000000002,-68.13,-0.3791,0.3371,0.5347000000000001,0.6756,-0.037,-0.138,-0.01
2025-11-06 18:37:40.286,312.99,-0.003,0.006,-0.1,-0.026000000000000002,-0.873,-0.17300000000000001,24.52,-17.240000000000002,-68.13,-0.37970000000000004,0.33690000000000003,0.5351,0.6751,-0.016,-0.105,-0.027
2025-11-06 18:37:40.286,312.995,0.018000000000000002,-0.005,-0.095,-0.036000000000000004,-0.93,-0.158,24.46,-18.240000000000002,-69.51,-0.3796,0.33740000000000003,0.5362,0.6741,-0.004,-0.049,-0.04
2025-11-06 18:37:40.286,313.0,0.009000000000000001,-0.015,-0.105,-0.031,-0.991,-0.17300000000000001,24.46,-18.240000000000002,-69.51,-0.3799,0.3376,0.5371,0.6731,-0.008,0.011,-0.022
2025-11-06 18:37:40.286,313.005,-0.021,-0.021,-0.117,-0.026000000000000002,-1.047,-0.182,24.46,-18.240000000000002,-69.51,-0.3803,0.3377,0.5379,0.6721,-0.011,0.067,-0.011
2025-11-06 18:37:40.286,313.01,-0.037,-0.016,-0.133,-0.021,-1.084,-0.177,24.52,-17.8,-69.13,-0.3808,0.3378,0.5391,0.6709,-0.013000000000000001,0.10400000000000001,-0.013000000000000001
2025-11-06 18:37:40.286,313.015,-0.043000000000000003,-0.007,-0.14400000000000002,-0.021,-1.101,-0.181,24.52,-17.8,-69.13,-0.38130000000000003,0.3378,0.5401,0.6697000000000001,-0.011,0.12,-0.007
2025-11-06 18:37:40.286,313.02,-0.055,0.006,-0.148,-0.02,-1.107,-0.195,24.34,-17.59,-69.16,-0.382,0.3375,0.5408000000000001,0.669,-0.011,0.125,0.007
2025-11-06 18:37:40.286,313.025,-0.07100000000000001,0.002,-0.153,-0.03,-1.1,-0.212,24.34,-17.59,-69.16,-0.3824,0.3371,0.5408000000000001,0.6689,0.0,0.11800000000000001,0.024
2025-11-06 18:37:40.286,313.03,-0.113,-0.025,-0.159,-0.03,-1.071,-0.216,24.400000000000002,-17.59,-69.48,-0.383,0.3365,0.5405,0.6691,0.001,0.089,0.027
2025-11-06 18:37:40.286,313.035,-0.14100000000000001,-0.025,-0.163,-0.026000000000000002,-1.032,-0.21,24.400000000000002,-17.59,-69.48,-0.38370000000000004,0.33590000000000003,0.5401,0.6693,-0.001,0.051000000000000004,0.02
2025-11-06 18:37:40.286,313.04,-0.164,-0.019,-0.179,-0.023,-0.995,-0.21,24.400000000000002,-17.59,-69.48,-0.3845,0.3352,0.5396000000000001,0.6697000000000001,-0.003,0.014,0.018000000000000002
2025-11-06 18:37:40.286,313.045,-0.181,-0.011,-0.192,-0.012,-0.961,-0.227,24.490000000000002,-17.42,-67.93,-0.3859,0.3337,0.5386000000000001,0.6704,-0.013000000000000001,-0.018000000000000002,0.03
2025-11-06 18:37:40.286,313.05,-0.189,-0.019,-0.203,0.0,-0.931,-0.24,24.490000000000002,-17.42,-67.93,-0.38780000000000003,0.3317,0.5373,0.6713,-0.023,-0.048,0.038
2025-11-06 18:37:40.286,313.055,-0.193,-0.022,-0.202,0.005,-0.921,-0.23600000000000002,24.84,-17.740000000000002,-68.89,-0.38970000000000005,0.32980000000000004,0.5362,0.672,-0.025,-0.057,0.03
2025-11-06 18:37:40.286,313.06,-0.194,-0.022,-0.198,0.022,-0.913,-0.227,24.84,-17.740000000000002,-68.89,-0.39180000000000004,0.3277,0.5357000000000001,0.6723,-0.038,-0.064,0.016
2025-11-06 18:37:40.286,313.065,-0.2,-0.018000000000000002,-0.192,0.025,-0.908,-0.212,24.84,-17.740000000000002,-68.89,-0.3935,0.3259,0.5358,0.6721,-0.036000000000000004,-0.068,-0.001
2025-11-06 18:37:40.286,313.07,-0.202,-0.002,-0.181,0.018000000000000002,-0.911,-0.198,25.13,-18.0,-69.07000000000001,-0.3947,0.3247,0.5361,0.6717000000000001,-0.026000000000000002,-0.064,-0.015
2025-11-06 18:37:40.286,313.075,-0.184,0.022,-0.169,0.007,-0.919,-0.195,25.13,-18.0,-69.07000000000001,-0.39530000000000004,0.324,0.5364,0.6714,-0.012,-0.057,-0.019
2025-11-06 18:37:40.286,313.08,-0.169,0.024,-0.157,0.0,-0.926,-0.197,25.16,-17.3,-69.19,-0.3957,0.3236,0.5366000000000001,0.6713,-0.004,-0.05,-0.017
2025-11-06 18:37:40.286,313.085,-0.161,0.024,-0.148,-0.003,-0.934,-0.19,25.16,-17.3,-69.19,-0.3957,0.3234,0.5369,0.6711,0.0,-0.042,-0.023
2025-11-06 18:37:40.286,313.09,-0.168,0.021,-0.14400000000000002,-0.004,-0.937,-0.181,25.16,-17.3,-69.19,-0.3956,0.3235,0.5375,0.6706000000000001,0.002,-0.039,-0.031
2025-11-06 18:37:40.286,313.095,-0.201,0.022,-0.145,0.011,-0.9410000000000001,-0.187,25.19,-17.150000000000002,-69.33,-0.396,0.323,0.5381,0.6702,-0.012,-0.035,-0.025
2025-11-06 18:37:40.286,313.1,-0.212,0.005,-0.14200000000000002,0.012,-0.9470000000000001,-0.18,25.19,-17.150000000000002,-69.33,-0.39630000000000004,0.32270000000000004,0.5388000000000001,0.6695,-0.011,-0.029,-0.031
2025-11-06 18:37:40.286,313.105,-0.213,-0.009000000000000001,-0.14400000000000002,0.014,-0.9530000000000001,-0.184,25.43,-17.36,-69.04,-0.3967,0.32230000000000003,0.5395,0.669,-0.011,-0.024,-0.026000000000000002
2025-11-06 18:37:40.286,313.11,-0.216,-0.024,-0.148,0.022,-0.9590000000000001,-0.196,25.43,-17.36,-69.04,-0.3975,0.3216,0.5398000000000001,0.6686000000000001,-0.017,-0.018000000000000002,-0.013000000000000001
2025-11-06 18:37:40.287,313.115,-0.219,-0.046,-0.149,0.027,-0.962,-0.203,25.22,-17.830000000000002,-69.42,-0.3985,0.32080000000000003,0.54,0.6682,-0.019,-0.015,-0.007
2025-11-06 18:37:40.287,313.12,-0.212,-0.079,-0.155,0.028,-0.964,-0.214,25.22,-17.830000000000002,-69.42,-0.3996,0.3199,0.5398000000000001,0.6681,-0.018000000000000002,-0.013000000000000001,0.001
2025-11-06 18:37:40.287,313.125,-0.221,-0.115,-0.163,0.03,-0.964,-0.216,25.22,-17.830000000000002,-69.42,-0.40090000000000003,0.3191,0.5396000000000001,0.668,-0.017,-0.012,0.002
2025-11-06 18:37:40.287,313.13,-0.23500000000000001,-0.156,-0.17,0.031,-0.967,-0.219,25.310000000000002,-17.48,-68.81,-0.4021,0.3183,0.5393,0.6678000000000001,-0.016,-0.008,0.004
2025-11-06 18:37:40.287,313.135,-0.254,-0.191,-0.178,0.028,-0.968,-0.226,25.310000000000002,-17.48,-68.81,-0.40340000000000004,0.3176,0.5387000000000001,0.6679,-0.011,-0.008,0.008
2025-11-06 18:37:40.287,313.14,-0.274,-0.219,-0.188,0.024,-0.972,-0.23700000000000002,25.16,-16.740000000000002,-70.24,-0.4048,0.317,0.5376000000000001,0.6681,-0.006,-0.003,0.017
2025-11-06 18:37:40.287,313.145,-0.301,-0.259,-0.196,0.016,-0.977,-0.252,25.16,-16.740000000000002,-70.24,-0.4061,0.3165,0.5361,0.6688000000000001,0.002,0.002,0.027
2025-11-06 18:37:40.287,313.15,-0.308,-0.28500000000000003,-0.203,0.008,-0.975,-0.27,25.16,-16.740000000000002,-70.24,-0.4076,0.31620000000000004,0.534,0.6698000000000001,0.01,0.001,0.041
2025-11-06 18:37:40.287,313.155,-0.301,-0.306,-0.21,0.004,-0.966,-0.289,25.05,-17.04,-70.33,-0.4092,0.31570000000000004,0.5313,0.6712,0.014,-0.006,0.054
2025-11-06 18:37:40.287,313.16,-0.28700000000000003,-0.324,-0.219,-0.004,-0.9570000000000001,-0.297,25.05,-17.04,-70.33,-0.4108,0.3154,0.5283,0.6727000000000001,0.021,-0.013000000000000001,0.056
2025-11-06 18:37:40.287,313.165,-0.263,-0.332,-0.227,-0.018000000000000002,-0.9460000000000001,-0.303,25.310000000000002,-16.95,-69.92,-0.4121,0.3155,0.5251,0.6743,0.034,-0.023,0.054
2025-11-06 18:37:40.287,313.17,-0.246,-0.328,-0.23600000000000002,-0.031,-0.9390000000000001,-0.312,25.310000000000002,-16.95,-69.92,-0.4133,0.3159,0.5216000000000001,0.6762,0.043000000000000003,-0.028,0.057
2025-11-06 18:37:40.287,313.175,-0.231,-0.329,-0.24,-0.034,-0.9390000000000001,-0.322,25.310000000000002,-16.95,-69.92,-0.41450000000000004,0.31620000000000004,0.518,0.678,0.042,-0.026000000000000002,0.06
2025-11-06 18:37:40.287,313.18,-0.213,-0.322,-0.241,-0.03,-0.937,-0.327,25.6,-17.01,-70.24,-0.4157,0.3163,0.5147,0.6797000000000001,0.036000000000000004,-0.027,0.058
2025-11-06 18:37:40.287,313.185,-0.194,-0.313,-0.23600000000000002,-0.026000000000000002,-0.933,-0.318,25.6,-17.01,-70.24,-0.4168,0.3164,0.512,0.681,0.03,-0.029,0.043000000000000003
2025-11-06 18:37:40.287,313.19,-0.17200000000000001,-0.293,-0.23500000000000001,-0.02,-0.931,-0.308,25.63,-17.36,-69.8,-0.4178,0.3165,0.5099,0.6819000000000001,0.022,-0.03,0.029
2025-11-06 18:37:40.287,313.195,-0.147,-0.26,-0.23,-0.017,-0.93,-0.306,25.63,-17.36,-69.8,-0.4188,0.3165,0.5082,0.6826,0.018000000000000002,-0.03,0.023
2025-11-06 18:37:40.287,313.2,-0.125,-0.24,-0.225,-0.015,-0.928,-0.307,25.810000000000002,-18.62,-70.35000000000001,-0.4197,0.3165,0.5066,0.6833,0.015,-0.03,0.021
2025-11-06 18:37:40.287,313.205,-0.106,-0.217,-0.221,-0.009000000000000001,-0.928,-0.3,25.810000000000002,-18.62,-70.35000000000001,-0.42050000000000004,0.3164,0.5055000000000001,0.6836,0.008,-0.029,0.011
2025-11-06 18:37:40.287,313.21,-0.094,-0.201,-0.214,-0.005,-0.925,-0.29,25.810000000000002,-18.62,-70.35000000000001,-0.4212,0.3164,0.5049,0.6836,0.005,-0.032,0.0
2025-11-06 18:37:40.287,313.215,-0.089,-0.186,-0.20700000000000002,-0.003,-0.927,-0.28300000000000003,25.69,-17.04,-70.44,-0.4219,0.3165,0.5045000000000001,0.6835,0.003,-0.03,-0.007
2025-11-06 18:37:40.287,313.22,-0.091,-0.189,-0.20700000000000002,-0.009000000000000001,-0.927,-0.28600000000000003,25.69,-17.04,-70.44,-0.4224,0.3168,0.504,0.6834,0.009000000000000001,-0.03,-0.005
2025-11-06 18:37:40.287,313.225,-0.089,-0.192,-0.202,-0.014,-0.928,-0.28700000000000003,26.57,-17.77,-70.68,-0.4229,0.31720000000000004,0.5033,0.6834,0.013000000000000001,-0.029,-0.005
2025-11-06 18:37:40.287,313.23,-0.091,-0.188,-0.196,-0.013000000000000001,-0.932,-0.28200000000000003,26.57,-17.77,-70.68,-0.4234,0.31770000000000004,0.5029,0.6832,0.012,-0.024,-0.01
2025-11-06 18:37:40.287,313.235,-0.092,-0.178,-0.189,-0.009000000000000001,-0.932,-0.275,26.57,-17.77,-70.68,-0.4238,0.31820000000000004,0.5028,0.6828000000000001,0.007,-0.024,-0.017
2025-11-06 18:37:40.287,313.24,-0.078,-0.165,-0.19,0.0,-0.931,-0.276,26.95,-17.04,-70.62,-0.4243,0.3183,0.5029,0.6823,-0.001,-0.025,-0.015
2025-11-06 18:37:40.287,313.245,-0.068,-0.168,-0.186,0.015,-0.929,-0.281,26.95,-17.04,-70.62,-0.42510000000000003,0.3178,0.5032,0.6818000000000001,-0.014,-0.027,-0.01
2025-11-06 18:37:40.287,313.25,-0.063,-0.185,-0.176,0.02,-0.926,-0.28500000000000003,26.04,-16.6,-70.62,-0.42600000000000005,0.3171,0.5034000000000001,0.6815,-0.017,-0.031,-0.007
2025-11-06 18:37:40.287,313.255,-0.056,-0.197,-0.168,0.02,-0.924,-0.289,26.04,-16.6,-70.62,-0.4269,0.3164,0.5034000000000001,0.6812,-0.015,-0.032,-0.003
2025-11-06 18:37:40.287,313.26,-0.061,-0.198,-0.164,0.034,-0.924,-0.295,26.04,-16.6,-70.62,-0.42810000000000004,0.3153,0.5035000000000001,0.6809000000000001,-0.026000000000000002,-0.031,0.001
2025-11-06 18:37:40.287,313.265,-0.081,-0.187,-0.157,0.051000000000000004,-0.924,-0.295,26.54,-19.76,-70.94,-0.4295,0.3136,0.5039,0.6805,-0.039,-0.031,0.0
2025-11-06 18:37:40.287,313.27,-0.098,-0.171,-0.153,0.061,-0.92,-0.289,26.54,-19.76,-70.94,-0.4308,0.3118,0.5046,0.6799000000000001,-0.045,-0.035,-0.007
2025-11-06 18:37:40.287,313.275,-0.108,-0.158,-0.155,0.07,-0.919,-0.28500000000000003,26.19,-16.45,-70.94,-0.43220000000000003,0.3099,0.5056,0.6792,-0.048,-0.035,-0.011
2025-11-06 18:37:40.287,313.28,-0.116,-0.151,-0.166,0.07100000000000001,-0.92,-0.28600000000000003,26.19,-16.45,-70.94,-0.43360000000000004,0.30810000000000004,0.5064000000000001,0.6785,-0.045,-0.034,-0.011
2025-11-06 18:37:40.287,313.285,-0.116,-0.157,-0.181,0.077,-0.917,-0.293,26.3,-17.330000000000002,-71.23,-0.43510000000000004,0.30610000000000004,0.5071,0.678,-0.046,-0.037,-0.005
2025-11-06 18:37:40.287,313.29,-0.105,-0.16,-0.196,0.089,-0.916,-0.297,26.3,-17.330000000000002,-71.23,-0.4369,0.3039,0.5078,0.6773,-0.052000000000000005,-0.037,-0.002
2025-11-06 18:37:40.287,313.295,-0.084,-0.166,-0.214,0.105,-0.913,-0.302,26.3,-17.330000000000002,-71.23,-0.4389,0.3013,0.5086,0.6766,-0.061,-0.039,0.001
2025-11-06 18:37:40.287,313.3,-0.061,-0.17500000000000002,-0.229,0.11800000000000001,-0.919,-0.309,26.86,-16.42,-71.32000000000001,-0.44110000000000005,0.2984,0.5094000000000001,0.6758000000000001,-0.067,-0.033,0.006
2025-11-06 18:37:40.287,313.305,-0.052000000000000005,-0.189,-0.246,0.132,-0.92,-0.315,26.86,-16.42,-71.32000000000001,-0.4436,0.2953,0.5103,0.6749,-0.073,-0.03,0.01
2025-11-06 18:37:40.287,313.31,-0.048,-0.21,-0.269,0.14,-0.926,-0.312,26.8,-16.69,-71.11,-0.4459,0.2923,0.5114000000000001,0.6738000000000001,-0.073,-0.024,0.005
2025-11-06 18:37:40.287,313.315,-0.048,-0.219,-0.28,0.139,-0.934,-0.305,26.8,-16.69,-71.11,-0.44780000000000003,0.2898,0.5126000000000001,0.6727000000000001,-0.065,-0.015,-0.001
2025-11-06 18:37:40.287,313.32,-0.046,-0.228,-0.289,0.135,-0.9430000000000001,-0.297,26.8,-16.69,-71.11,-0.44930000000000003,0.2878,0.514,0.6715,-0.055,-0.006,-0.009000000000000001
2025-11-06 18:37:40.287,313.325,-0.047,-0.23600000000000002,-0.296,0.128,-0.9490000000000001,-0.292,27.21,-16.830000000000002,-71.76,-0.4505,0.2863,0.5153,0.6704,-0.042,0.0,-0.013000000000000001
2025-11-06 18:37:40.287,313.33,-0.033,-0.248,-0.305,0.11900000000000001,-0.9530000000000001,-0.293,27.21,-16.830000000000002,-71.76,-0.4514,0.2853,0.5163,0.6694,-0.029,0.004,-0.011
2025-11-06 18:37:40.287,313.335,-0.003,-0.271,-0.314,0.108,-0.9580000000000001,-0.301,26.86,-16.8,-71.09,-0.4524,0.2848,0.5167,0.6686000000000001,-0.015,0.008,-0.003
2025-11-06 18:37:40.287,313.34,0.028,-0.289,-0.313,0.10400000000000001,-0.96,-0.307,26.86,-16.8,-71.09,-0.4534,0.2847,0.5169,0.6679,-0.009000000000000001,0.011,0.002
2025-11-06 18:37:40.287,313.345,0.066,-0.307,-0.311,0.106,-0.9540000000000001,-0.301,26.86,-16.8,-71.09,-0.45430000000000004,0.28450000000000003,0.5172,0.667,-0.009000000000000001,0.005,-0.002
2025-11-06 18:37:40.287,313.35,0.10200000000000001,-0.316,-0.304,0.101,-0.9470000000000001,-0.29,26.89,-16.57,-72.05,-0.4549,0.2848,0.5177,0.6661,-0.003,-0.001,-0.012
2025-11-06 18:37:40.287,313.355,0.14100000000000001,-0.325,-0.292,0.08600000000000001,-0.9380000000000001,-0.275,26.89,-16.57,-72.05,-0.4549,0.2856,0.5184,0.6652,0.012,-0.011,-0.025
2025-11-06 18:37:40.287,313.36,0.17200000000000001,-0.34,-0.281,0.076,-0.931,-0.275,27.27,-16.28,-71.82000000000001,-0.45480000000000004,0.2869,0.5187,0.6645,0.021,-0.019,-0.022
2025-11-06 18:37:40.287,313.365,0.199,-0.36,-0.276,0.062,-0.925,-0.279,27.27,-16.28,-71.82000000000001,-0.45470000000000005,0.28850000000000003,0.5186000000000001,0.664,0.032,-0.025,-0.017
2025-11-06 18:37:40.287,313.37,0.23500000000000001,-0.389,-0.266,0.065,-0.924,-0.28600000000000003,27.27,-16.28,-71.82000000000001,-0.4549,0.2899,0.5182,0.6635,0.028,-0.027,-0.009000000000000001
2025-11-06 18:37:40.287,313.375,0.254,-0.424,-0.247,0.062,-0.928,-0.28700000000000003,27.47,-16.6,-71.52,-0.4551,0.2916,0.5177,0.663,0.029,-0.023,-0.007
2025-11-06 18:37:40.287,313.38,0.261,-0.464,-0.221,0.069,-0.93,-0.272,27.47,-16.6,-71.52,-0.45520000000000005,0.2932,0.5179,0.6622,0.021,-0.022,-0.02
2025-11-06 18:37:40.287,313.385,0.258,-0.47700000000000004,-0.20700000000000002,0.075,-0.929,-0.261,27.650000000000002,-16.19,-71.35000000000001,-0.45520000000000005,0.29460000000000003,0.5184,0.661,0.013000000000000001,-0.024,-0.028
2025-11-06 18:37:40.287,313.39,0.26,-0.485,-0.196,0.08600000000000001,-0.9430000000000001,-0.251,27.650000000000002,-16.19,-71.35000000000001,-0.45530000000000004,0.29600000000000004,0.5195000000000001,0.6596000000000001,0.002,-0.011,-0.034
2025-11-06 18:37:40.287,313.395,0.26,-0.493,-0.182,0.09,-0.9520000000000001,-0.241,27.44,-18.0,-72.02,-0.45530000000000004,0.2973,0.5209,0.6579,-0.001,-0.003,-0.04
2025-11-06 18:37:40.287,313.4,0.263,-0.485,-0.167,0.097,-0.9520000000000001,-0.23600000000000002,27.44,-18.0,-72.02,-0.45530000000000004,0.2985,0.5224,0.6561,-0.007,-0.004,-0.041
2025-11-06 18:37:40.287,313.405,0.272,-0.47800000000000004,-0.14400000000000002,0.10400000000000001,-0.9540000000000001,-0.232,27.44,-18.0,-72.02,-0.4555,0.29960000000000003,0.524,0.6543,-0.012,-0.003,-0.04
2025-11-06 18:37:40.287,313.41,0.29,-0.464,-0.105,0.093,-0.9520000000000001,-0.22,27.41,-15.81,-71.87,-0.4551,0.30110000000000003,0.5256000000000001,0.6525000000000001,-0.001,-0.007,-0.047
2025-11-06 18:37:40.287,313.415,0.3,-0.458,-0.077,0.08600000000000001,-0.9560000000000001,-0.213,27.41,-15.81,-71.87,-0.4545,0.3029,0.5271,0.6509,0.005,-0.004,-0.048
2025-11-06 18:37:40.287,313.42,0.315,-0.462,-0.056,0.067,-0.9510000000000001,-0.203,28.0,-16.45,-71.64,-0.45330000000000004,0.3052,0.5285000000000001,0.6495000000000001,0.022,-0.011,-0.053
2025-11-06 18:37:40.287,313.425,0.315,-0.485,-0.031,0.034,-0.932,-0.212,28.0,-16.45,-71.64,-0.4516,0.30810000000000004,0.5287000000000001,0.6491,0.051000000000000004,-0.032,-0.04
2025-11-06 18:37:40.287,313.43,0.307,-0.526,-0.009000000000000001,0.009000000000000001,-0.934,-0.23500000000000001,28.0,-16.45,-71.64,-0.4499,0.31120000000000003,0.5278,0.6497,0.069,-0.031,-0.014
2025-11-06 18:37:40.287,313.435,0.302,-0.5730000000000001,0.001,0.002,-0.9440000000000001,-0.258,28.23,-16.1,-72.08,-0.4486,0.314,0.526,0.6506000000000001,0.069,-0.022,0.009000000000000001
2025-11-06 18:37:40.287,313.44,0.28500000000000003,-0.611,0.017,-0.011,-0.9430000000000001,-0.281,28.23,-16.1,-72.08,-0.4474,0.3166,0.5235000000000001,0.6522,0.075,-0.023,0.029
2025-11-06 18:37:40.287,313.445,0.266,-0.628,0.03,-0.027,-0.9390000000000001,-0.293,28.26,-16.57,-72.52,-0.44620000000000004,0.31930000000000003,0.5204,0.6542,0.083,-0.027,0.038
2025-11-06 18:37:40.287,313.45,0.25,-0.599,0.042,-0.032,-0.9510000000000001,-0.297,28.26,-16.57,-72.52,-0.4451,0.32180000000000003,0.5174,0.6561,0.08,-0.015,0.04
2025-11-06 18:37:40.287,313.455,0.233,-0.535,0.047,-0.026000000000000002,-0.9560000000000001,-0.302,28.26,-16.57,-72.52,-0.44420000000000004,0.3239,0.5147,0.6577000000000001,0.066,-0.01,0.042
2025-11-06 18:37:40.287,313.46,0.228,-0.459,0.04,-0.023,-0.9540000000000001,-0.302,28.09,-15.81,-72.02,-0.4435,0.3256,0.5124000000000001,0.6593,0.057,-0.01,0.039
2025-11-06 18:37:40.287,313.465,0.222,-0.374,0.031,-0.021,-0.9480000000000001,-0.294,28.09,-15.81,-72.02,-0.4428,0.3271,0.5104000000000001,0.6605000000000001,0.049,-0.016,0.029
2025-11-06 18:37:40.287,313.47,0.211,-0.28500000000000003,0.023,-0.01,-0.9450000000000001,-0.277,28.55,-16.8,-71.9,-0.4423,0.3285,0.5093,0.661,0.034,-0.019,0.011
2025-11-06 18:37:40.287,313.475,0.223,-0.178,0.012,0.005,-0.9490000000000001,-0.263,28.55,-16.8,-71.9,-0.442,0.3295,0.509,0.6609,0.016,-0.015,-0.001
2025-11-06 18:37:40.287,313.48,0.252,-0.112,0.009000000000000001,0.027,-0.9440000000000001,-0.257,28.32,-17.8,-72.46000000000001,-0.442,0.3297,0.5095000000000001,0.6604,-0.006,-0.02,-0.006
2025-11-06 18:37:40.287,313.485,0.28700000000000003,-0.055,0.02,0.032,-0.9460000000000001,-0.256,28.32,-17.8,-72.46000000000001,-0.442,0.3299,0.5101,0.6598,-0.01,-0.018000000000000002,-0.006
2025-11-06 18:37:40.287,313.49,0.307,-0.003,0.039,0.03,-0.9580000000000001,-0.256,28.32,-17.8,-72.46000000000001,-0.4419,0.3301,0.5108,0.6593,-0.007,-0.006,-0.004
2025-11-06 18:37:40.287,313.495,0.304,0.025,0.062,0.043000000000000003,-0.97,-0.246,27.94,-15.84,-71.82000000000001,-0.4418,0.3302,0.512,0.6583,-0.018000000000000002,0.004,-0.012
2025-11-06 18:37:40.287,313.5,0.272,0.07100000000000001,0.081,0.056,-0.967,-0.225,27.94,-15.84,-71.82000000000001,-0.4419,0.33030000000000004,0.5139,0.6568,-0.03,0.0,-0.029
2025-11-06 18:37:40.287,313.505,0.257,0.084,0.089,0.07,-0.9590000000000001,-0.215,27.68,-15.81,-71.9,-0.44210000000000005,0.3301,0.516,0.655,-0.04,-0.008,-0.035
2025-11-06 18:37:40.287,313.51,0.249,0.099,0.10300000000000001,0.037,-0.962,-0.209,27.68,-15.81,-71.9,-0.4414,0.331,0.5176000000000001,0.6539,-0.006,-0.006,-0.037
2025-11-06 18:37:40.287,313.515,0.245,0.10400000000000001,0.113,0.034,-0.966,-0.211,27.68,-15.81,-71.9,-0.44060000000000005,0.33190000000000003,0.5189,0.6529,-0.003,-0.003,-0.031
