System_Time,Timestamp,Gyro_X,Gyro_Y,Gyro_Z,Acc_X,Acc_Y,Acc_Z,Mag_X,Mag_Y,Mag_Z,Quat_W,Quat_X,Quat_Y,Quat_Z,Linear_Acc_X,Linear_Acc_Y,Linear_Acc_Z
2025-11-06 18:32:56.177,38.86,-0.062,0.28,-0.17,-0.08700000000000001,-0.961,-0.149,29.37,-23.18,-73.8,0.7614000000000001,-0.6428,-0.0236,-0.0794,0.03,-0.021,-0.023
2025-11-06 18:32:56.177,38.865,-0.753,2.487,-1.619,-0.137,-0.963,-0.163,28.29,-24.400000000000002,-75.27,0.7623000000000001,-0.6412,-0.028200000000000003,-0.08310000000000001,0.079,-0.019,-0.011
2025-11-06 18:32:56.177,38.87,-1.879,5.138,-3.232,-0.136,-0.962,-0.164,28.29,-24.400000000000002,-75.27,0.7647,-0.637,-0.0398,-0.0883,0.089,-0.019,-0.018000000000000002
2025-11-06 18:32:56.177,38.875,0.203,0.011,-0.166,-0.134,-0.962,-0.164,28.29,-24.400000000000002,-75.27,0.7636000000000001,-0.6381,-0.0374,-0.0908,0.084,-0.019,-0.019
2025-11-06 18:32:56.178,38.88,0.17,-0.21,0.004,-0.134,-0.961,-0.162,28.41,-24.26,-74.89,0.7625000000000001,-0.6392,-0.0345,-0.093,0.076,-0.02,-0.018000000000000002
2025-11-06 18:32:56.178,38.885,-0.037,-0.042,-0.013000000000000001,-0.133,-0.963,-0.161,28.41,-24.26,-74.89,0.7619,-0.6398,-0.032100000000000004,-0.0952,0.068,-0.018000000000000002,-0.017
2025-11-06 18:32:56.178,38.89,-0.034,-0.041,-0.011,-0.131,-0.961,-0.161,28.14,-24.72,-75.18,0.7612,-0.6403,-0.030000000000000002,-0.09720000000000001,0.061,-0.019,-0.016
2025-11-06 18:32:56.178,38.895,-0.031,-0.038,-0.009000000000000001,-0.131,-0.962,-0.161,28.14,-24.72,-75.18,0.7607,-0.6408,-0.0281,-0.0989,0.055,-0.019,-0.016
2025-11-06 18:32:56.178,38.9,-0.029,-0.036000000000000004,-0.012,-0.132,-0.962,-0.162,28.0,-23.61,-75.7,0.7601,-0.6413,-0.0263,-0.1005,0.051000000000000004,-0.018000000000000002,-0.014
2025-11-06 18:32:56.178,38.905,-0.025,-0.034,-0.01,-0.131,-0.964,-0.163,28.0,-23.61,-75.7,0.7597,-0.6417,-0.0247,-0.10200000000000001,0.045,-0.016,-0.012
2025-11-06 18:32:56.178,38.91,-0.024,-0.035,-0.009000000000000001,-0.13,-0.965,-0.166,28.0,-23.61,-75.7,0.7593000000000001,-0.6419,-0.023200000000000002,-0.1033,0.04,-0.015,-0.008
2025-11-06 18:32:56.178,38.915,-0.022,-0.032,-0.009000000000000001,-0.132,-0.968,-0.168,27.94,-23.29,-74.97,0.759,-0.6421,-0.0219,-0.1046,0.038,-0.011,-0.006
2025-11-06 18:32:56.178,38.92,-0.02,-0.027,-0.008,-0.131,-0.967,-0.168,27.94,-23.29,-74.97,0.7588,-0.6422,-0.0207,-0.1057,0.034,-0.012,-0.005
2025-11-06 18:32:56.178,38.925,-0.021,-0.025,-0.008,-0.132,-0.965,-0.171,28.38,-24.84,-75.12,0.7586,-0.6423,-0.0196,-0.1068,0.032,-0.014,-0.002
2025-11-06 18:32:56.178,38.93,-0.017,-0.019,-0.007,-0.133,-0.963,-0.17300000000000001,28.38,-24.84,-75.12,0.7585000000000001,-0.6422,-0.018600000000000002,-0.10790000000000001,0.03,-0.015,-0.001
2025-11-06 18:32:56.178,38.935,-0.017,-0.015,-0.007,-0.133,-0.962,-0.176,28.38,-24.84,-75.12,0.7585000000000001,-0.6421,-0.0177,-0.109,0.027,-0.016,0.001
2025-11-06 18:32:56.178,38.94,-0.017,-0.012,-0.006,-0.133,-0.962,-0.177,28.32,-23.79,-75.27,0.7585000000000001,-0.6419,-0.016900000000000002,-0.11,0.025,-0.016,0.002
2025-11-06 18:32:56.178,38.945,-0.016,-0.01,-0.005,-0.132,-0.964,-0.179,28.32,-23.79,-75.27,0.7586,-0.6417,-0.0162,-0.111,0.022,-0.013000000000000001,0.003
2025-11-06 18:32:56.178,38.95,-0.015,-0.008,-0.004,-0.131,-0.966,-0.178,28.38,-23.44,-75.56,0.7586,-0.6415000000000001,-0.015600000000000001,-0.11170000000000001,0.018000000000000002,-0.011,0.002
2025-11-06 18:32:56.178,38.955,-0.015,-0.007,-0.006,-0.13,-0.966,-0.177,28.38,-23.44,-75.56,0.7587,-0.6414000000000001,-0.015000000000000001,-0.1124,0.017,-0.011,0.0
2025-11-06 18:32:56.178,38.96,-0.013000000000000001,-0.005,-0.006,-0.13,-0.965,-0.177,28.38,-23.44,-75.56,0.7587,-0.6413,-0.0145,-0.1129,0.014,-0.011,0.0
2025-11-06 18:32:56.180,38.965,-0.012,-0.007,-0.006,-0.129,-0.964,-0.177,28.060000000000002,-23.61,-75.53,0.7587,-0.6413,-0.014100000000000001,-0.1134,0.012,-0.013000000000000001,0.0
2025-11-06 18:32:56.180,38.97,-0.012,-0.009000000000000001,-0.006,-0.129,-0.963,-0.176,28.060000000000002,-23.61,-75.53,0.7587,-0.6412,-0.0137,-0.11380000000000001,0.011,-0.013000000000000001,0.0
2025-11-06 18:32:56.180,38.975,-0.012,-0.008,-0.005,-0.129,-0.963,-0.17500000000000002,28.26,-23.44,-75.41,0.7586,-0.6412,-0.013300000000000001,-0.11420000000000001,0.01,-0.013000000000000001,-0.001
2025-11-06 18:32:56.180,38.98,-0.011,-0.006,-0.004,-0.127,-0.964,-0.17400000000000002,28.26,-23.44,-75.41,0.7586,-0.6412,-0.0129,-0.1144,0.007,-0.012,-0.003
2025-11-06 18:32:56.180,38.985,-0.01,-0.005,-0.002,-0.126,-0.964,-0.177,28.47,-23.44,-74.94,0.7586,-0.6411,-0.012700000000000001,-0.11470000000000001,0.005,-0.012,0.0
2025-11-06 18:32:56.180,38.99,-0.004,-0.01,-0.003,-0.126,-0.965,-0.176,28.47,-24.11,-74.94,0.7586,-0.6411,-0.0125,-0.1149,0.005,-0.011,-0.001
2025-11-06 18:32:56.180,38.995,-0.002,-0.011,-0.001,-0.125,-0.966,-0.177,28.47,-24.11,-74.94,0.7586,-0.6411,-0.0123,-0.11510000000000001,0.003,-0.009000000000000001,0.0
2025-11-06 18:32:56.180,39.0,-0.004,-0.009000000000000001,0.0,-0.126,-0.967,-0.178,28.32,-24.990000000000002,-75.38,0.7586,-0.641,-0.012100000000000001,-0.1153,0.004,-0.008,0.0
2025-11-06 18:32:56.180,39.005,-0.005,-0.007,0.0,-0.126,-0.966,-0.178,28.32,-24.990000000000002,-75.38,0.7587,-0.6409,-0.0119,-0.1155,0.003,-0.009000000000000001,0.0
2025-11-06 18:32:56.180,39.01,-0.007,-0.007,0.0,-0.127,-0.966,-0.177,29.02,-25.54,-75.38,0.7587,-0.6409,-0.0117,-0.11560000000000001,0.004,-0.009000000000000001,-0.001
2025-11-06 18:32:56.180,39.015,-0.004,-0.011,0.001,-0.128,-0.964,-0.179,29.02,-25.54,-75.38,0.7587,-0.6408,-0.0115,-0.1159,0.004,-0.011,0.0
2025-11-06 18:32:56.180,39.02,-0.004,-0.015,0.002,-0.128,-0.966,-0.177,29.02,-25.54,-75.38,0.7587,-0.6408,-0.011300000000000001,-0.116,0.003,-0.009000000000000001,-0.001
2025-11-06 18:32:56.180,39.025,-0.008,-0.021,0.004,-0.128,-0.966,-0.17400000000000002,27.76,-23.29,-75.5,0.7586,-0.6409,-0.0111,-0.11610000000000001,0.003,-0.008,-0.003
2025-11-06 18:32:56.180,39.03,-0.007,-0.022,0.003,-0.128,-0.966,-0.17300000000000001,27.76,-23.29,-75.5,0.7585000000000001,-0.641,-0.0108,-0.11620000000000001,0.003,-0.008,-0.004
2025-11-06 18:32:56.180,39.035,-0.007,-0.024,0.001,-0.128,-0.967,-0.17200000000000001,28.2,-23.44,-75.88,0.7584000000000001,-0.6411,-0.0106,-0.11620000000000001,0.002,-0.008,-0.005
2025-11-06 18:32:56.180,39.04,-0.008,-0.027,0.001,-0.127,-0.968,-0.171,28.2,-23.44,-75.88,0.7583000000000001,-0.6413,-0.010400000000000001,-0.11610000000000001,0.001,-0.007,-0.006
2025-11-06 18:32:56.180,39.045,-0.006,-0.031,0.0,-0.127,-0.968,-0.17200000000000001,28.2,-23.44,-75.88,0.7582,-0.6414000000000001,-0.0103,-0.11610000000000001,0.0,-0.007,-0.004
2025-11-06 18:32:56.180,39.05,-0.007,-0.029,0.0,-0.125,-0.968,-0.17200000000000001,28.35,-23.990000000000002,-76.11,0.7581,-0.6415000000000001,-0.0102,-0.116,0.0,-0.007,-0.004
2025-11-06 18:32:56.180,39.055,-0.009000000000000001,-0.031,0.0,-0.124,-0.967,-0.17500000000000002,28.35,-23.990000000000002,-76.11,0.7581,-0.6415000000000001,-0.010100000000000001,-0.1159,-0.001,-0.008,-0.001
2025-11-06 18:32:56.180,39.06,-0.009000000000000001,-0.031,-0.002,-0.123,-0.967,-0.17300000000000001,27.59,-23.990000000000002,-75.82000000000001,0.7581,-0.6416000000000001,-0.010100000000000001,-0.1158,-0.002,-0.008,-0.002
2025-11-06 18:32:56.180,39.065,-0.009000000000000001,-0.032,-0.004,-0.124,-0.968,-0.17400000000000002,27.59,-23.990000000000002,-75.82000000000001,0.7581,-0.6416000000000001,-0.010100000000000001,-0.11570000000000001,-0.002,-0.007,-0.002
2025-11-06 18:32:56.180,39.07,-0.01,-0.03,-0.001,-0.124,-0.97,-0.17300000000000001,27.59,-23.990000000000002,-75.82000000000001,0.7581,-0.6417,-0.01,-0.1155,-0.001,-0.005,-0.003
2025-11-06 18:32:56.180,39.075,-0.009000000000000001,-0.024,-0.003,-0.124,-0.97,-0.17,28.09,-23.35,-75.82000000000001,0.7579,-0.6418,-0.01,-0.1154,-0.001,-0.005,-0.005
2025-11-06 18:32:56.180,39.08,-0.012,-0.022,-0.005,-0.125,-0.972,-0.171,28.09,-23.35,-75.82000000000001,0.7579,-0.642,-0.0099,-0.1153,0.0,-0.004,-0.004
2025-11-06 18:32:56.180,39.085,-0.015,-0.02,-0.002,-0.128,-0.972,-0.17,28.35,-23.09,-76.23,0.7577,-0.6421,-0.0098,-0.1153,0.002,-0.003,-0.005
2025-11-06 18:32:56.180,39.09,-0.015,-0.02,-0.004,-0.13,-0.969,-0.171,28.35,-23.09,-76.23,0.7577,-0.6422,-0.0095,-0.1154,0.004,-0.006,-0.003
2025-11-06 18:32:56.180,39.095,-0.02,-0.016,-0.002,-0.133,-0.968,-0.17,28.32,-23.23,-75.67,0.7576,-0.6423,-0.0092,-0.1155,0.005,-0.007,-0.004
2025-11-06 18:32:56.180,39.1,-0.021,-0.014,-0.002,-0.135,-0.967,-0.171,28.32,-23.23,-75.67,0.7575000000000001,-0.6423,-0.0089,-0.11570000000000001,0.007,-0.008,-0.003
2025-11-06 18:32:56.180,39.105,-0.022,-0.013000000000000001,-0.002,-0.135,-0.966,-0.17,28.32,-23.23,-75.67,0.7574000000000001,-0.6424000000000001,-0.0086,-0.1159,0.006,-0.009000000000000001,-0.004
2025-11-06 18:32:56.180,39.11,-0.023,-0.013000000000000001,-0.002,-0.138,-0.967,-0.171,28.060000000000002,-23.23,-75.85000000000001,0.7573000000000001,-0.6424000000000001,-0.0082,-0.11620000000000001,0.009000000000000001,-0.008,-0.003
2025-11-06 18:32:56.180,39.115,-0.023,-0.013000000000000001,0.0,-0.137,-0.966,-0.169,28.060000000000002,-23.23,-75.85000000000001,0.7572,-0.6425000000000001,-0.0079,-0.1164,0.007,-0.008,-0.005
2025-11-06 18:32:56.180,39.12,-0.023,-0.011,-0.002,-0.139,-0.968,-0.168,28.580000000000002,-23.0,-76.7,0.7571,-0.6427,-0.007500000000000001,-0.11660000000000001,0.007,-0.007,-0.005
2025-11-06 18:32:56.180,39.125,-0.022,-0.014,-0.002,-0.137,-0.968,-0.167,28.580000000000002,-23.0,-76.7,0.757,-0.6428,-0.007200000000000001,-0.11670000000000001,0.005,-0.007,-0.005
2025-11-06 18:32:56.180,39.13,-0.022,-0.013000000000000001,-0.002,-0.137,-0.967,-0.168,28.580000000000002,-23.0,-76.7,0.7569,-0.6429,-0.007,-0.1169,0.004,-0.008,-0.005
2025-11-06 18:32:56.180,39.135,-0.022,-0.014,-0.002,-0.137,-0.966,-0.168,28.17,-23.03,-76.2,0.7568,-0.643,-0.0067,-0.117,0.004,-0.009000000000000001,-0.004
2025-11-06 18:32:56.180,39.14,-0.019,-0.016,-0.002,-0.135,-0.964,-0.168,28.17,-23.03,-76.2,0.7567,-0.643,-0.0066,-0.117,0.001,-0.01,-0.004
2025-11-06 18:32:56.180,39.145,-0.017,-0.013000000000000001,-0.003,-0.134,-0.962,-0.168,27.94,-23.0,-76.76,0.7567,-0.6431,-0.006500000000000001,-0.117,0.0,-0.013000000000000001,-0.004
2025-11-06 18:32:56.180,39.15,-0.016,-0.017,-0.003,-0.131,-0.962,-0.168,27.94,-23.0,-76.76,0.7566,-0.6431,-0.0064,-0.1169,-0.002,-0.013000000000000001,-0.004
2025-11-06 18:32:56.180,39.155,-0.011,-0.016,-0.004,-0.133,-0.962,-0.169,27.94,-23.0,-76.76,0.7566,-0.6432,-0.0064,-0.1169,0.0,-0.012,-0.003
2025-11-06 18:32:56.180,39.16,-0.006,-0.014,-0.001,-0.13,-0.961,-0.168,27.650000000000002,-23.0,-76.11,0.7566,-0.6432,-0.0063,-0.1168,-0.003,-0.013000000000000001,-0.004
2025-11-06 18:32:56.181,39.165,0.0,-0.012,-0.002,-0.13,-0.961,-0.164,27.650000000000002,-23.0,-76.11,0.7564000000000001,-0.6434000000000001,-0.0063,-0.11670000000000001,-0.002,-0.013000000000000001,-0.007
2025-11-06 18:32:56.181,39.17,-0.001,-0.009000000000000001,-0.001,-0.131,-0.965,-0.162,28.26,-22.62,-75.62,0.7562,-0.6437,-0.0063,-0.11660000000000001,-0.002,-0.01,-0.009000000000000001
2025-11-06 18:32:56.181,39.175,0.001,-0.01,-0.001,-0.133,-0.965,-0.161,28.26,-22.62,-75.62,0.756,-0.644,-0.006200000000000001,-0.11660000000000001,0.0,-0.01,-0.009000000000000001
2025-11-06 18:32:56.181,39.18,0.004,-0.009000000000000001,0.001,-0.134,-0.967,-0.16,27.85,-22.77,-75.82000000000001,0.7557,-0.6443,-0.0061,-0.1165,0.0,-0.008,-0.009000000000000001
2025-11-06 18:32:56.181,39.185,0.002,-0.003,0.004,-0.138,-0.967,-0.158,27.85,-22.77,-75.82000000000001,0.7554000000000001,-0.6446000000000001,-0.0058000000000000005,-0.11660000000000001,0.004,-0.008,-0.011
2025-11-06 18:32:56.181,39.19,0.001,0.0,0.003,-0.14,-0.967,-0.159,27.85,-22.77,-75.82000000000001,0.7552,-0.6449,-0.0056,-0.1168,0.005,-0.008,-0.008
2025-11-06 18:32:56.181,39.195,0.002,0.0,0.007,-0.14200000000000002,-0.966,-0.158,27.76,-22.97,-76.0,0.7549,-0.6452,-0.0053,-0.117,0.006,-0.009000000000000001,-0.009000000000000001
2025-11-06 18:32:56.181,39.2,0.003,0.0,0.006,-0.14100000000000001,-0.965,-0.158,27.76,-22.97,-76.0,0.7547,-0.6454000000000001,-0.005,-0.11710000000000001,0.005,-0.01,-0.008
2025-11-06 18:32:56.181,39.205,0.003,0.002,0.008,-0.14100000000000001,-0.964,-0.16,28.09,-22.88,-75.76,0.7545000000000001,-0.6456000000000001,-0.0048000000000000004,-0.1173,0.004,-0.011,-0.006
2025-11-06 18:32:56.181,39.21,0.002,0.005,0.01,-0.14100000000000001,-0.966,-0.16,28.09,-22.88,-75.76,0.7543000000000001,-0.6458,-0.0046,-0.11750000000000001,0.003,-0.009000000000000001,-0.006
2025-11-06 18:32:56.181,39.215,0.004,0.007,0.012,-0.14,-0.968,-0.159,28.09,-22.88,-75.76,0.7542,-0.6459,-0.0045000000000000005,-0.11760000000000001,0.002,-0.007,-0.006
2025-11-06 18:32:56.181,39.22,0.006,0.007,0.01,-0.14,-0.969,-0.157,27.88,-23.38,-75.79,0.7539,-0.6462,-0.0044,-0.11760000000000001,0.001,-0.007,-0.007
2025-11-06 18:32:56.181,39.225,0.007,0.008,0.01,-0.139,-0.967,-0.157,27.88,-23.38,-75.79,0.7538,-0.6464000000000001,-0.0043,-0.1177,0.0,-0.009000000000000001,-0.007
2025-11-06 18:32:56.181,39.23,0.012,0.01,0.012,-0.138,-0.967,-0.157,28.32,-23.18,-75.88,0.7536,-0.6466000000000001,-0.004200000000000001,-0.1177,0.0,-0.008,-0.006
2025-11-06 18:32:56.181,39.235,0.012,0.014,0.012,-0.137,-0.966,-0.158,28.32,-23.18,-75.88,0.7534000000000001,-0.6468,-0.004200000000000001,-0.1177,-0.001,-0.009000000000000001,-0.005
2025-11-06 18:32:56.181,39.24,0.012,0.015,0.011,-0.137,-0.966,-0.158,28.32,-23.18,-75.88,0.7533000000000001,-0.6469,-0.004200000000000001,-0.1177,-0.001,-0.009000000000000001,-0.004
2025-11-06 18:32:56.181,39.245,0.014,0.015,0.011,-0.138,-0.965,-0.158,28.0,-23.26,-76.11,0.7532,-0.647,-0.004200000000000001,-0.1178,0.0,-0.011,-0.004
2025-11-06 18:32:56.181,39.25,0.015,0.019,0.008,-0.135,-0.964,-0.16,28.0,-23.26,-76.11,0.7532,-0.647,-0.0043,-0.1178,-0.003,-0.011,-0.001
2025-11-06 18:32:56.181,39.255,0.018000000000000002,0.018000000000000002,0.008,-0.136,-0.963,-0.16,28.82,-24.17,-76.26,0.7532,-0.6471,-0.0043,-0.1178,-0.002,-0.012,-0.002
2025-11-06 18:32:56.181,39.26,0.018000000000000002,0.021,0.008,-0.135,-0.963,-0.16,28.82,-24.17,-76.26,0.7531,-0.6471,-0.0044,-0.1178,-0.003,-0.013000000000000001,-0.002
2025-11-06 18:32:56.181,39.265,0.021,0.018000000000000002,0.009000000000000001,-0.137,-0.963,-0.16,28.09,-23.12,-75.85000000000001,0.7531,-0.6472,-0.0044,-0.1179,-0.001,-0.013000000000000001,-0.002
2025-11-06 18:32:56.181,39.27,0.027,0.02,0.006,-0.136,-0.964,-0.156,28.09,-23.12,-75.85000000000001,0.7529,-0.6473,-0.0044,-0.1179,-0.002,-0.012,-0.005
2025-11-06 18:32:56.181,39.275,0.031,0.018000000000000002,0.01,-0.136,-0.966,-0.156,28.09,-23.12,-75.85000000000001,0.7528,-0.6475000000000001,-0.0045000000000000005,-0.1178,-0.002,-0.01,-0.005
2025-11-06 18:32:56.181,39.28,0.032,0.022,0.011,-0.137,-0.964,-0.154,27.94,-24.64,-76.03,0.7526,-0.6477,-0.0045000000000000005,-0.1179,-0.001,-0.012,-0.006
2025-11-06 18:32:56.181,39.285,0.035,0.024,0.012,-0.138,-0.965,-0.153,27.94,-24.64,-76.03,0.7524000000000001,-0.648,-0.0045000000000000005,-0.1179,-0.001,-0.011,-0.006
2025-11-06 18:32:56.181,39.29,0.039,0.022,0.011,-0.136,-0.963,-0.155,27.560000000000002,-23.53,-75.41,0.7522000000000001,-0.6481,-0.0045000000000000005,-0.1179,-0.003,-0.013000000000000001,-0.004
2025-11-06 18:32:56.181,39.295,0.043000000000000003,0.023,0.009000000000000001,-0.135,-0.963,-0.157,27.560000000000002,-23.53,-75.41,0.7522000000000001,-0.6482,-0.0046,-0.1179,-0.003,-0.014,-0.002
2025-11-06 18:32:56.181,39.3,0.042,0.023,0.011,-0.132,-0.963,-0.16,27.560000000000002,-23.53,-75.41,0.7522000000000001,-0.6482,-0.0048000000000000004,-0.1179,-0.005,-0.013000000000000001,0.0
2025-11-06 18:32:56.181,39.305,0.042,0.027,0.008,-0.132,-0.963,-0.162,27.740000000000002,-23.67,-76.11,0.7523000000000001,-0.6481,-0.005,-0.1179,-0.005,-0.013000000000000001,0.001
2025-11-06 18:32:56.181,39.31,0.043000000000000003,0.031,0.009000000000000001,-0.131,-0.964,-0.162,27.740000000000002,-23.67,-76.11,0.7524000000000001,-0.648,-0.005200000000000001,-0.1178,-0.006,-0.012,0.002
2025-11-06 18:32:56.181,39.315,0.045,0.03,0.009000000000000001,-0.131,-0.964,-0.162,27.71,-23.0,-75.29,0.7524000000000001,-0.6479,-0.0054,-0.1178,-0.006,-0.012,0.002
2025-11-06 18:32:56.181,39.32,0.049,0.029,0.011,-0.13,-0.965,-0.162,27.71,-23.0,-75.29,0.7525000000000001,-0.6479,-0.0056,-0.1177,-0.007,-0.012,0.001
2025-11-06 18:32:56.185,39.325,0.05,0.027,0.008,-0.131,-0.964,-0.16,27.71,-23.0,-75.29,0.7525000000000001,-0.6479,-0.0058000000000000005,-0.1177,-0.005,-0.012,0.0
2025-11-06 18:32:56.185,39.33,0.051000000000000004,0.021,0.008,-0.132,-0.964,-0.158,27.76,-23.35,-75.76,0.7524000000000001,-0.648,-0.0059,-0.1177,-0.003,-0.012,-0.001
2025-11-06 18:32:56.185,39.335,0.049,0.018000000000000002,0.009000000000000001,-0.134,-0.967,-0.157,27.76,-23.35,-75.76,0.7523000000000001,-0.6481,-0.006,-0.1177,-0.002,-0.009000000000000001,-0.002
2025-11-06 18:32:56.185,39.34,0.046,0.013000000000000001,0.01,-0.135,-0.97,-0.156,28.29,-24.93,-75.53,0.7522000000000001,-0.6482,-0.006,-0.1177,-0.001,-0.006,-0.002
2025-11-06 18:32:56.185,39.345,0.045,0.008,0.01,-0.136,-0.972,-0.154,28.29,-24.93,-75.53,0.752,-0.6484,-0.006,-0.1177,0.0,-0.005,-0.004
2025-11-06 18:32:56.185,39.35,0.041,0.007,0.01,-0.138,-0.975,-0.154,28.29,-24.93,-75.53,0.7518,-0.6487,-0.0059,-0.1178,0.001,-0.002,-0.004
2025-11-06 18:32:56.185,39.355,0.034,0.014,0.012,-0.138,-0.977,-0.153,29.05,-24.32,-76.08,0.7516,-0.6489,-0.0059,-0.1179,0.001,0.0,-0.004
2025-11-06 18:32:56.185,39.36,0.029,0.015,0.012,-0.139,-0.976,-0.155,29.05,-24.32,-76.08,0.7515000000000001,-0.649,-0.0058000000000000005,-0.11800000000000001,0.001,0.0,-0.001
2025-11-06 18:32:56.185,39.365,0.021,0.013000000000000001,0.012,-0.139,-0.975,-0.158,28.09,-23.32,-75.65,0.7514000000000001,-0.649,-0.0058000000000000005,-0.11810000000000001,0.002,-0.002,0.0
2025-11-06 18:32:56.185,39.37,0.019,0.013000000000000001,0.01,-0.138,-0.974,-0.163,28.09,-23.32,-75.65,0.7516,-0.6488,-0.0057,-0.1182,0.0,-0.002,0.004
2025-11-06 18:32:56.185,39.375,0.01,0.013000000000000001,0.011,-0.137,-0.969,-0.168,28.67,-23.32,-75.27,0.7518,-0.6485000000000001,-0.0057,-0.1183,0.0,-0.008,0.009000000000000001
2025-11-06 18:32:56.185,39.38,0.009000000000000001,0.009000000000000001,0.01,-0.136,-0.968,-0.171,28.67,-23.32,-75.27,0.7522000000000001,-0.648,-0.0057,-0.1184,-0.001,-0.008,0.011
2025-11-06 18:32:56.185,39.385,0.009000000000000001,0.006,0.009000000000000001,-0.134,-0.968,-0.17200000000000001,28.67,-23.32,-75.27,0.7526,-0.6476000000000001,-0.0058000000000000005,-0.11850000000000001,-0.003,-0.008,0.011
2025-11-06 18:32:56.185,39.39,0.007,0.007,0.008,-0.134,-0.968,-0.17400000000000002,28.23,-23.91,-75.21000000000001,0.753,-0.6472,-0.0059,-0.11850000000000001,-0.003,-0.008,0.011
2025-11-06 18:32:56.185,39.395,0.007,0.002,0.007,-0.131,-0.969,-0.17200000000000001,28.23,-23.91,-75.21000000000001,0.7533000000000001,-0.6468,-0.0061,-0.11850000000000001,-0.005,-0.007,0.008
2025-11-06 18:32:56.185,39.4,0.006,0.0,0.007,-0.129,-0.97,-0.169,28.61,-23.2,-75.35000000000001,0.7535000000000001,-0.6466000000000001,-0.0063,-0.1183,-0.007,-0.006,0.005
2025-11-06 18:32:56.185,39.405,0.008,-0.002,0.007,-0.129,-0.97,-0.165,28.61,-23.2,-75.35000000000001,0.7536,-0.6465000000000001,-0.006500000000000001,-0.1182,-0.006,-0.006,0.001
2025-11-06 18:32:56.185,39.41,0.007,-0.002,0.006,-0.129,-0.968,-0.161,28.61,-23.2,-75.35000000000001,0.7535000000000001,-0.6466000000000001,-0.0067,-0.11800000000000001,-0.006,-0.008,-0.002
2025-11-06 18:32:56.185,39.415,0.009000000000000001,-0.004,0.006,-0.129,-0.967,-0.16,28.14,-23.26,-75.38,0.7535000000000001,-0.6467,-0.0068000000000000005,-0.1179,-0.005,-0.009000000000000001,-0.003
2025-11-06 18:32:56.185,39.42,0.006,-0.01,0.004,-0.129,-0.966,-0.159,28.14,-23.26,-75.38,0.7534000000000001,-0.6468,-0.006900000000000001,-0.1178,-0.005,-0.01,-0.004
2025-11-06 18:32:56.185,39.425,0.006,-0.012,0.003,-0.129,-0.967,-0.156,27.62,-23.56,-75.32000000000001,0.7532,-0.647,-0.0071,-0.11760000000000001,-0.005,-0.009000000000000001,-0.007
2025-11-06 18:32:56.185,39.43,0.004,-0.013000000000000001,0.003,-0.129,-0.968,-0.154,27.62,-23.56,-75.32000000000001,0.7531,-0.6472,-0.007200000000000001,-0.11750000000000001,-0.005,-0.009000000000000001,-0.007
2025-11-06 18:32:56.185,39.435,0.0,-0.013000000000000001,0.003,-0.13,-0.968,-0.154,27.62,-23.56,-75.32000000000001,0.7529,-0.6474000000000001,-0.007200000000000001,-0.1174,-0.003,-0.008,-0.007
2025-11-06 18:32:56.185,39.44,0.0,-0.015,0.001,-0.13,-0.97,-0.152,28.14,-23.18,-75.85000000000001,0.7527,-0.6477,-0.0073,-0.11720000000000001,-0.003,-0.006,-0.008
2025-11-06 18:32:56.185,39.445,-0.001,-0.018000000000000002,0.001,-0.133,-0.968,-0.155,28.14,-23.18,-75.85000000000001,0.7526,-0.6478,-0.0073,-0.11720000000000001,0.0,-0.008,-0.004
2025-11-06 18:32:56.185,39.45,-0.001,-0.025,0.001,-0.136,-0.967,-0.155,27.560000000000002,-22.94,-75.59,0.7525000000000001,-0.6479,-0.0071,-0.1173,0.001,-0.01,-0.004
2025-11-06 18:32:56.185,39.455,-0.002,-0.03,0.001,-0.137,-0.967,-0.153,27.560000000000002,-22.94,-75.59,0.7523000000000001,-0.6481,-0.006900000000000001,-0.1173,0.002,-0.009000000000000001,-0.006
2025-11-06 18:32:56.185,39.46,-0.004,-0.033,0.004,-0.138,-0.969,-0.154,27.82,-22.97,-75.91,0.7522000000000001,-0.6483,-0.0067,-0.1174,0.003,-0.008,-0.005
2025-11-06 18:32:56.185,39.465,-0.003,-0.035,0.001,-0.137,-0.968,-0.154,27.82,-22.97,-75.91,0.7521,-0.6484,-0.006500000000000001,-0.1174,0.001,-0.009000000000000001,-0.005
2025-11-06 18:32:56.185,39.47,-0.003,-0.036000000000000004,0.002,-0.138,-0.968,-0.154,27.82,-22.97,-75.91,0.752,-0.6485000000000001,-0.0063,-0.11750000000000001,0.002,-0.008,-0.004
2025-11-06 18:32:56.185,39.475,-0.003,-0.038,0.003,-0.14,-0.97,-0.155,27.76,-23.53,-75.27,0.7519,-0.6486000000000001,-0.006,-0.11760000000000001,0.003,-0.007,-0.003
2025-11-06 18:32:56.185,39.48,-0.003,-0.034,0.001,-0.139,-0.973,-0.155,27.76,-23.53,-75.27,0.7518,-0.6487,-0.0059,-0.11760000000000001,0.002,-0.003,-0.003
2025-11-06 18:32:56.185,39.485,-0.006,-0.031,0.001,-0.139,-0.971,-0.155,28.03,-23.82,-75.27,0.7517,-0.6488,-0.0057,-0.1177,0.002,-0.006,-0.003
2025-11-06 18:32:56.185,39.49,-0.005,-0.027,0.001,-0.137,-0.969,-0.155,28.03,-23.82,-75.27,0.7517,-0.6488,-0.0056,-0.1177,0.0,-0.007,-0.002
2025-11-06 18:32:56.185,39.495,-0.002,-0.027,0.001,-0.139,-0.965,-0.155,28.03,-23.82,-75.27,0.7516,-0.6489,-0.0054,-0.1177,0.001,-0.011,-0.002
2025-11-06 18:32:56.185,39.5,0.0,-0.028,0.0,-0.14,-0.962,-0.156,27.560000000000002,-23.38,-75.97,0.7516,-0.6489,-0.005200000000000001,-0.1178,0.002,-0.014,-0.002
2025-11-06 18:32:56.185,39.505,-0.002,-0.019,-0.002,-0.139,-0.961,-0.154,27.560000000000002,-23.38,-75.97,0.7516,-0.6489,-0.0051,-0.1179,0.0,-0.015,-0.003
2025-11-06 18:32:56.187,39.51,0.0,-0.018000000000000002,0.0,-0.138,-0.963,-0.156,27.59,-24.05,-75.88,0.7516,-0.6489,-0.005,-0.1179,0.0,-0.014,-0.001
2025-11-06 18:32:56.187,39.515,0.005,-0.02,0.0,-0.138,-0.965,-0.155,27.59,-24.05,-75.88,0.7516,-0.6489,-0.0049,-0.1179,0.0,-0.011,-0.002
2025-11-06 18:32:56.187,39.52,0.01,-0.018000000000000002,0.004,-0.138,-0.967,-0.156,27.59,-24.05,-75.88,0.7515000000000001,-0.6489,-0.0048000000000000004,-0.1179,0.0,-0.009000000000000001,-0.001
2025-11-06 18:32:56.187,39.525,0.012,-0.019,0.003,-0.138,-0.97,-0.155,28.61,-23.12,-75.76,0.7515000000000001,-0.649,-0.0047,-0.1179,0.0,-0.007,-0.002
2025-11-06 18:32:56.187,39.53,0.009000000000000001,-0.017,0.001,-0.14,-0.967,-0.152,28.61,-23.12,-75.76,0.7513000000000001,-0.6492,-0.0046,-0.11800000000000001,0.001,-0.009000000000000001,-0.005
2025-11-06 18:32:56.187,39.535,0.007,-0.018000000000000002,0.002,-0.14,-0.966,-0.153,27.68,-22.62,-75.62,0.7512000000000001,-0.6493,-0.0044,-0.11800000000000001,0.001,-0.01,-0.004
2025-11-06 18:32:56.187,39.54,0.003,-0.016,0.002,-0.14,-0.964,-0.153,27.68,-22.62,-75.62,0.7512000000000001,-0.6493,-0.0043,-0.11810000000000001,0.0,-0.013000000000000001,-0.003
2025-11-06 18:32:56.187,39.545,0.002,-0.016,0.001,-0.14,-0.965,-0.152,27.97,-23.09,-75.29,0.7511,-0.6494,-0.004200000000000001,-0.11810000000000001,0.0,-0.011,-0.004
2025-11-06 18:32:56.187,39.55,0.002,-0.015,0.001,-0.14100000000000001,-0.964,-0.153,27.97,-23.09,-75.29,0.751,-0.6495000000000001,-0.0041,-0.11810000000000001,0.0,-0.013000000000000001,-0.003
2025-11-06 18:32:56.187,39.555,0.007,-0.014,0.003,-0.14200000000000002,-0.964,-0.151,27.97,-23.09,-75.29,0.7509,-0.6496000000000001,-0.0039000000000000003,-0.1182,0.001,-0.012,-0.004
2025-11-06 18:32:56.187,39.56,0.012,-0.01,0.003,-0.14400000000000002,-0.965,-0.149,28.5,-23.23,-75.53,0.7507,-0.6498,-0.0037,-0.1183,0.003,-0.011,-0.006
2025-11-06 18:32:56.187,39.565,0.012,-0.005,0.003,-0.145,-0.964,-0.147,28.5,-23.23,-75.53,0.7505000000000001,-0.6501,-0.0035,-0.11850000000000001,0.003,-0.012,-0.008
2025-11-06 18:32:56.187,39.57,0.015,-0.001,0.003,-0.147,-0.965,-0.147,27.71,-22.94,-76.11,0.7503000000000001,-0.6503,-0.0033,-0.1187,0.005,-0.011,-0.006
2025-11-06 18:32:56.187,39.575,0.013000000000000001,-0.002,0.006,-0.15,-0.965,-0.147,27.71,-22.94,-76.11,0.75,-0.6505000000000001,-0.003,-0.1189,0.007,-0.012,-0.006
2025-11-06 18:32:56.187,39.58,0.014,0.001,0.004,-0.151,-0.967,-0.146,27.71,-22.94,-76.11,0.7498,-0.6507000000000001,-0.0026000000000000003,-0.1192,0.007,-0.009000000000000001,-0.006
2025-11-06 18:32:56.187,39.585,0.018000000000000002,0.002,0.008,-0.15,-0.967,-0.146,28.12,-23.2,-75.65,0.7496,-0.6509,-0.0024000000000000002,-0.1194,0.005,-0.01,-0.006
2025-11-06 18:32:56.187,39.59,0.019,0.008,0.008,-0.149,-0.968,-0.147,28.12,-23.2,-75.65,0.7494000000000001,-0.6511,-0.0022,-0.11960000000000001,0.004,-0.008,-0.005
2025-11-06 18:32:56.187,39.595,0.021,0.01,0.009000000000000001,-0.148,-0.969,-0.146,27.5,-22.85,-76.32000000000001,0.7492000000000001,-0.6513,-0.0021000000000000003,-0.1197,0.002,-0.007,-0.005
2025-11-06 18:32:56.187,39.6,0.023,0.011,0.01,-0.147,-0.968,-0.147,27.5,-22.85,-76.32000000000001,0.7491,-0.6514,-0.002,-0.1198,0.001,-0.008,-0.004
2025-11-06 18:32:56.187,39.605,0.025,0.013000000000000001,0.01,-0.146,-0.969,-0.149,27.5,-22.85,-76.32000000000001,0.749,-0.6515000000000001,-0.002,-0.1199,0.0,-0.008,-0.001
2025-11-06 18:32:56.187,39.61,0.026000000000000002,0.016,0.008,-0.14200000000000002,-0.966,-0.151,27.53,-24.75,-75.21000000000001,0.749,-0.6515000000000001,-0.0021000000000000003,-0.1199,-0.003,-0.01,0.0
2025-11-06 18:32:56.187,39.615,0.028,0.017,0.01,-0.14,-0.964,-0.153,27.53,-24.75,-75.21000000000001,0.7491,-0.6514,-0.0022,-0.1198,-0.005,-0.012,0.002
2025-11-06 18:32:56.188,39.62,0.028,0.019,0.008,-0.137,-0.965,-0.158,28.0,-23.0,-75.06,0.7494000000000001,-0.6511,-0.0025,-0.1197,-0.007,-0.011,0.005
2025-11-06 18:32:56.188,39.625,0.026000000000000002,0.018000000000000002,0.006,-0.136,-0.965,-0.158,28.0,-23.0,-75.06,0.7496,-0.6509,-0.0027,-0.11960000000000001,-0.008,-0.011,0.005
2025-11-06 18:32:56.188,39.63,0.026000000000000002,0.018000000000000002,0.006,-0.133,-0.965,-0.158,28.0,-23.0,-75.06,0.7498,-0.6507000000000001,-0.0031000000000000003,-0.1194,-0.01,-0.011,0.005
2025-11-06 18:32:56.188,39.635,0.023,0.018000000000000002,0.004,-0.133,-0.965,-0.156,27.79,-23.150000000000002,-75.62,0.7499,-0.6506000000000001,-0.0034000000000000002,-0.1193,-0.009000000000000001,-0.011,0.002
2025-11-06 18:32:56.188,39.64,0.023,0.016,0.005,-0.134,-0.968,-0.153,27.79,-23.150000000000002,-75.62,0.75,-0.6505000000000001,-0.0037,-0.11910000000000001,-0.008,-0.009000000000000001,0.0
2025-11-06 18:32:56.188,39.645,0.022,0.008,0.004,-0.135,-0.969,-0.152,27.740000000000002,-24.11,-75.88,0.7499,-0.6506000000000001,-0.0039000000000000003,-0.1189,-0.007,-0.008,-0.001
2025-11-06 18:32:56.188,39.65,0.021,0.007,0.004,-0.137,-0.97,-0.15,27.740000000000002,-24.11,-75.88,0.7499,-0.6507000000000001,-0.004,-0.1189,-0.004,-0.007,-0.002
2025-11-06 18:32:56.188,39.655,0.019,0.005,0.004,-0.14,-0.972,-0.15,27.88,-23.32,-75.82000000000001,0.7498,-0.6508,-0.004,-0.1188,-0.001,-0.004,-0.002
2025-11-06 18:32:56.188,39.66,0.017,0.002,0.004,-0.14200000000000002,-0.973,-0.15,27.88,-23.32,-75.82000000000001,0.7497,-0.6509,-0.004,-0.1189,0.001,-0.004,-0.002
2025-11-06 18:32:56.188,39.665,0.016,0.0,0.003,-0.14400000000000002,-0.973,-0.15,27.88,-23.32,-75.82000000000001,0.7496,-0.651,-0.0039000000000000003,-0.11900000000000001,0.002,-0.004,-0.002
2025-11-06 18:32:56.188,39.67,0.013000000000000001,0.005,0.006,-0.14400000000000002,-0.973,-0.151,28.29,-22.97,-75.7,0.7495,-0.651,-0.0038,-0.11910000000000001,0.002,-0.004,-0.001
2025-11-06 18:32:56.188,39.675,0.013000000000000001,0.003,0.007,-0.145,-0.973,-0.152,28.29,-22.97,-75.7,0.7495,-0.651,-0.0037,-0.1192,0.002,-0.004,0.0
2025-11-06 18:32:56.188,39.68,0.011,0.003,0.004,-0.145,-0.969,-0.152,28.2,-22.94,-75.62,0.7495,-0.651,-0.0035,-0.1194,0.002,-0.008,0.0
2025-11-06 18:32:56.188,39.685,0.009000000000000001,0.01,0.004,-0.145,-0.967,-0.153,28.2,-22.94,-75.62,0.7495,-0.651,-0.0034000000000000002,-0.11950000000000001,0.002,-0.009000000000000001,0.0
2025-11-06 18:32:56.188,39.69,0.012,0.01,0.004,-0.145,-0.966,-0.152,28.2,-22.94,-75.62,0.7495,-0.6509,-0.0033,-0.11960000000000001,0.001,-0.01,0.0
2025-11-06 18:32:56.188,39.695,0.011,0.01,0.003,-0.14300000000000002,-0.968,-0.152,28.12,-23.47,-75.85000000000001,0.7495,-0.6509,-0.0033,-0.1197,0.0,-0.009000000000000001,0.0
2025-11-06 18:32:56.188,39.7,0.012,0.009000000000000001,0.002,-0.14400000000000002,-0.968,-0.15,28.12,-23.47,-75.85000000000001,0.7495,-0.651,-0.0033,-0.1198,0.0,-0.009000000000000001,-0.002
2025-11-06 18:32:56.188,39.705,0.009000000000000001,0.007,0.004,-0.14400000000000002,-0.97,-0.148,27.79,-23.5,-75.91,0.7494000000000001,-0.6511,-0.0032,-0.1198,0.0,-0.006,-0.003
2025-11-06 18:32:56.188,39.71,0.009000000000000001,0.002,0.004,-0.14200000000000002,-0.97,-0.148,27.79,-23.5,-75.91,0.7493000000000001,-0.6512,-0.0033,-0.1198,-0.001,-0.007,-0.003
2025-11-06 18:32:56.188,39.715,0.009000000000000001,0.003,0.004,-0.14300000000000002,-0.971,-0.149,27.79,-23.5,-75.91,0.7492000000000001,-0.6512,-0.0033,-0.1198,-0.001,-0.006,-0.002
2025-11-06 18:32:56.188,39.72,0.006,0.002,0.003,-0.14100000000000001,-0.969,-0.148,28.55,-23.41,-75.44,0.7492000000000001,-0.6513,-0.0033,-0.1198,-0.002,-0.008,-0.003
2025-11-06 18:32:56.188,39.725,0.007,0.002,0.002,-0.14200000000000002,-0.97,-0.152,28.55,-23.41,-75.44,0.7492000000000001,-0.6513,-0.0033,-0.1198,-0.001,-0.007,0.0
2025-11-06 18:32:56.189,39.73,0.002,0.003,0.001,-0.14200000000000002,-0.968,-0.154,28.38,-22.88,-75.24,0.7493000000000001,-0.6511,-0.0033,-0.1198,-0.002,-0.008,0.002
2025-11-06 18:32:56.189,39.735,0.002,0.0,0.0,-0.14100000000000001,-0.969,-0.154,28.38,-22.88,-75.24,0.7494000000000001,-0.651,-0.0034000000000000002,-0.1197,-0.002,-0.007,0.001
2025-11-06 18:32:56.189,39.74,0.001,0.002,0.0,-0.14,-0.97,-0.156,28.47,-23.09,-75.38,0.7496,-0.6509,-0.0035,-0.1197,-0.003,-0.006,0.003
2025-11-06 18:32:56.189,39.745,0.001,-0.001,0.0,-0.14,-0.969,-0.157,28.47,-23.09,-75.38,0.7498,-0.6507000000000001,-0.0036000000000000003,-0.1197,-0.003,-0.008,0.004
2025-11-06 18:32:56.189,39.75,0.003,-0.003,-0.001,-0.139,-0.969,-0.157,28.47,-23.09,-75.38,0.7499,-0.6505000000000001,-0.0036000000000000003,-0.11960000000000001,-0.003,-0.007,0.003
2025-11-06 18:32:56.189,39.755,0.002,-0.002,-0.001,-0.139,-0.97,-0.157,29.05,-25.16,-75.5,0.75,-0.6504,-0.0037,-0.11960000000000001,-0.003,-0.007,0.003
2025-11-06 18:32:56.189,39.76,-0.001,-0.005,0.0,-0.139,-0.971,-0.157,29.05,-25.16,-75.5,0.7502000000000001,-0.6502,-0.0038,-0.11950000000000001,-0.003,-0.006,0.003
2025-11-06 18:32:56.189,39.765,-0.001,-0.01,0.001,-0.14,-0.969,-0.155,28.41,-23.06,-75.56,0.7502000000000001,-0.6501,-0.0038,-0.11950000000000001,-0.002,-0.007,0.0
2025-11-06 18:32:56.189,39.77,-0.002,-0.009000000000000001,-0.001,-0.14,-0.97,-0.154,28.41,-23.06,-75.56,0.7503000000000001,-0.6501,-0.0039000000000000003,-0.1194,-0.002,-0.006,0.0
2025-11-06 18:32:56.189,39.775,-0.004,-0.004,-0.002,-0.139,-0.969,-0.152,28.41,-23.06,-75.56,0.7503000000000001,-0.6501,-0.0039000000000000003,-0.1193,-0.003,-0.007,-0.002
2025-11-06 18:32:56.189,39.78,-0.003,-0.003,-0.002,-0.138,-0.967,-0.15,28.76,-23.82,-75.85000000000001,0.7502000000000001,-0.6502,-0.004,-0.1192,-0.003,-0.01,-0.004
2025-11-06 18:32:56.189,39.785,-0.004,0.0,-0.001,-0.139,-0.964,-0.15,28.76,-23.82,-75.85000000000001,0.7502000000000001,-0.6503,-0.0041,-0.1192,-0.003,-0.012,-0.004
2025-11-06 18:32:56.189,39.79,-0.006,0.003,0.0,-0.139,-0.966,-0.15,27.62,-22.85,-74.97,0.7501,-0.6504,-0.0041,-0.1192,-0.002,-0.011,-0.004
2025-11-06 18:32:56.190,39.795,-0.005,0.007,-0.001,-0.138,-0.967,-0.151,27.62,-22.85,-74.97,0.7501,-0.6504,-0.004200000000000001,-0.11910000000000001,-0.003,-0.01,-0.002
2025-11-06 18:32:56.190,39.8,-0.003,0.011,-0.002,-0.138,-0.968,-0.152,27.62,-22.85,-74.97,0.7501,-0.6504,-0.0043,-0.11910000000000001,-0.003,-0.009000000000000001,-0.002
2025-11-06 18:32:56.190,39.805,-0.004,0.011,-0.001,-0.139,-0.968,-0.154,28.2,-23.09,-75.47,0.7501,-0.6503,-0.0043,-0.11910000000000001,-0.001,-0.008,0.0
2025-11-06 18:32:56.190,39.81,-0.004,0.016,0.001,-0.139,-0.97,-0.155,28.2,-23.09,-75.47,0.7502000000000001,-0.6503,-0.0044,-0.11910000000000001,-0.002,-0.007,0.0
2025-11-06 18:32:56.190,39.815,-0.004,0.013000000000000001,0.0,-0.139,-0.969,-0.157,28.23,-23.2,-75.38,0.7503000000000001,-0.6501,-0.0044,-0.11910000000000001,-0.002,-0.008,0.002
2025-11-06 18:32:56.190,39.82,-0.006,0.01,0.0,-0.14,-0.969,-0.161,28.23,-23.2,-75.38,0.7506,-0.6498,-0.0044,-0.11910000000000001,-0.001,-0.007,0.006
2025-11-06 18:32:56.190,39.825,-0.004,0.01,0.002,-0.138,-0.97,-0.161,27.85,-22.94,-75.56,0.7508,-0.6496000000000001,-0.0045000000000000005,-0.11910000000000001,-0.002,-0.006,0.004
2025-11-06 18:32:56.190,39.83,-0.002,0.005,0.003,-0.139,-0.969,-0.161,27.85,-22.94,-75.56,0.7509,-0.6494,-0.0045000000000000005,-0.1192,-0.001,-0.008,0.004
2025-11-06 18:32:56.190,39.835,0.0,0.006,0.001,-0.14,-0.968,-0.161,27.85,-22.94,-75.56,0.7511,-0.6492,-0.0045000000000000005,-0.1192,0.0,-0.008,0.003
2025-11-06 18:32:56.192,39.84,0.001,0.007,0.003,-0.139,-0.966,-0.161,27.71,-22.94,-76.11,0.7512000000000001,-0.649,-0.0045000000000000005,-0.1193,-0.001,-0.01,0.003
2025-11-06 18:32:56.192,39.845,0.002,0.006,0.001,-0.138,-0.963,-0.16,27.71,-22.94,-76.11,0.7514000000000001,-0.6489,-0.0045000000000000005,-0.1193,-0.002,-0.013000000000000001,0.002
2025-11-06 18:32:56.192,39.85,0.006,0.008,0.001,-0.138,-0.964,-0.16,27.88,-23.44,-75.85000000000001,0.7515000000000001,-0.6487,-0.0045000000000000005,-0.1193,-0.002,-0.012,0.001
2025-11-06 18:32:56.192,39.855,0.004,0.005,-0.001,-0.138,-0.965,-0.158,27.88,-23.44,-75.85000000000001,0.7515000000000001,-0.6487,-0.0046,-0.1193,-0.002,-0.011,0.0
2025-11-06 18:32:56.192,39.86,0.006,0.002,0.001,-0.139,-0.966,-0.154,27.88,-23.44,-75.85000000000001,0.7515000000000001,-0.6488,-0.0046,-0.1193,-0.001,-0.01,-0.003
2025-11-06 18:32:56.192,39.865,0.009000000000000001,0.002,0.0,-0.14,-0.966,-0.153,27.85,-23.26,-75.18,0.7514000000000001,-0.6489,-0.0046,-0.1193,0.0,-0.01,-0.004
2025-11-06 18:32:56.192,39.87,0.006,0.007,0.0,-0.139,-0.965,-0.153,27.85,-23.26,-75.18,0.7513000000000001,-0.649,-0.0046,-0.1193,-0.002,-0.011,-0.004
2025-11-06 18:32:56.192,39.875,0.006,0.007,0.0,-0.138,-0.967,-0.152,28.03,-22.68,-75.32000000000001,0.7511,-0.6491,-0.0046,-0.1193,-0.002,-0.009000000000000001,-0.005
2025-11-06 18:32:56.192,39.88,0.006,0.007,0.0,-0.137,-0.967,-0.153,28.03,-22.68,-75.32000000000001,0.7511,-0.6492,-0.0047,-0.1192,-0.003,-0.009000000000000001,-0.003
2025-11-06 18:32:56.192,39.885,0.006,0.002,0.001,-0.137,-0.968,-0.156,28.03,-22.68,-75.32000000000001,0.7511,-0.6492,-0.0048000000000000004,-0.1192,-0.003,-0.008,-0.001
2025-11-06 18:32:56.192,39.89,0.004,0.002,0.002,-0.136,-0.968,-0.156,28.0,-22.740000000000002,-74.89,0.7511,-0.6492,-0.0049,-0.11910000000000001,-0.004,-0.009000000000000001,0.0
2025-11-06 18:32:56.192,39.895,0.004,-0.002,0.0,-0.134,-0.969,-0.156,28.0,-22.740000000000002,-74.89,0.7512000000000001,-0.6492,-0.0051,-0.11900000000000001,-0.005,-0.008,0.0
2025-11-06 18:32:56.192,39.9,0.002,-0.001,0.0,-0.132,-0.969,-0.157,28.76,-24.64,-75.67,0.7512000000000001,-0.6491,-0.0053,-0.1188,-0.006,-0.007,0.0
2025-11-06 18:32:56.192,39.905,0.002,0.0,-0.002,-0.131,-0.968,-0.159,28.76,-24.64,-75.67,0.7514000000000001,-0.649,-0.0055000000000000005,-0.1187,-0.007,-0.009000000000000001,0.002
2025-11-06 18:32:56.192,39.91,0.001,0.0,0.0,-0.133,-0.968,-0.16,28.76,-24.64,-76.17,0.7515000000000001,-0.6489,-0.0056,-0.11860000000000001,-0.005,-0.009000000000000001,0.002
2025-11-06 18:32:56.192,39.915,0.001,0.005,-0.001,-0.132,-0.966,-0.161,27.85,-22.94,-76.17,0.7516,-0.6487,-0.0058000000000000005,-0.11850000000000001,-0.005,-0.01,0.002
2025-11-06 18:32:56.192,39.92,0.0,0.008,-0.001,-0.133,-0.967,-0.162,27.85,-22.94,-76.17,0.7518,-0.6485000000000001,-0.0059,-0.1184,-0.004,-0.009000000000000001,0.003
2025-11-06 18:32:56.192,39.925,-0.001,0.007,-0.001,-0.134,-0.964,-0.163,28.14,-23.67,-75.38,0.752,-0.6483,-0.006,-0.1184,-0.003,-0.012,0.003
2025-11-06 18:32:56.192,39.93,0.002,0.008,0.0,-0.136,-0.966,-0.163,28.14,-23.67,-75.38,0.7522000000000001,-0.6481,-0.006,-0.1184,-0.001,-0.01,0.003
2025-11-06 18:32:56.192,39.935,0.001,0.008,0.0,-0.137,-0.966,-0.161,27.97,-23.29,-76.0,0.7522000000000001,-0.648,-0.0059,-0.11850000000000001,0.0,-0.01,0.001
2025-11-06 18:32:56.192,39.94,0.007,0.008,0.0,-0.138,-0.967,-0.16,27.97,-23.29,-76.0,0.7523000000000001,-0.648,-0.0059,-0.11850000000000001,0.001,-0.009000000000000001,0.0
2025-11-06 18:32:56.192,39.945,0.009000000000000001,0.01,-0.001,-0.14,-0.966,-0.161,27.97,-23.29,-76.0,0.7523000000000001,-0.6479,-0.0057,-0.1187,0.002,-0.01,0.001
2025-11-06 18:32:56.192,39.95,0.009000000000000001,0.013000000000000001,0.0,-0.14,-0.967,-0.161,27.97,-22.88,-75.21000000000001,0.7524000000000001,-0.6478,-0.0056,-0.1188,0.002,-0.009000000000000001,0.0
2025-11-06 18:32:56.192,39.955,0.009000000000000001,0.01,0.001,-0.14100000000000001,-0.965,-0.159,27.97,-22.88,-75.21000000000001,0.7523000000000001,-0.6478,-0.0055000000000000005,-0.11900000000000001,0.002,-0.011,-0.001
2025-11-06 18:32:56.192,39.96,0.012,0.008,0.001,-0.14,-0.966,-0.16,28.0,-22.88,-75.5,0.7523000000000001,-0.6478,-0.0054,-0.11910000000000001,0.001,-0.01,0.0
2025-11-06 18:32:56.192,39.965,0.013000000000000001,0.005,0.001,-0.14,-0.965,-0.158,28.0,-22.88,-75.5,0.7523000000000001,-0.6478,-0.0053,-0.11910000000000001,0.0,-0.011,-0.002
2025-11-06 18:32:56.192,39.97,0.012,0.004,0.0,-0.137,-0.964,-0.16,28.0,-22.88,-75.5,0.7523000000000001,-0.6478,-0.0053,-0.1192,-0.001,-0.012,0.0
2025-11-06 18:32:56.192,39.975,0.012,0.004,0.001,-0.138,-0.967,-0.159,27.71,-22.88,-75.82000000000001,0.7523000000000001,-0.6478,-0.0053,-0.1192,0.0,-0.009000000000000001,-0.001
2025-11-06 18:32:56.192,39.98,0.015,0.002,0.002,-0.138,-0.968,-0.161,27.71,-22.88,-75.82000000000001,0.7523000000000001,-0.6478,-0.0053,-0.1192,0.0,-0.007,0.0
2025-11-06 18:32:56.192,39.985,0.012,0.003,0.004,-0.137,-0.969,-0.159,28.29,-23.23,-75.0,0.7523000000000001,-0.6478,-0.0053,-0.1192,-0.001,-0.007,-0.001
2025-11-06 18:32:56.192,39.99,0.01,0.002,0.003,-0.137,-0.971,-0.16,28.29,-23.23,-75.0,0.7523000000000001,-0.6478,-0.0053,-0.1192,-0.001,-0.005,0.0
2025-11-06 18:32:56.192,39.995,0.01,0.002,0.003,-0.137,-0.971,-0.158,28.29,-23.23,-75.0,0.7523000000000001,-0.6479,-0.0054,-0.1192,-0.001,-0.005,-0.002
2025-11-06 18:32:56.192,40.0,0.007,0.002,0.002,-0.138,-0.97,-0.157,27.79,-23.12,-75.27,0.7522000000000001,-0.6479,-0.0054,-0.1192,0.0,-0.005,-0.002
2025-11-06 18:32:56.192,40.005,0.005,0.0,0.003,-0.14,-0.969,-0.159,27.79,-23.12,-75.27,0.7522000000000001,-0.6479,-0.0053,-0.1193,0.001,-0.007,0.0
2025-11-06 18:32:56.192,40.01,0.004,-0.002,0.0,-0.14,-0.967,-0.161,27.79,-23.18,-74.62,0.7522000000000001,-0.6479,-0.005200000000000001,-0.1193,0.0,-0.008,0.0
2025-11-06 18:32:56.192,40.015,-0.001,0.0,0.0,-0.14,-0.968,-0.161,27.79,-23.18,-74.62,0.7523000000000001,-0.6478,-0.005200000000000001,-0.1194,0.0,-0.007,0.0
2025-11-06 18:32:56.192,40.02,-0.001,-0.001,0.001,-0.139,-0.967,-0.161,27.94,-22.97,-75.18,0.7523000000000001,-0.6477,-0.0051,-0.1194,0.0,-0.008,0.0
2025-11-06 18:32:56.192,40.025,-0.002,-0.007,0.0,-0.137,-0.969,-0.161,27.94,-22.97,-75.18,0.7524000000000001,-0.6477,-0.005200000000000001,-0.1193,-0.002,-0.007,0.0
2025-11-06 18:32:56.192,40.03,-0.004,-0.007,0.001,-0.138,-0.968,-0.159,27.94,-22.97,-75.18,0.7524000000000001,-0.6477,-0.005200000000000001,-0.1193,-0.001,-0.007,-0.001
2025-11-06 18:32:56.192,40.035,-0.006,-0.009000000000000001,0.001,-0.137,-0.971,-0.157,27.85,-23.03,-75.7,0.7523000000000001,-0.6478,-0.005200000000000001,-0.1193,-0.002,-0.005,-0.003
2025-11-06 18:32:56.193,40.04,-0.006,-0.014,0.001,-0.136,-0.969,-0.155,27.85,-23.03,-75.7,0.7522000000000001,-0.6479,-0.0053,-0.11910000000000001,-0.003,-0.007,-0.005
2025-11-06 18:32:56.193,40.045,-0.004,-0.016,0.0,-0.137,-0.971,-0.154,27.94,-24.93,-75.76,0.7521,-0.6481,-0.0053,-0.11910000000000001,-0.002,-0.005,-0.005
2025-11-06 18:32:56.193,40.05,-0.001,-0.017,0.001,-0.138,-0.97,-0.153,27.94,-24.93,-75.76,0.752,-0.6482,-0.0053,-0.11900000000000001,-0.001,-0.006,-0.006
2025-11-06 18:32:56.195,40.055,-0.002,-0.018000000000000002,0.0,-0.137,-0.968,-0.154,27.94,-24.93,-75.76,0.7519,-0.6484,-0.0053,-0.1189,-0.001,-0.008,-0.004
2025-11-06 18:32:56.195,40.06,-0.003,-0.02,0.0,-0.137,-0.967,-0.154,27.97,-22.77,-76.35000000000001,0.7518,-0.6485000000000001,-0.005200000000000001,-0.1189,-0.001,-0.009000000000000001,-0.004
2025-11-06 18:32:56.195,40.065,-0.004,-0.016,0.0,-0.139,-0.967,-0.154,27.97,-22.77,-76.35000000000001,0.7517,-0.6486000000000001,-0.0051,-0.1189,0.0,-0.009000000000000001,-0.004
2025-11-06 18:32:56.195,40.07,-0.005,-0.016,-0.001,-0.139,-0.967,-0.153,28.7,-23.64,-75.15,0.7516,-0.6487,-0.0051,-0.1189,0.0,-0.009000000000000001,-0.005
2025-11-06 18:32:56.195,40.075,-0.004,-0.011,-0.001,-0.14,-0.966,-0.153,28.7,-23.64,-75.15,0.7515000000000001,-0.6488,-0.005,-0.1189,0.0,-0.01,-0.004
2025-11-06 18:32:56.195,40.08,-0.004,-0.013000000000000001,-0.002,-0.14,-0.966,-0.153,28.7,-23.64,-75.15,0.7514000000000001,-0.6489,-0.0049,-0.1189,0.0,-0.011,-0.004
2025-11-06 18:32:56.195,40.085,0.001,-0.009000000000000001,-0.001,-0.14,-0.965,-0.153,28.2,-23.150000000000002,-75.38,0.7513000000000001,-0.649,-0.0048000000000000004,-0.11900000000000001,0.0,-0.011,-0.004
2025-11-06 18:32:56.195,40.09,0.004,-0.011,0.0,-0.139,-0.964,-0.153,28.2,-23.150000000000002,-75.38,0.7513000000000001,-0.6491,-0.0048000000000000004,-0.11900000000000001,-0.001,-0.013000000000000001,-0.003
2025-11-06 18:32:56.195,40.095,0.008,-0.012,-0.002,-0.14,-0.964,-0.153,28.12,-23.2,-75.62,0.7512000000000001,-0.6491,-0.0047,-0.11900000000000001,0.0,-0.012,-0.003
2025-11-06 18:32:56.195,40.1,0.009000000000000001,-0.013000000000000001,-0.002,-0.137,-0.966,-0.153,28.12,-23.2,-75.62,0.7511,-0.6492,-0.0047,-0.1189,-0.002,-0.01,-0.003
2025-11-06 18:32:56.195,40.105,0.012,-0.014,-0.003,-0.137,-0.966,-0.152,27.97,-25.28,-75.79,0.751,-0.6493,-0.0048000000000000004,-0.1188,-0.003,-0.01,-0.004
2025-11-06 18:32:56.195,40.11,0.013000000000000001,-0.016,-0.002,-0.137,-0.969,-0.151,27.97,-25.28,-75.79,0.7509,-0.6495000000000001,-0.0048000000000000004,-0.1187,-0.002,-0.008,-0.004
2025-11-06 18:32:56.195,40.115,0.013000000000000001,-0.021,-0.001,-0.134,-0.971,-0.152,27.97,-25.28,-75.79,0.7509,-0.6496000000000001,-0.0049,-0.11850000000000001,-0.004,-0.005,-0.003
2025-11-06 18:32:56.195,40.12,0.01,-0.021,-0.004,-0.136,-0.974,-0.151,27.71,-23.09,-76.23,0.7507,-0.6498,-0.005,-0.1184,-0.003,-0.002,-0.004
2025-11-06 18:32:56.195,40.125,0.005,-0.021,-0.004,-0.134,-0.976,-0.148,27.71,-23.09,-76.23,0.7506,-0.65,-0.0051,-0.1182,-0.004,-0.001,-0.006
2025-11-06 18:32:56.195,40.13,0.0,-0.024,-0.002,-0.136,-0.976,-0.146,28.23,-23.23,-75.59,0.7504000000000001,-0.6503,-0.0051,-0.11800000000000001,-0.002,-0.001,-0.007
2025-11-06 18:32:56.195,40.135,0.003,-0.024,-0.001,-0.137,-0.973,-0.146,28.23,-23.23,-75.59,0.7502000000000001,-0.6505000000000001,-0.0051,-0.1179,-0.001,-0.004,-0.007
2025-11-06 18:32:56.195,40.14,0.0,-0.027,0.0,-0.138,-0.976,-0.147,28.23,-23.23,-75.59,0.75,-0.6507000000000001,-0.0051,-0.1179,0.0,-0.001,-0.006
2025-11-06 18:32:56.195,40.145,-0.002,-0.026000000000000002,0.0,-0.139,-0.975,-0.146,27.62,-22.71,-75.7,0.7498,-0.6509,-0.005,-0.1178,0.0,-0.002,-0.006
2025-11-06 18:32:56.195,40.15,-0.006,-0.025,0.0,-0.14300000000000002,-0.975,-0.149,27.62,-22.71,-75.7,0.7497,-0.651,-0.0048000000000000004,-0.1179,0.003,-0.002,-0.003
2025-11-06 18:32:56.195,40.155,-0.013000000000000001,-0.025,0.0,-0.145,-0.976,-0.151,27.91,-22.8,-75.73,0.7497,-0.651,-0.0045000000000000005,-0.11810000000000001,0.006,-0.001,0.0
2025-11-06 18:32:56.195,40.16,-0.016,-0.026000000000000002,0.002,-0.145,-0.976,-0.152,27.91,-22.8,-75.73,0.7497,-0.651,-0.0043,-0.1182,0.005,-0.001,0.0
2025-11-06 18:32:56.196,40.165,-0.025,-0.028,0.0,-0.146,-0.977,-0.153,27.91,-22.8,-75.73,0.7497,-0.651,-0.0041,-0.1184,0.005,0.0,0.0
2025-11-06 18:32:56.196,40.17,-0.033,-0.03,0.0,-0.146,-0.976,-0.155,27.560000000000002,-23.32,-75.91,0.7498,-0.6508,-0.0038,-0.11850000000000001,0.005,-0.001,0.002
2025-11-06 18:32:56.196,40.175,-0.044,-0.029,-0.002,-0.145,-0.975,-0.155,27.560000000000002,-23.32,-75.91,0.75,-0.6507000000000001,-0.0036000000000000003,-0.11860000000000001,0.003,-0.001,0.002
2025-11-06 18:32:56.196,40.18,-0.05,-0.031,-0.004,-0.14400000000000002,-0.976,-0.154,28.0,-22.88,-75.76,0.75,-0.6505000000000001,-0.0035,-0.11860000000000001,0.002,-0.001,0.0
2025-11-06 18:32:56.196,40.185,-0.052000000000000005,-0.033,-0.005,-0.14,-0.976,-0.154,28.0,-22.88,-75.76,0.7502000000000001,-0.6504,-0.0035,-0.11850000000000001,-0.001,-0.001,0.0
2025-11-06 18:32:56.196,40.19,-0.056,-0.034,-0.006,-0.14200000000000002,-0.976,-0.155,28.09,-22.88,-75.41,0.7503000000000001,-0.6503,-0.0034000000000000002,-0.11850000000000001,0.0,0.0,0.001
2025-11-06 18:32:56.196,40.195,-0.059000000000000004,-0.041,-0.007,-0.137,-0.977,-0.153,28.09,-23.03,-75.41,0.7504000000000001,-0.6502,-0.0034000000000000002,-0.1182,-0.004,0.0,0.0
2025-11-06 18:32:56.196,40.2,-0.063,-0.044,-0.008,-0.135,-0.976,-0.152,28.09,-23.03,-75.41,0.7505000000000001,-0.6502,-0.0035,-0.11800000000000001,-0.005,-0.001,-0.002
2025-11-06 18:32:56.196,40.205,-0.067,-0.046,-0.007,-0.134,-0.974,-0.149,27.740000000000002,-23.03,-75.62,0.7505000000000001,-0.6502,-0.0036000000000000003,-0.1177,-0.006,-0.003,-0.005
2025-11-06 18:32:56.196,40.21,-0.07100000000000001,-0.051000000000000004,-0.01,-0.134,-0.972,-0.148,27.740000000000002,-23.03,-75.62,0.7505000000000001,-0.6503,-0.0037,-0.1174,-0.005,-0.005,-0.006
2025-11-06 18:32:56.196,40.215,-0.074,-0.052000000000000005,-0.009000000000000001,-0.135,-0.972,-0.14300000000000002,27.82,-23.03,-75.03,0.7503000000000001,-0.6505000000000001,-0.0037,-0.11710000000000001,-0.004,-0.005,-0.01
2025-11-06 18:32:56.196,40.22,-0.074,-0.049,-0.01,-0.136,-0.97,-0.14,27.82,-23.03,-75.03,0.7501,-0.6508,-0.0037,-0.1169,-0.003,-0.007,-0.013000000000000001
2025-11-06 18:32:56.196,40.225,-0.07100000000000001,-0.043000000000000003,-0.009000000000000001,-0.137,-0.966,-0.136,27.82,-23.03,-75.03,0.7498,-0.6511,-0.0037,-0.11670000000000001,-0.002,-0.011,-0.015
2025-11-06 18:32:56.196,40.23,-0.07200000000000001,-0.04,-0.011,-0.137,-0.963,-0.136,27.88,-22.85,-75.44,0.7496,-0.6515000000000001,-0.0036000000000000003,-0.11660000000000001,-0.002,-0.014,-0.014
2025-11-06 18:32:56.196,40.235,-0.07,-0.039,-0.012,-0.138,-0.962,-0.138,27.88,-22.85,-75.44,0.7494000000000001,-0.6517000000000001,-0.0035,-0.1165,0.0,-0.016,-0.012
2025-11-06 18:32:56.196,40.24,-0.067,-0.04,-0.013000000000000001,-0.14100000000000001,-0.963,-0.138,27.59,-24.32,-76.17,0.7492000000000001,-0.6519,-0.0033,-0.1165,0.001,-0.015,-0.011
2025-11-06 18:32:56.196,40.245,-0.064,-0.043000000000000003,-0.014,-0.14300000000000002,-0.963,-0.137,27.59,-24.32,-76.17,0.749,-0.6522,-0.0031000000000000003,-0.1165,0.003,-0.015,-0.012
2025-11-06 18:32:56.196,40.25,-0.062,-0.048,-0.014,-0.145,-0.961,-0.137,27.59,-24.32,-76.17,0.7487,-0.6524,-0.0028,-0.11660000000000001,0.004,-0.016,-0.011
2025-11-06 18:32:56.196,40.255,-0.059000000000000004,-0.043000000000000003,-0.013000000000000001,-0.14400000000000002,-0.961,-0.136,27.59,-22.650000000000002,-75.53,0.7485,-0.6526000000000001,-0.0025,-0.11670000000000001,0.003,-0.016,-0.011
2025-11-06 18:32:56.196,40.26,-0.055,-0.045,-0.012,-0.145,-0.96,-0.138,27.59,-22.650000000000002,-75.53,0.7484000000000001,-0.6528,-0.0023,-0.1168,0.003,-0.017,-0.009000000000000001
2025-11-06 18:32:56.196,40.265,-0.053,-0.043000000000000003,-0.013000000000000001,-0.145,-0.962,-0.137,28.73,-23.03,-76.03,0.7482000000000001,-0.653,-0.002,-0.1168,0.003,-0.015,-0.009000000000000001
2025-11-06 18:32:56.196,40.27,-0.047,-0.041,-0.014,-0.14400000000000002,-0.963,-0.135,28.73,-23.03,-76.03,0.748,-0.6532,-0.0018000000000000002,-0.1168,0.001,-0.015,-0.011
2025-11-06 18:32:56.197,40.275,-0.044,-0.04,-0.015,-0.14400000000000002,-0.965,-0.134,28.73,-23.03,-76.03,0.7478,-0.6535000000000001,-0.0017000000000000001,-0.1168,0.0,-0.013000000000000001,-0.011
2025-11-06 18:32:56.197,40.28,-0.045,-0.036000000000000004,-0.017,-0.14400000000000002,-0.966,-0.135,27.79,-23.12,-76.61,0.7476,-0.6537000000000001,-0.0015,-0.11670000000000001,0.0,-0.011,-0.01
2025-11-06 18:32:56.197,40.285,-0.044,-0.033,-0.015,-0.14300000000000002,-0.968,-0.134,27.79,-23.12,-76.61,0.7474000000000001,-0.654,-0.0014,-0.11660000000000001,0.0,-0.01,-0.01
2025-11-06 18:32:56.197,40.29,-0.038,-0.027,-0.013000000000000001,-0.14400000000000002,-0.968,-0.133,27.97,-22.85,-76.55,0.7472000000000001,-0.6542,-0.0013000000000000002,-0.11660000000000001,0.0,-0.009000000000000001,-0.011
2025-11-06 18:32:56.197,40.295,-0.041,-0.022,-0.013000000000000001,-0.145,-0.969,-0.135,27.97,-22.85,-76.55,0.747,-0.6544,-0.0012000000000000001,-0.11660000000000001,0.001,-0.009000000000000001,-0.007
2025-11-06 18:32:56.197,40.3,-0.044,-0.019,-0.01,-0.145,-0.969,-0.137,28.03,-23.09,-75.82000000000001,0.7469,-0.6545000000000001,-0.0011,-0.11660000000000001,0.001,-0.008,-0.006
2025-11-06 18:32:56.197,40.305,-0.043000000000000003,-0.014,-0.009000000000000001,-0.147,-0.969,-0.139,28.03,-23.09,-75.82000000000001,0.7469,-0.6545000000000001,-0.0009000000000000001,-0.11670000000000001,0.003,-0.008,-0.004
2025-11-06 18:32:56.197,40.31,-0.045,-0.01,-0.009000000000000001,-0.148,-0.97,-0.14300000000000002,28.03,-23.09,-75.82000000000001,0.747,-0.6544,-0.0007,-0.1169,0.003,-0.008,0.0
2025-11-06 18:32:56.197,40.315,-0.044,-0.007,-0.009000000000000001,-0.151,-0.967,-0.146,27.94,-23.5,-76.11,0.7471,-0.6542,-0.0005,-0.11720000000000001,0.006,-0.01,0.002
2025-11-06 18:32:56.197,40.32,-0.042,-0.005,-0.006,-0.152,-0.965,-0.15,27.94,-23.5,-76.11,0.7474000000000001,-0.6538,-0.00030000000000000003,-0.11750000000000001,0.006,-0.012,0.005
2025-11-06 18:32:56.197,40.325,-0.042,-0.003,-0.009000000000000001,-0.152,-0.964,-0.154,28.03,-22.97,-75.97,0.7477,-0.6534,-0.0001,-0.1178,0.005,-0.013000000000000001,0.008
2025-11-06 18:32:56.197,40.33,-0.043000000000000003,-0.003,-0.01,-0.152,-0.96,-0.157,28.03,-22.97,-75.97,0.7481,-0.6529,0.0,-0.1182,0.004,-0.016,0.01
2025-11-06 18:32:56.197,40.335,-0.041,-0.002,-0.01,-0.151,-0.96,-0.158,28.03,-22.97,-75.97,0.7485,-0.6524,0.0002,-0.11850000000000001,0.003,-0.016,0.01
2025-11-06 18:32:56.197,40.34,-0.031,-0.002,-0.009000000000000001,-0.148,-0.9590000000000001,-0.158,27.76,-22.91,-75.91,0.7488,-0.6519,0.00030000000000000003,-0.1187,0.0,-0.017,0.008
2025-11-06 18:32:56.197,40.345,-0.027,0.0,-0.009000000000000001,-0.146,-0.9580000000000001,-0.159,27.76,-22.91,-75.91,0.7492000000000001,-0.6515000000000001,0.0002,-0.1188,-0.002,-0.018000000000000002,0.008
2025-11-06 18:32:56.197,40.35,-0.025,0.0,-0.01,-0.14300000000000002,-0.9590000000000001,-0.157,27.740000000000002,-23.12,-76.05,0.7495,-0.6511,0.0001,-0.1187,-0.005,-0.017,0.005
2025-11-06 18:32:56.197,40.355,-0.018000000000000002,0.0,-0.011,-0.14,-0.9580000000000001,-0.156,27.740000000000002,-23.12,-76.05,0.7498,-0.6509,0.0,-0.11860000000000001,-0.007,-0.018000000000000002,0.003
2025-11-06 18:32:56.197,40.36,-0.011,0.0,-0.01,-0.138,-0.9570000000000001,-0.155,27.740000000000002,-23.12,-76.05,0.75,-0.6507000000000001,-0.0002,-0.11850000000000001,-0.008,-0.018000000000000002,0.002
2025-11-06 18:32:56.197,40.365,-0.002,0.005,-0.007,-0.137,-0.9570000000000001,-0.156,27.76,-22.68,-76.49,0.7502000000000001,-0.6505000000000001,-0.0004,-0.1184,-0.008,-0.019,0.002
2025-11-06 18:32:56.197,40.37,0.008,0.005,-0.008,-0.136,-0.9560000000000001,-0.155,27.76,-22.68,-76.49,0.7503000000000001,-0.6503,-0.0007,-0.1182,-0.009000000000000001,-0.02,0.0
2025-11-06 18:32:56.197,40.375,0.013000000000000001,0.012,-0.006,-0.134,-0.9550000000000001,-0.153,27.71,-22.85,-76.11,0.7504000000000001,-0.6502,-0.001,-0.11800000000000001,-0.01,-0.021,0.0
2025-11-06 18:32:56.197,40.38,0.019,0.013000000000000001,-0.003,-0.136,-0.9550000000000001,-0.154,27.71,-22.85,-76.11,0.7505000000000001,-0.6502,-0.0012000000000000001,-0.1179,-0.008,-0.021,0.0
2025-11-06 18:32:56.199,40.385,0.024,0.018000000000000002,-0.001,-0.136,-0.9570000000000001,-0.155,27.68,-22.77,-76.35000000000001,0.7506,-0.6501,-0.0014,-0.1178,-0.007,-0.019,0.0
2025-11-06 18:32:56.199,40.39,0.025,0.022,0.002,-0.137,-0.961,-0.156,27.68,-22.77,-76.35000000000001,0.7507,-0.65,-0.0016,-0.1177,-0.006,-0.015,0.001
2025-11-06 18:32:56.199,40.395,0.028,0.025,0.004,-0.136,-0.962,-0.16,27.68,-22.77,-76.35000000000001,0.7509,-0.6498,-0.0018000000000000002,-0.1177,-0.006,-0.014,0.004
2025-11-06 18:32:56.199,40.4,0.03,0.022,0.006,-0.137,-0.965,-0.162,28.060000000000002,-22.94,-76.17,0.7511,-0.6495000000000001,-0.002,-0.1177,-0.005,-0.011,0.006
2025-11-06 18:32:56.199,40.405,0.031,0.025,0.004,-0.136,-0.966,-0.164,28.060000000000002,-22.94,-76.17,0.7513000000000001,-0.6492,-0.0022,-0.11760000000000001,-0.005,-0.01,0.007
2025-11-06 18:32:56.199,40.41,0.026000000000000002,0.026000000000000002,0.005,-0.137,-0.968,-0.17200000000000001,28.03,-22.82,-75.85000000000001,0.7518,-0.6487,-0.0024000000000000002,-0.1177,-0.004,-0.008,0.014
2025-11-06 18:32:56.199,40.415,0.028,0.025,0.004,-0.136,-0.968,-0.17500000000000002,28.03,-22.82,-75.85000000000001,0.7523000000000001,-0.6482,-0.0026000000000000003,-0.1177,-0.004,-0.007,0.016
2025-11-06 18:32:56.199,40.42,0.026000000000000002,0.027,0.005,-0.136,-0.967,-0.178,28.03,-22.82,-75.85000000000001,0.7528,-0.6475000000000001,-0.0027,-0.1177,-0.005,-0.009000000000000001,0.017
2025-11-06 18:32:56.199,40.425,0.03,0.032,0.003,-0.133,-0.968,-0.18,27.62,-23.150000000000002,-75.85000000000001,0.7533000000000001,-0.6469,-0.003,-0.1177,-0.007,-0.008,0.017
2025-11-06 18:32:56.199,40.43,0.028,0.036000000000000004,0.003,-0.131,-0.967,-0.183,27.62,-23.150000000000002,-75.85000000000001,0.7539,-0.6462,-0.0034000000000000002,-0.1177,-0.009000000000000001,-0.008,0.018000000000000002
2025-11-06 18:32:56.199,40.435,0.031,0.038,0.003,-0.129,-0.969,-0.183,28.35,-26.07,-75.76,0.7544000000000001,-0.6456000000000001,-0.0038,-0.11760000000000001,-0.009000000000000001,-0.006,0.017
2025-11-06 18:32:56.199,40.44,0.029,0.037,0.003,-0.128,-0.969,-0.182,28.35,-26.07,-75.76,0.7549,-0.6451,-0.004200000000000001,-0.11750000000000001,-0.01,-0.005,0.015
2025-11-06 18:32:56.199,40.445,0.029,0.042,0.003,-0.128,-0.969,-0.182,28.35,-26.07,-75.76,0.7553000000000001,-0.6446000000000001,-0.0046,-0.1174,-0.009000000000000001,-0.006,0.013000000000000001
2025-11-06 18:32:56.199,40.45,0.024,0.039,0.002,-0.126,-0.968,-0.181,27.91,-23.53,-75.65,0.7557,-0.6442,-0.005,-0.1173,-0.01,-0.007,0.011
2025-11-06 18:32:56.199,40.455,0.02,0.035,0.003,-0.127,-0.968,-0.18,27.91,-23.53,-75.65,0.756,-0.6439,-0.0054,-0.11720000000000001,-0.008,-0.006,0.009000000000000001
2025-11-06 18:32:56.199,40.46,0.013000000000000001,0.039,0.0,-0.125,-0.967,-0.18,28.38,-26.3,-75.76,0.7563000000000001,-0.6435000000000001,-0.0058000000000000005,-0.11710000000000001,-0.009000000000000001,-0.007,0.008
2025-11-06 18:32:56.199,40.465,0.007,0.038,0.0,-0.127,-0.969,-0.18,28.38,-26.3,-75.76,0.7566,-0.6432,-0.0061,-0.11710000000000001,-0.007,-0.006,0.007
2025-11-06 18:32:56.199,40.47,0.005,0.035,-0.001,-0.125,-0.971,-0.179,28.0,-22.82,-75.5,0.7568,-0.643,-0.006500000000000001,-0.117,-0.007,-0.004,0.006
2025-11-06 18:32:56.199,40.475,0.004,0.027,0.002,-0.127,-0.972,-0.179,28.0,-22.82,-75.5,0.757,-0.6427,-0.0068000000000000005,-0.1169,-0.005,-0.002,0.005
2025-11-06 18:32:56.199,40.48,-0.003,0.024,0.0,-0.129,-0.973,-0.18,28.0,-22.82,-75.5,0.7572,-0.6425000000000001,-0.006900000000000001,-0.1169,-0.003,-0.001,0.006
2025-11-06 18:32:56.199,40.485,-0.009000000000000001,0.019,0.0,-0.129,-0.973,-0.18,28.0,-22.88,-75.56,0.7574000000000001,-0.6423,-0.007,-0.1169,-0.003,-0.002,0.005
2025-11-06 18:32:56.200,40.49,-0.012,0.013000000000000001,0.0,-0.13,-0.973,-0.18,28.0,-22.88,-75.56,0.7576,-0.642,-0.0071,-0.1169,-0.002,-0.002,0.005
2025-11-06 18:32:56.200,40.495,-0.017,0.01,0.0,-0.13,-0.971,-0.182,28.03,-25.54,-75.97,0.7578,-0.6418,-0.0071,-0.1169,-0.001,-0.003,0.005
2025-11-06 18:32:56.200,40.5,-0.019,0.01,0.0,-0.129,-0.969,-0.182,28.03,-25.54,-75.97,0.758,-0.6415000000000001,-0.007200000000000001,-0.1168,-0.002,-0.006,0.005
2025-11-06 18:32:56.200,40.505,-0.017,0.005,-0.003,-0.126,-0.964,-0.182,28.03,-25.54,-75.97,0.7583000000000001,-0.6412,-0.0073,-0.1168,-0.004,-0.01,0.004
2025-11-06 18:32:56.200,40.51,-0.014,0.01,-0.006,-0.124,-0.961,-0.181,27.91,-23.23,-76.05,0.7585000000000001,-0.641,-0.0076,-0.11670000000000001,-0.006,-0.013000000000000001,0.003
2025-11-06 18:32:56.200,40.515,-0.015,0.01,-0.006,-0.122,-0.961,-0.181,27.91,-23.23,-76.05,0.7587,-0.6408,-0.0078000000000000005,-0.11660000000000001,-0.008,-0.013000000000000001,0.002
2025-11-06 18:32:56.200,40.52,-0.01,0.011,-0.005,-0.121,-0.96,-0.177,28.03,-22.59,-75.15,0.7588,-0.6407,-0.0081,-0.1165,-0.008,-0.014,-0.002
2025-11-06 18:32:56.201,40.525,-0.004,0.007,-0.006,-0.12,-0.962,-0.17300000000000001,28.03,-22.59,-75.15,0.7587,-0.6408,-0.0085,-0.1163,-0.008,-0.012,-0.005
2025-11-06 18:32:56.201,40.53,-0.001,0.005,-0.006,-0.12,-0.96,-0.171,28.03,-22.59,-75.15,0.7586,-0.6409,-0.0088,-0.11620000000000001,-0.008,-0.014,-0.007
2025-11-06 18:32:56.201,40.535,0.001,0.0,-0.006,-0.122,-0.96,-0.167,27.85,-23.03,-75.47,0.7584000000000001,-0.6412,-0.009000000000000001,-0.11610000000000001,-0.006,-0.014,-0.01
2025-11-06 18:32:56.201,40.54,0.006,0.0,-0.006,-0.123,-0.961,-0.166,27.85,-23.03,-75.47,0.7581,-0.6415000000000001,-0.0092,-0.116,-0.004,-0.013000000000000001,-0.01
2025-11-06 18:32:56.201,40.545,0.007,-0.001,-0.003,-0.126,-0.963,-0.166,27.59,-22.94,-75.53,0.7579,-0.6418,-0.0092,-0.116,-0.001,-0.012,-0.01
2025-11-06 18:32:56.201,40.55,0.009000000000000001,-0.009000000000000001,-0.004,-0.127,-0.965,-0.166,27.59,-22.94,-75.53,0.7576,-0.6421,-0.0092,-0.116,0.0,-0.01,-0.009000000000000001
2025-11-06 18:32:56.201,40.555,0.013000000000000001,-0.01,-0.003,-0.13,-0.966,-0.166,27.59,-22.94,-75.53,0.7574000000000001,-0.6424000000000001,-0.0091,-0.11610000000000001,0.001,-0.009000000000000001,-0.008
2025-11-06 18:32:56.201,40.56,0.01,-0.013000000000000001,-0.006,-0.132,-0.965,-0.168,27.71,-22.740000000000002,-75.88,0.7572,-0.6426000000000001,-0.0089,-0.11620000000000001,0.003,-0.01,-0.006
2025-11-06 18:32:56.201,40.565,0.008,-0.01,-0.004,-0.134,-0.964,-0.168,27.71,-22.740000000000002,-75.88,0.7571,-0.6427,-0.008700000000000001,-0.1163,0.005,-0.011,-0.005
2025-11-06 18:32:56.201,40.57,0.009000000000000001,-0.01,-0.002,-0.136,-0.964,-0.169,28.0,-23.150000000000002,-75.12,0.757,-0.6428,-0.008400000000000001,-0.1165,0.006,-0.011,-0.004
2025-11-06 18:32:56.201,40.575,0.008,-0.008,-0.003,-0.136,-0.965,-0.169,28.0,-23.150000000000002,-75.12,0.7568,-0.6429,-0.0081,-0.11670000000000001,0.005,-0.01,-0.003
2025-11-06 18:32:56.201,40.58,0.009000000000000001,-0.005,-0.003,-0.137,-0.966,-0.167,27.88,-23.29,-76.11,0.7567,-0.6431,-0.0078000000000000005,-0.1168,0.006,-0.009000000000000001,-0.005
2025-11-06 18:32:56.201,40.585,0.008,0.0,-0.002,-0.139,-0.965,-0.166,27.88,-23.29,-76.11,0.7565000000000001,-0.6433,-0.007500000000000001,-0.11710000000000001,0.007,-0.01,-0.006
2025-11-06 18:32:56.201,40.59,0.009000000000000001,0.0,-0.001,-0.139,-0.967,-0.164,27.88,-23.29,-76.11,0.7563000000000001,-0.6435000000000001,-0.007200000000000001,-0.1173,0.006,-0.008,-0.007
2025-11-06 18:32:56.201,40.595,0.009000000000000001,0.008,-0.003,-0.14200000000000002,-0.968,-0.163,28.5,-24.37,-76.0,0.756,-0.6438,-0.006900000000000001,-0.11750000000000001,0.008,-0.007,-0.007
2025-11-06 18:32:56.201,40.6,0.007,0.009000000000000001,-0.003,-0.14200000000000002,-0.969,-0.163,28.5,-24.37,-76.0,0.7558,-0.644,-0.0066,-0.1177,0.007,-0.006,-0.007
2025-11-06 18:32:56.201,40.605,0.005,0.012,-0.002,-0.14100000000000001,-0.968,-0.162,28.900000000000002,-24.11,-76.14,0.7555000000000001,-0.6443,-0.0064,-0.1179,0.006,-0.007,-0.007
2025-11-06 18:32:56.201,40.61,0.005,0.01,-0.002,-0.14100000000000001,-0.969,-0.162,28.900000000000002,-24.11,-76.14,0.7553000000000001,-0.6445000000000001,-0.006200000000000001,-0.11810000000000001,0.005,-0.006,-0.007
2025-11-06 18:32:56.201,40.615,0.002,0.008,-0.002,-0.14200000000000002,-0.967,-0.163,28.900000000000002,-24.11,-76.14,0.7551,-0.6447,-0.0059,-0.1183,0.005,-0.007,-0.005
2025-11-06 18:32:56.201,40.62,0.004,0.005,-0.001,-0.14300000000000002,-0.967,-0.163,27.94,-22.82,-75.27,0.755,-0.6448,-0.0057,-0.11850000000000001,0.006,-0.007,-0.005
2025-11-06 18:32:56.201,40.625,0.001,0.008,0.0,-0.14400000000000002,-0.967,-0.162,27.94,-22.82,-75.27,0.7548,-0.645,-0.0054,-0.1187,0.006,-0.008,-0.005
2025-11-06 18:32:56.201,40.63,0.0,0.006,0.001,-0.14300000000000002,-0.967,-0.163,28.0,-22.71,-75.67,0.7547,-0.6451,-0.005200000000000001,-0.1189,0.004,-0.008,-0.005
2025-11-06 18:32:56.201,40.635,0.001,0.005,0.001,-0.14200000000000002,-0.966,-0.16,28.0,-22.71,-75.67,0.7545000000000001,-0.6453,-0.005,-0.11900000000000001,0.003,-0.009000000000000001,-0.006
2025-11-06 18:32:56.201,40.64,0.0,0.008,0.001,-0.14200000000000002,-0.967,-0.159,28.0,-22.71,-75.67,0.7543000000000001,-0.6455000000000001,-0.0049,-0.11910000000000001,0.002,-0.008,-0.007
2025-11-06 18:32:56.201,40.645,0.001,0.011,0.0,-0.14100000000000001,-0.968,-0.157,28.44,-22.47,-75.65,0.7541,-0.6458,-0.0048000000000000004,-0.11910000000000001,0.001,-0.007,-0.008
2025-11-06 18:32:56.201,40.65,0.01,0.008,0.0,-0.14100000000000001,-0.966,-0.156,28.44,-22.47,-75.65,0.7538,-0.646,-0.0047,-0.1192,0.001,-0.009000000000000001,-0.008
2025-11-06 18:32:56.201,40.655,0.008,0.013000000000000001,0.0,-0.14200000000000002,-0.965,-0.153,28.47,-24.14,-76.0,0.7535000000000001,-0.6464000000000001,-0.0046,-0.1193,0.002,-0.01,-0.011
2025-11-06 18:32:56.201,40.66,0.01,0.015,0.001,-0.14100000000000001,-0.963,-0.154,28.47,-24.14,-76.0,0.7533000000000001,-0.6467,-0.0045000000000000005,-0.1193,0.0,-0.013000000000000001,-0.009000000000000001
2025-11-06 18:32:56.201,40.665,0.011,0.022,-0.001,-0.14200000000000002,-0.965,-0.153,28.060000000000002,-22.77,-76.03,0.753,-0.647,-0.0044,-0.1194,0.001,-0.011,-0.009000000000000001
2025-11-06 18:32:56.201,40.67,0.02,0.022,0.001,-0.14200000000000002,-0.964,-0.153,28.060000000000002,-22.77,-76.03,0.7527,-0.6472,-0.0043,-0.11950000000000001,0.001,-0.011,-0.009000000000000001
2025-11-06 18:32:56.201,40.675,0.021,0.023,0.004,-0.14300000000000002,-0.966,-0.153,28.060000000000002,-22.77,-76.03,0.7525000000000001,-0.6475000000000001,-0.004200000000000001,-0.11960000000000001,0.002,-0.01,-0.008
2025-11-06 18:32:56.201,40.68,0.023,0.023,0.005,-0.14300000000000002,-0.964,-0.154,28.26,-24.52,-75.38,0.7523000000000001,-0.6478,-0.0041,-0.1197,0.002,-0.011,-0.007
2025-11-06 18:32:56.201,40.685,0.02,0.025,0.006,-0.145,-0.965,-0.156,28.26,-24.52,-75.38,0.7521,-0.6479,-0.004,-0.1199,0.003,-0.01,-0.004
2025-11-06 18:32:56.201,40.69,0.02,0.025,0.007,-0.146,-0.964,-0.156,27.94,-22.740000000000002,-75.03,0.752,-0.648,-0.0039000000000000003,-0.12010000000000001,0.003,-0.011,-0.003
2025-11-06 18:32:56.201,40.695,0.023,0.024,0.008,-0.145,-0.962,-0.153,27.94,-22.740000000000002,-75.03,0.7518,-0.6482,-0.0038,-0.1203,0.002,-0.013000000000000001,-0.006
2025-11-06 18:32:56.201,40.7,0.021,0.027,0.011,-0.14400000000000002,-0.962,-0.153,27.94,-22.740000000000002,-75.03,0.7516,-0.6484,-0.0037,-0.12050000000000001,0.001,-0.014,-0.005
2025-11-06 18:32:56.201,40.705,0.024,0.029,0.012,-0.14100000000000001,-0.962,-0.153,28.12,-22.5,-76.08,0.7515000000000001,-0.6485000000000001,-0.0037,-0.12050000000000001,-0.002,-0.013000000000000001,-0.005
2025-11-06 18:32:56.201,40.71,0.025,0.027,0.014,-0.14100000000000001,-0.962,-0.154,28.12,-22.5,-76.08,0.7514000000000001,-0.6486000000000001,-0.0038,-0.12050000000000001,-0.002,-0.013000000000000001,-0.004
2025-11-06 18:32:56.201,40.715,0.023,0.029,0.014,-0.137,-0.965,-0.155,27.76,-23.88,-75.47,0.7513000000000001,-0.6487,-0.0039000000000000003,-0.12050000000000001,-0.005,-0.011,-0.003
2025-11-06 18:32:56.202,40.72,0.023,0.031,0.014,-0.135,-0.963,-0.156,27.76,-23.88,-75.47,0.7513000000000001,-0.6487,-0.004200000000000001,-0.1203,-0.007,-0.013000000000000001,-0.002
2025-11-06 18:32:56.202,40.725,0.027,0.028,0.013000000000000001,-0.133,-0.961,-0.157,27.76,-23.88,-75.47,0.7514000000000001,-0.6487,-0.0044,-0.1202,-0.008,-0.015,0.0
2025-11-06 18:32:56.202,40.73,0.029,0.035,0.012,-0.133,-0.961,-0.158,28.0,-22.71,-75.82000000000001,0.7514000000000001,-0.6487,-0.0047,-0.12010000000000001,-0.008,-0.015,0.0
2025-11-06 18:32:56.202,40.735,0.034,0.04,0.014,-0.134,-0.963,-0.159,28.0,-22.71,-75.82000000000001,0.7515000000000001,-0.6486000000000001,-0.0049,-0.12000000000000001,-0.007,-0.013000000000000001,0.0
2025-11-06 18:32:56.202,40.74,0.038,0.046,0.015,-0.133,-0.965,-0.16,28.060000000000002,-22.21,-76.87,0.7515000000000001,-0.6486000000000001,-0.005200000000000001,-0.1199,-0.007,-0.01,0.001
2025-11-06 18:32:56.202,40.745,0.034,0.049,0.016,-0.133,-0.968,-0.162,28.060000000000002,-22.21,-76.87,0.7516,-0.6484,-0.0055000000000000005,-0.1199,-0.007,-0.008,0.003
2025-11-06 18:32:56.202,40.75,0.037,0.048,0.017,-0.132,-0.967,-0.162,28.09,-22.62,-76.0,0.7517,-0.6483,-0.0057,-0.1198,-0.007,-0.009000000000000001,0.002
2025-11-06 18:32:56.202,40.755,0.036000000000000004,0.047,0.017,-0.133,-0.967,-0.166,28.09,-22.62,-76.0,0.7519,-0.6481,-0.006,-0.1198,-0.005,-0.009000000000000001,0.006
2025-11-06 18:32:56.202,40.76,0.035,0.046,0.015,-0.133,-0.969,-0.168,28.09,-22.62,-76.0,0.7522000000000001,-0.6478,-0.006200000000000001,-0.1198,-0.005,-0.007,0.007
2025-11-06 18:32:56.202,40.765,0.031,0.037,0.014,-0.131,-0.97,-0.169,27.91,-22.8,-75.53,0.7524000000000001,-0.6475000000000001,-0.0064,-0.1198,-0.007,-0.006,0.008
2025-11-06 18:32:56.202,40.77,0.029,0.033,0.014,-0.131,-0.97,-0.17,27.91,-22.8,-75.53,0.7527,-0.6473,-0.0067,-0.1197,-0.007,-0.005,0.007
2025-11-06 18:32:56.203,40.775,0.031,0.027,0.014,-0.127,-0.97,-0.168,27.85,-22.56,-75.88,0.7529,-0.6471,-0.007,-0.11960000000000001,-0.009000000000000001,-0.006,0.006
2025-11-06 18:32:56.203,40.78,0.029,0.026000000000000002,0.013000000000000001,-0.125,-0.968,-0.169,27.85,-22.56,-75.88,0.7531,-0.6468,-0.0074,-0.1194,-0.01,-0.008,0.006
2025-11-06 18:32:56.203,40.785,0.031,0.022,0.01,-0.121,-0.966,-0.169,27.85,-22.56,-75.88,0.7533000000000001,-0.6466000000000001,-0.0079,-0.11910000000000001,-0.014,-0.01,0.005
2025-11-06 18:32:56.203,40.79,0.036000000000000004,0.01,0.009000000000000001,-0.11800000000000001,-0.965,-0.166,27.85,-22.12,-75.27,0.7535000000000001,-0.6465000000000001,-0.008400000000000001,-0.1188,-0.015,-0.011,0.002
2025-11-06 18:32:56.203,40.795,0.039,0.007,0.008,-0.11800000000000001,-0.965,-0.167,27.85,-22.12,-75.27,0.7536,-0.6464000000000001,-0.0089,-0.1184,-0.014,-0.012,0.003
2025-11-06 18:32:56.203,40.8,0.039,0.005,0.007,-0.117,-0.965,-0.165,28.03,-24.990000000000002,-75.41,0.7537,-0.6463,-0.0094,-0.11810000000000001,-0.014,-0.011,0.0
2025-11-06 18:32:56.203,40.805,0.039,0.002,0.006,-0.117,-0.967,-0.164,28.03,-24.990000000000002,-75.41,0.7537,-0.6463,-0.0098,-0.1178,-0.013000000000000001,-0.009000000000000001,0.0
2025-11-06 18:32:56.203,40.81,0.04,-0.003,0.007,-0.117,-0.966,-0.161,28.03,-24.990000000000002,-75.41,0.7537,-0.6464000000000001,-0.0102,-0.11750000000000001,-0.012,-0.011,-0.002
2025-11-06 18:32:56.203,40.815,0.04,-0.006,0.006,-0.11800000000000001,-0.968,-0.163,28.03,-22.88,-75.27,0.7537,-0.6465000000000001,-0.0105,-0.11720000000000001,-0.01,-0.009000000000000001,-0.001
2025-11-06 18:32:56.203,40.82,0.04,-0.01,0.005,-0.121,-0.969,-0.162,28.03,-22.88,-75.27,0.7536,-0.6466000000000001,-0.010700000000000001,-0.11710000000000001,-0.007,-0.008,-0.001
2025-11-06 18:32:56.203,40.825,0.041,-0.013000000000000001,0.008,-0.123,-0.969,-0.162,28.12,-22.59,-75.94,0.7536,-0.6467,-0.0108,-0.117,-0.004,-0.008,-0.001
2025-11-06 18:32:56.203,40.83,0.038,-0.012,0.006,-0.124,-0.971,-0.164,28.12,-22.59,-75.94,0.7536,-0.6467,-0.0109,-0.1169,-0.003,-0.006,0.001
2025-11-06 18:32:56.203,40.835,0.036000000000000004,-0.014,0.006,-0.124,-0.97,-0.166,28.12,-22.59,-75.67,0.7537,-0.6466000000000001,-0.0109,-0.1168,-0.003,-0.007,0.002
2025-11-06 18:32:56.203,40.84,0.034,-0.018000000000000002,0.004,-0.125,-0.969,-0.169,28.03,-22.53,-75.67,0.7538,-0.6464000000000001,-0.0109,-0.1168,-0.001,-0.008,0.005
2025-11-06 18:32:56.203,40.845,0.032,-0.019,0.008,-0.125,-0.968,-0.17,28.03,-22.53,-75.67,0.754,-0.6462,-0.0108,-0.11670000000000001,-0.001,-0.009000000000000001,0.005
2025-11-06 18:32:56.203,40.85,0.034,-0.02,0.006,-0.126,-0.968,-0.171,28.580000000000002,-22.68,-75.29,0.7542,-0.646,-0.010700000000000001,-0.11670000000000001,-0.001,-0.009000000000000001,0.006
2025-11-06 18:32:56.203,40.855,0.032,-0.023,0.007,-0.124,-0.97,-0.171,28.580000000000002,-22.68,-75.29,0.7543000000000001,-0.6459,-0.010700000000000001,-0.11660000000000001,-0.003,-0.007,0.005
2025-11-06 18:32:56.203,40.86,0.03,-0.03,0.003,-0.122,-0.968,-0.17,27.68,-22.44,-75.79,0.7545000000000001,-0.6457,-0.0108,-0.1165,-0.004,-0.008,0.004
2025-11-06 18:32:56.203,40.865,0.028,-0.034,0.003,-0.121,-0.968,-0.17,27.68,-22.44,-75.79,0.7546,-0.6456000000000001,-0.0108,-0.1163,-0.005,-0.009000000000000001,0.003
2025-11-06 18:32:56.203,40.87,0.029,-0.038,0.0,-0.121,-0.966,-0.167,27.68,-22.44,-75.79,0.7547,-0.6455000000000001,-0.0109,-0.11620000000000001,-0.005,-0.011,0.001
2025-11-06 18:32:56.203,40.875,0.031,-0.044,-0.001,-0.12,-0.967,-0.167,27.91,-22.91,-76.03,0.7547,-0.6455000000000001,-0.011000000000000001,-0.116,-0.005,-0.01,0.0
2025-11-06 18:32:56.203,40.88,0.028,-0.046,0.0,-0.123,-0.967,-0.166,27.91,-22.91,-76.03,0.7547,-0.6455000000000001,-0.0109,-0.1159,-0.002,-0.01,0.0
2025-11-06 18:32:56.203,40.885,0.026000000000000002,-0.054,0.0,-0.124,-0.969,-0.163,28.14,-25.98,-75.82000000000001,0.7546,-0.6456000000000001,-0.0109,-0.1158,-0.001,-0.008,-0.002
2025-11-06 18:32:56.203,40.89,0.023,-0.062,0.0,-0.124,-0.97,-0.163,28.14,-25.98,-75.82000000000001,0.7546,-0.6457,-0.0108,-0.11560000000000001,-0.001,-0.007,-0.002
2025-11-06 18:32:56.203,40.895,0.018000000000000002,-0.062,-0.001,-0.126,-0.972,-0.161,28.14,-25.98,-75.82000000000001,0.7544000000000001,-0.6459,-0.010700000000000001,-0.11560000000000001,0.0,-0.005,-0.004
2025-11-06 18:32:56.203,40.9,0.02,-0.07,-0.002,-0.125,-0.973,-0.162,27.71,-22.88,-75.09,0.7544000000000001,-0.646,-0.0105,-0.1154,0.0,-0.004,-0.002
2025-11-06 18:32:56.203,40.905,0.015,-0.07,-0.003,-0.126,-0.974,-0.165,27.71,-22.88,-75.09,0.7544000000000001,-0.6461,-0.010400000000000001,-0.1153,0.0,-0.003,0.0
2025-11-06 18:32:56.203,40.91,0.015,-0.074,-0.004,-0.125,-0.974,-0.167,28.32,-24.14,-75.35000000000001,0.7544000000000001,-0.646,-0.0103,-0.11520000000000001,0.0,-0.003,0.001
2025-11-06 18:32:56.203,40.915,0.013000000000000001,-0.077,-0.006,-0.125,-0.973,-0.168,28.32,-24.14,-75.35000000000001,0.7545000000000001,-0.6459,-0.010100000000000001,-0.11510000000000001,0.0,-0.004,0.002
2025-11-06 18:32:56.203,40.92,0.012,-0.079,-0.006,-0.125,-0.971,-0.169,28.32,-24.14,-75.35000000000001,0.7546,-0.6458,-0.01,-0.1149,0.0,-0.006,0.003
2025-11-06 18:32:56.204,40.925,0.01,-0.083,-0.004,-0.127,-0.969,-0.169,28.03,-23.0,-75.15,0.7547,-0.6457,-0.0097,-0.1148,0.0,-0.008,0.003
2025-11-06 18:32:56.204,40.93,0.012,-0.084,-0.004,-0.126,-0.969,-0.167,28.03,-23.0,-75.15,0.7548,-0.6457,-0.0095,-0.11470000000000001,0.0,-0.008,0.001
2025-11-06 18:32:56.204,40.935,0.013000000000000001,-0.084,-0.009000000000000001,-0.127,-0.968,-0.166,27.62,-23.0,-75.73,0.7548,-0.6457,-0.009300000000000001,-0.11460000000000001,0.0,-0.009000000000000001,0.0
2025-11-06 18:32:56.204,40.94,0.012,-0.085,-0.006,-0.127,-0.971,-0.163,27.62,-23.0,-75.73,0.7548,-0.6458,-0.0091,-0.1145,0.0,-0.005,-0.002
2025-11-06 18:32:56.204,40.945,0.013000000000000001,-0.083,-0.004,-0.126,-0.973,-0.159,28.14,-23.150000000000002,-75.24,0.7546,-0.646,-0.009000000000000001,-0.1143,0.0,-0.004,-0.006
2025-11-06 18:32:56.204,40.95,0.013000000000000001,-0.089,-0.004,-0.129,-0.974,-0.152,28.14,-23.150000000000002,-75.24,0.7542,-0.6465000000000001,-0.0088,-0.11420000000000001,0.002,-0.003,-0.012
2025-11-06 18:32:56.206,40.955,0.009000000000000001,-0.091,-0.001,-0.131,-0.971,-0.151,28.14,-23.150000000000002,-75.24,0.7538,-0.6469,-0.0085,-0.11420000000000001,0.003,-0.006,-0.012
2025-11-06 18:32:56.206,40.96,0.008,-0.093,-0.002,-0.134,-0.97,-0.147,28.35,-23.53,-75.82000000000001,0.7534000000000001,-0.6474000000000001,-0.0081,-0.11420000000000001,0.005,-0.007,-0.014
2025-11-06 18:32:56.206,40.965,0.006,-0.095,0.0,-0.135,-0.968,-0.146,28.35,-23.53,-75.82000000000001,0.753,-0.6479,-0.0076,-0.11420000000000001,0.006,-0.01,-0.013000000000000001
2025-11-06 18:32:56.206,40.97,0.007,-0.096,-0.001,-0.137,-0.966,-0.147,28.26,-23.47,-75.82000000000001,0.7526,-0.6483,-0.007200000000000001,-0.1143,0.007,-0.012,-0.012
2025-11-06 18:32:56.206,40.975,0.009000000000000001,-0.10200000000000001,-0.001,-0.137,-0.963,-0.147,28.26,-23.47,-75.82000000000001,0.7523000000000001,-0.6487,-0.0067,-0.1144,0.005,-0.014,-0.01
2025-11-06 18:32:56.206,40.98,0.013000000000000001,-0.10400000000000001,-0.001,-0.134,-0.963,-0.149,28.26,-23.47,-75.82000000000001,0.7521,-0.649,-0.0064,-0.1143,0.002,-0.014,-0.008
2025-11-06 18:32:56.206,40.985,0.015,-0.10300000000000001,0.0,-0.134,-0.963,-0.147,28.73,-23.990000000000002,-75.67,0.7518,-0.6493,-0.006,-0.11420000000000001,0.002,-0.015,-0.009000000000000001
2025-11-06 18:32:56.206,40.99,0.017,-0.10200000000000001,0.001,-0.134,-0.963,-0.149,28.73,-23.990000000000002,-75.67,0.7516,-0.6495000000000001,-0.0057,-0.11420000000000001,0.001,-0.015,-0.007
2025-11-06 18:32:56.206,40.995,0.017,-0.099,0.001,-0.134,-0.965,-0.148,28.61,-23.26,-76.17,0.7514000000000001,-0.6498,-0.0054,-0.11410000000000001,0.001,-0.013000000000000001,-0.007
2025-11-06 18:32:56.206,41.0,0.022,-0.10200000000000001,0.002,-0.134,-0.966,-0.148,28.61,-23.26,-76.17,0.7512000000000001,-0.65,-0.0051,-0.114,0.001,-0.012,-0.007
2025-11-06 18:32:56.206,41.005,0.026000000000000002,-0.10200000000000001,0.004,-0.131,-0.964,-0.14400000000000002,28.61,-23.26,-76.17,0.7509,-0.6504,-0.0049,-0.11380000000000001,-0.001,-0.014,-0.009000000000000001
2025-11-06 18:32:56.206,41.01,0.025,-0.1,0.004,-0.131,-0.966,-0.14300000000000002,28.38,-23.79,-75.38,0.7507,-0.6507000000000001,-0.0047,-0.1136,-0.002,-0.012,-0.009000000000000001
2025-11-06 18:32:56.206,41.015,0.026000000000000002,-0.095,0.004,-0.13,-0.966,-0.14200000000000002,28.38,-23.79,-75.38,0.7504000000000001,-0.6511,-0.0046,-0.11330000000000001,-0.003,-0.011,-0.009000000000000001
2025-11-06 18:32:56.206,41.02,0.028,-0.091,0.002,-0.129,-0.967,-0.14200000000000002,28.38,-22.97,-76.11,0.7501,-0.6514,-0.0045000000000000005,-0.1131,-0.004,-0.011,-0.009000000000000001
2025-11-06 18:32:56.206,41.025,0.029,-0.089,0.005,-0.128,-0.968,-0.14200000000000002,28.38,-22.97,-76.11,0.7499,-0.6517000000000001,-0.0045000000000000005,-0.11270000000000001,-0.005,-0.01,-0.008
2025-11-06 18:32:56.206,41.03,0.024,-0.09,0.001,-0.129,-0.97,-0.14300000000000002,27.94,-22.97,-75.47,0.7497,-0.652,-0.0044,-0.1125,-0.003,-0.009000000000000001,-0.006
2025-11-06 18:32:56.206,41.035,0.022,-0.093,0.002,-0.128,-0.971,-0.147,27.94,-22.97,-75.47,0.7497,-0.6521,-0.0043,-0.11220000000000001,-0.004,-0.008,-0.002
2025-11-06 18:32:56.206,41.04,0.02,-0.099,0.0,-0.13,-0.973,-0.148,27.94,-22.97,-75.47,0.7497,-0.6521,-0.0041,-0.112,-0.002,-0.006,0.0
2025-11-06 18:32:56.206,41.045,0.018000000000000002,-0.10400000000000001,0.001,-0.13,-0.972,-0.152,27.82,-23.47,-76.14,0.7498,-0.6521,-0.004,-0.11180000000000001,-0.002,-0.006,0.002
2025-11-06 18:32:56.206,41.05,0.013000000000000001,-0.106,0.0,-0.13,-0.971,-0.152,27.82,-23.47,-76.14,0.7498,-0.652,-0.0039000000000000003,-0.1116,-0.002,-0.007,0.002
2025-11-06 18:32:56.206,41.055,0.012,-0.10300000000000001,-0.002,-0.13,-0.971,-0.153,28.03,-25.05,-76.32000000000001,0.75,-0.6519,-0.0037,-0.1114,-0.001,-0.008,0.003
2025-11-06 18:32:56.206,41.06,0.012,-0.099,-0.002,-0.132,-0.968,-0.152,28.03,-25.05,-76.32000000000001,0.7501,-0.6518,-0.0035,-0.11130000000000001,0.0,-0.01,0.002
2025-11-06 18:32:56.206,41.065,0.01,-0.095,-0.004,-0.133,-0.968,-0.15,28.03,-25.05,-76.32000000000001,0.7501,-0.6518,-0.0032,-0.11120000000000001,0.0,-0.01,0.0
2025-11-06 18:32:56.206,41.07,0.013000000000000001,-0.098,0.0,-0.135,-0.966,-0.146,27.91,-22.82,-75.94,0.75,-0.6519,-0.0029000000000000002,-0.11120000000000001,0.002,-0.012,-0.003
2025-11-06 18:32:56.206,41.075,0.015,-0.092,-0.001,-0.138,-0.967,-0.14100000000000001,27.91,-22.82,-75.94,0.7497,-0.6522,-0.0026000000000000003,-0.11120000000000001,0.004,-0.011,-0.008
2025-11-06 18:32:56.206,41.08,0.013000000000000001,-0.091,0.0,-0.139,-0.966,-0.138,27.76,-22.91,-76.29,0.7494000000000001,-0.6526000000000001,-0.0022,-0.11120000000000001,0.004,-0.012,-0.01
2025-11-06 18:32:56.206,41.085,0.015,-0.08700000000000001,0.0,-0.14100000000000001,-0.966,-0.134,27.76,-22.91,-76.29,0.749,-0.653,-0.0017000000000000001,-0.11130000000000001,0.006,-0.012,-0.012
2025-11-06 18:32:56.206,41.09,0.015,-0.08700000000000001,0.0,-0.14400000000000002,-0.968,-0.135,27.76,-22.91,-76.29,0.7487,-0.6534,-0.0013000000000000002,-0.1114,0.007,-0.011,-0.01
2025-11-06 18:32:56.206,41.095,0.013000000000000001,-0.083,0.003,-0.14400000000000002,-0.969,-0.136,27.97,-23.61,-75.62,0.7484000000000001,-0.6537000000000001,-0.0009000000000000001,-0.1115,0.006,-0.01,-0.009000000000000001
2025-11-06 18:32:56.206,41.1,0.012,-0.08700000000000001,0.003,-0.147,-0.971,-0.136,27.97,-23.61,-75.62,0.7481,-0.654,-0.0004,-0.11170000000000001,0.009000000000000001,-0.007,-0.008
2025-11-06 18:32:56.206,41.105,0.01,-0.083,0.004,-0.148,-0.972,-0.138,28.44,-23.26,-76.64,0.7479,-0.6543,0.0,-0.1119,0.008,-0.007,-0.006
2025-11-06 18:32:56.206,41.11,0.012,-0.084,0.003,-0.149,-0.97,-0.139,28.44,-23.26,-76.64,0.7477,-0.6544,0.0005,-0.1121,0.008,-0.008,-0.004
2025-11-06 18:32:56.206,41.115,0.014,-0.077,0.005,-0.148,-0.971,-0.14,28.44,-23.06,-76.17,0.7476,-0.6545000000000001,0.0009000000000000001,-0.11220000000000001,0.007,-0.008,-0.002
2025-11-06 18:32:56.206,41.12,0.017,-0.074,0.006,-0.148,-0.97,-0.14300000000000002,28.44,-23.06,-76.17,0.7475,-0.6545000000000001,0.0013000000000000002,-0.1124,0.006,-0.008,0.0
2025-11-06 18:32:56.206,41.125,0.02,-0.07,0.007,-0.149,-0.968,-0.14100000000000001,28.44,-23.06,-76.17,0.7474000000000001,-0.6546000000000001,0.0017000000000000001,-0.1126,0.006,-0.01,-0.001
2025-11-06 18:32:56.206,41.13,0.019,-0.062,0.009000000000000001,-0.148,-0.967,-0.14100000000000001,28.0,-22.62,-76.0,0.7474000000000001,-0.6547000000000001,0.002,-0.11270000000000001,0.004,-0.011,-0.001
2025-11-06 18:32:56.206,41.135,0.024,-0.061,0.01,-0.147,-0.967,-0.138,28.0,-22.62,-76.0,0.7472000000000001,-0.6548,0.0023,-0.11280000000000001,0.002,-0.011,-0.004
2025-11-06 18:32:56.206,41.14,0.025,-0.055,0.012,-0.148,-0.968,-0.134,28.17,-24.990000000000002,-75.94,0.747,-0.6551,0.0026000000000000003,-0.11280000000000001,0.003,-0.009000000000000001,-0.007
2025-11-06 18:32:56.206,41.145,0.026000000000000002,-0.054,0.014,-0.149,-0.97,-0.133,28.17,-24.990000000000002,-75.94,0.7467,-0.6554,0.0029000000000000002,-0.1129,0.004,-0.008,-0.008
2025-11-06 18:32:56.206,41.15,0.027,-0.049,0.013000000000000001,-0.149,-0.973,-0.131,28.17,-24.990000000000002,-75.94,0.7464000000000001,-0.6558,0.0032,-0.1129,0.003,-0.005,-0.009000000000000001
2025-11-06 18:32:56.206,41.155,0.026000000000000002,-0.048,0.014,-0.15,-0.972,-0.127,28.09,-22.740000000000002,-76.26,0.746,-0.6562,0.0035,-0.1129,0.003,-0.006,-0.012
2025-11-06 18:32:56.206,41.16,0.028,-0.044,0.015,-0.151,-0.97,-0.125,28.09,-22.740000000000002,-76.26,0.7456,-0.6567000000000001,0.0038,-0.1129,0.003,-0.008,-0.012
2025-11-06 18:32:56.206,41.165,0.024,-0.041,0.015,-0.15,-0.97,-0.126,27.59,-22.62,-76.23,0.7453000000000001,-0.657,0.0041,-0.1129,0.002,-0.008,-0.01
2025-11-06 18:32:56.206,41.17,0.025,-0.04,0.015,-0.148,-0.97,-0.127,27.59,-22.62,-76.23,0.745,-0.6573,0.004200000000000001,-0.11280000000000001,0.0,-0.008,-0.008
2025-11-06 18:32:56.206,41.175,0.025,-0.04,0.014,-0.149,-0.97,-0.127,27.59,-22.62,-76.23,0.7447,-0.6576000000000001,0.0044,-0.11280000000000001,0.0,-0.008,-0.008
2025-11-06 18:32:56.207,41.18,0.026000000000000002,-0.041,0.013000000000000001,-0.15,-0.97,-0.129,27.740000000000002,-23.67,-76.29,0.7445,-0.6579,0.0046,-0.11280000000000001,0.001,-0.008,-0.005
2025-11-06 18:32:56.207,41.185,0.024,-0.041,0.012,-0.151,-0.968,-0.131,27.740000000000002,-23.67,-76.29,0.7444000000000001,-0.658,0.0048000000000000004,-0.1129,0.002,-0.01,-0.002
2025-11-06 18:32:56.207,41.19,0.026000000000000002,-0.036000000000000004,0.01,-0.152,-0.967,-0.131,28.96,-23.61,-75.85000000000001,0.7443000000000001,-0.6581,0.0051,-0.113,0.002,-0.011,-0.002
2025-11-06 18:32:56.207,41.195,0.022,-0.032,0.01,-0.153,-0.968,-0.133,28.96,-23.61,-75.85000000000001,0.7443000000000001,-0.6581,0.0053,-0.11320000000000001,0.003,-0.01,0.0
2025-11-06 18:32:56.207,41.2,0.022,-0.029,0.009000000000000001,-0.155,-0.967,-0.132,28.96,-23.61,-75.85000000000001,0.7442000000000001,-0.6581,0.0055000000000000005,-0.1134,0.004,-0.011,-0.001
2025-11-06 18:32:56.207,41.205,0.023,-0.025,0.009000000000000001,-0.152,-0.968,-0.132,28.2,-22.82,-76.35000000000001,0.7442000000000001,-0.6582,0.0057,-0.1135,0.001,-0.01,-0.001
2025-11-06 18:32:56.207,41.21,0.024,-0.024,0.011,-0.154,-0.968,-0.132,28.2,-22.82,-76.35000000000001,0.7441,-0.6582,0.0059,-0.11370000000000001,0.003,-0.009000000000000001,-0.001
2025-11-06 18:32:56.207,41.215,0.018000000000000002,-0.019,0.008,-0.153,-0.969,-0.132,28.32,-23.41,-76.41,0.744,-0.6582,0.006,-0.11380000000000001,0.001,-0.009000000000000001,-0.001
2025-11-06 18:32:56.207,41.22,0.017,-0.017,0.008,-0.153,-0.97,-0.131,28.32,-23.41,-76.41,0.744,-0.6583,0.0061,-0.11380000000000001,0.001,-0.008,-0.001
2025-11-06 18:32:56.207,41.225,0.015,-0.016,0.009000000000000001,-0.154,-0.974,-0.131,28.03,-23.47,-76.43,0.7439,-0.6584,0.0063,-0.1139,0.002,-0.004,-0.001
2025-11-06 18:32:56.207,41.23,0.013000000000000001,-0.014,0.008,-0.155,-0.976,-0.131,28.03,-23.47,-76.43,0.7438,-0.6585000000000001,0.0064,-0.114,0.002,-0.002,-0.001
2025-11-06 18:32:56.207,41.235,0.011,-0.014,0.01,-0.157,-0.976,-0.131,28.03,-23.47,-76.43,0.7437,-0.6585000000000001,0.0066,-0.11410000000000001,0.004,-0.002,-0.001
2025-11-06 18:32:56.207,41.24,0.009000000000000001,-0.012,0.008,-0.159,-0.973,-0.13,28.0,-23.26,-75.29,0.7436,-0.6586000000000001,0.0068000000000000005,-0.1143,0.005,-0.004,-0.002
2025-11-06 18:32:56.207,41.245,0.009000000000000001,-0.007,0.008,-0.158,-0.972,-0.13,28.0,-23.26,-75.29,0.7435,-0.6587000000000001,0.007,-0.1145,0.004,-0.005,-0.002
2025-11-06 18:32:56.207,41.25,0.009000000000000001,-0.005,0.009000000000000001,-0.158,-0.97,-0.132,27.68,-23.12,-75.38,0.7435,-0.6587000000000001,0.007200000000000001,-0.11470000000000001,0.003,-0.008,0.0
2025-11-06 18:32:56.208,41.255,0.005,-0.005,0.009000000000000001,-0.158,-0.968,-0.131,27.68,-23.12,-75.38,0.7435,-0.6586000000000001,0.0074,-0.1149,0.003,-0.01,0.0
2025-11-06 18:32:56.208,41.26,0.004,-0.002,0.008,-0.158,-0.967,-0.135,27.68,-23.12,-75.38,0.7436,-0.6585000000000001,0.007500000000000001,-0.11510000000000001,0.002,-0.01,0.002
2025-11-06 18:32:56.208,41.265,0.007,0.0,0.009000000000000001,-0.158,-0.968,-0.136,28.060000000000002,-22.59,-75.18,0.7437,-0.6584,0.0076,-0.1153,0.002,-0.009000000000000001,0.003
2025-11-06 18:32:56.208,41.27,0.008,0.004,0.011,-0.155,-0.967,-0.138,28.060000000000002,-22.59,-75.18,0.7439,-0.6581,0.0076,-0.1154,0.0,-0.01,0.005
2025-11-06 18:32:56.208,41.275,0.012,0.006,0.008,-0.156,-0.966,-0.139,27.650000000000002,-23.41,-75.65,0.744,-0.6579,0.0076,-0.11560000000000001,0.0,-0.011,0.005
2025-11-06 18:32:56.208,41.28,0.015,0.011,0.011,-0.153,-0.966,-0.14300000000000002,27.650000000000002,-23.41,-75.65,0.7443000000000001,-0.6576000000000001,0.0076,-0.11570000000000001,-0.002,-0.011,0.008
2025-11-06 18:32:56.208,41.285,0.019,0.014,0.011,-0.152,-0.966,-0.14,27.650000000000002,-23.41,-75.65,0.7445,-0.6574,0.0074,-0.1158,-0.003,-0.011,0.004
2025-11-06 18:32:56.208,41.29,0.021,0.016,0.009000000000000001,-0.153,-0.966,-0.137,27.560000000000002,-23.09,-75.67,0.7445,-0.6573,0.0074,-0.1158,-0.002,-0.011,0.001
2025-11-06 18:32:56.208,41.295,0.024,0.019,0.008,-0.153,-0.968,-0.137,27.560000000000002,-23.09,-75.67,0.7445,-0.6573,0.0073,-0.1159,-0.003,-0.009000000000000001,0.001
2025-11-06 18:32:56.209,41.3,0.024,0.025,0.009000000000000001,-0.153,-0.966,-0.135,28.23,-22.85,-75.29,0.7446,-0.6573,0.007200000000000001,-0.1159,-0.002,-0.011,0.0
2025-11-06 18:32:56.209,41.305,0.027,0.025,0.008,-0.152,-0.965,-0.132,28.23,-22.85,-75.29,0.7445,-0.6574,0.0071,-0.1159,-0.004,-0.012,-0.003
2025-11-06 18:32:56.209,41.31,0.024,0.026000000000000002,0.008,-0.152,-0.967,-0.131,27.650000000000002,-22.97,-75.29,0.7443000000000001,-0.6575000000000001,0.007,-0.1159,-0.003,-0.01,-0.004
2025-11-06 18:32:56.209,41.315,0.025,0.025,0.009000000000000001,-0.152,-0.968,-0.13,27.650000000000002,-22.97,-75.29,0.7442000000000001,-0.6577000000000001,0.006900000000000001,-0.1158,-0.003,-0.009000000000000001,-0.004
2025-11-06 18:32:56.209,41.32,0.024,0.027,0.007,-0.152,-0.968,-0.131,27.650000000000002,-22.97,-75.29,0.7441,-0.6578,0.0068000000000000005,-0.1158,-0.003,-0.009000000000000001,-0.002
2025-11-06 18:32:56.209,41.325,0.028,0.032,0.007,-0.152,-0.97,-0.132,28.060000000000002,-23.41,-75.38,0.7441,-0.6578,0.0066,-0.1158,-0.003,-0.007,-0.002
2025-11-06 18:32:56.209,41.33,0.027,0.026000000000000002,0.006,-0.153,-0.97,-0.132,28.060000000000002,-23.41,-75.38,0.744,-0.6579,0.0066,-0.1158,-0.001,-0.008,-0.002
2025-11-06 18:32:56.209,41.335,0.026000000000000002,0.028,0.006,-0.154,-0.968,-0.132,27.88,-22.44,-75.85000000000001,0.7439,-0.658,0.0066,-0.1159,0.0,-0.009000000000000001,-0.001
2025-11-06 18:32:56.209,41.34,0.025,0.027,0.005,-0.156,-0.968,-0.133,27.88,-22.44,-75.85000000000001,0.7439,-0.658,0.0066,-0.116,0.0,-0.009000000000000001,0.0
2025-11-06 18:32:56.209,41.345,0.026000000000000002,0.033,0.006,-0.157,-0.969,-0.135,27.88,-22.44,-75.85000000000001,0.7439,-0.6579,0.0066,-0.11620000000000001,0.001,-0.008,0.001
2025-11-06 18:32:56.209,41.35,0.024,0.032,0.007,-0.157,-0.97,-0.14,27.650000000000002,-22.77,-75.91,0.7441,-0.6577000000000001,0.0066,-0.1164,0.001,-0.007,0.006
2025-11-06 18:32:56.209,41.355,0.028,0.03,0.009000000000000001,-0.156,-0.973,-0.14400000000000002,27.650000000000002,-22.77,-75.91,0.7443000000000001,-0.6574,0.0066,-0.11660000000000001,0.0,-0.004,0.009000000000000001
2025-11-06 18:32:56.209,41.36,0.026000000000000002,0.033,0.008,-0.156,-0.973,-0.146,27.88,-22.82,-75.7,0.7446,-0.6571,0.006500000000000001,-0.11670000000000001,0.0,-0.004,0.01
2025-11-06 18:32:56.209,41.365,0.023,0.035,0.009000000000000001,-0.156,-0.971,-0.148,27.88,-22.82,-75.7,0.7449,-0.6567000000000001,0.006500000000000001,-0.1169,0.0,-0.005,0.011
2025-11-06 18:32:56.209,41.37,0.02,0.033,0.009000000000000001,-0.154,-0.968,-0.149,27.88,-22.82,-75.7,0.7452000000000001,-0.6563,0.0064,-0.11710000000000001,-0.001,-0.009000000000000001,0.01
2025-11-06 18:32:56.209,41.375,0.021,0.035,0.008,-0.152,-0.969,-0.149,28.29,-22.94,-76.0,0.7455,-0.6559,0.006200000000000001,-0.11720000000000001,-0.003,-0.008,0.01
2025-11-06 18:32:56.210,41.38,0.02,0.035,0.009000000000000001,-0.152,-0.966,-0.146,28.29,-22.94,-76.0,0.7457,-0.6557000000000001,0.006,-0.1173,-0.003,-0.011,0.006
2025-11-06 18:32:56.210,41.385,0.022,0.036000000000000004,0.008,-0.15,-0.965,-0.14300000000000002,28.23,-22.77,-76.03,0.7459,-0.6555000000000001,0.0058000000000000005,-0.1173,-0.005,-0.011,0.003
2025-11-06 18:32:56.210,41.39,0.026000000000000002,0.036000000000000004,0.008,-0.149,-0.966,-0.14300000000000002,28.23,-22.77,-76.03,0.746,-0.6554,0.0056,-0.1173,-0.006,-0.01,0.002
2025-11-06 18:32:56.210,41.395,0.028,0.037,0.008,-0.148,-0.968,-0.14,28.14,-25.310000000000002,-75.82000000000001,0.746,-0.6554,0.0053,-0.11720000000000001,-0.007,-0.009000000000000001,0.0
2025-11-06 18:32:56.210,41.4,0.023,0.039,0.007,-0.147,-0.969,-0.139,28.14,-25.310000000000002,-75.82000000000001,0.746,-0.6555000000000001,0.005,-0.11720000000000001,-0.006,-0.007,-0.001
2025-11-06 18:32:56.210,41.405,0.02,0.038,0.006,-0.147,-0.969,-0.138,28.14,-25.310000000000002,-75.82000000000001,0.7459,-0.6555000000000001,0.0048000000000000004,-0.11710000000000001,-0.006,-0.007,-0.002
2025-11-06 18:32:56.210,41.41,0.021,0.035,0.007,-0.148,-0.971,-0.137,28.060000000000002,-22.68,-75.82000000000001,0.7458,-0.6556000000000001,0.0045000000000000005,-0.11710000000000001,-0.005,-0.006,-0.002
2025-11-06 18:32:56.210,41.415,0.021,0.031,0.008,-0.148,-0.972,-0.137,28.060000000000002,-22.68,-75.82000000000001,0.7458,-0.6557000000000001,0.0044,-0.117,-0.004,-0.005,-0.002
2025-11-06 18:32:56.210,41.42,0.018000000000000002,0.03,0.009000000000000001,-0.148,-0.975,-0.138,28.35,-23.06,-74.89,0.7457,-0.6558,0.0041,-0.117,-0.004,-0.002,-0.001
2025-11-06 18:32:56.210,41.425,0.014,0.032,0.011,-0.147,-0.978,-0.14100000000000001,28.35,-23.06,-74.89,0.7457,-0.6558,0.0039000000000000003,-0.1169,-0.005,0.0,0.001
2025-11-06 18:32:56.210,41.43,0.013000000000000001,0.032,0.011,-0.146,-0.978,-0.14300000000000002,28.35,-23.06,-74.89,0.7458,-0.6557000000000001,0.0036000000000000003,-0.1168,-0.005,0.0,0.003
2025-11-06 18:32:56.210,41.435,0.007,0.029,0.011,-0.14400000000000002,-0.976,-0.146,29.26,-24.87,-75.85000000000001,0.746,-0.6554,0.0034000000000000002,-0.1168,-0.006,-0.001,0.006
2025-11-06 18:32:56.210,41.44,0.004,0.033,0.009000000000000001,-0.14300000000000002,-0.976,-0.15,29.26,-24.87,-75.85000000000001,0.7464000000000001,-0.6551,0.0031000000000000003,-0.11670000000000001,-0.007,0.0,0.009000000000000001
2025-11-06 18:32:56.210,41.445,0.0,0.032,0.008,-0.139,-0.974,-0.155,28.060000000000002,-23.03,-75.82000000000001,0.7468,-0.6546000000000001,0.0027,-0.1165,-0.01,-0.003,0.012
2025-11-06 18:32:56.210,41.45,-0.006,0.031,0.008,-0.137,-0.972,-0.156,28.060000000000002,-23.03,-75.82000000000001,0.7473000000000001,-0.6541,0.0022,-0.1163,-0.011,-0.005,0.012
2025-11-06 18:32:56.210,41.455,-0.013000000000000001,0.032,0.008,-0.135,-0.969,-0.157,28.060000000000002,-23.03,-75.82000000000001,0.7477,-0.6537000000000001,0.0018000000000000002,-0.11610000000000001,-0.012,-0.008,0.011
2025-11-06 18:32:56.210,41.46,-0.012,0.024,0.009000000000000001,-0.133,-0.967,-0.157,28.12,-23.0,-75.97,0.7482000000000001,-0.6532,0.0013000000000000002,-0.1159,-0.013000000000000001,-0.01,0.011
2025-11-06 18:32:56.210,41.465,-0.015,0.02,0.006,-0.132,-0.967,-0.154,28.12,-23.0,-75.97,0.7485,-0.6528,0.0008,-0.11570000000000001,-0.013000000000000001,-0.01,0.006
2025-11-06 18:32:56.211,41.47,-0.015,0.016,0.004,-0.13,-0.964,-0.151,28.23,-23.06,-74.91,0.7487,-0.6526000000000001,0.0004,-0.1154,-0.013000000000000001,-0.013000000000000001,0.003
2025-11-06 18:32:56.211,41.475,-0.015,0.009000000000000001,0.004,-0.13,-0.965,-0.149,28.23,-23.06,-74.91,0.7489,-0.6525000000000001,0.0,-0.11520000000000001,-0.013000000000000001,-0.012,0.0
2025-11-06 18:32:56.211,41.48,-0.015,0.003,0.001,-0.13,-0.967,-0.146,28.23,-23.06,-74.91,0.7489,-0.6525000000000001,-0.0005,-0.115,-0.011,-0.01,-0.002
2025-11-06 18:32:56.211,41.485,-0.012,-0.003,0.0,-0.132,-0.966,-0.14100000000000001,27.97,-22.71,-75.76,0.7488,-0.6526000000000001,-0.0008,-0.1148,-0.009000000000000001,-0.011,-0.007
2025-11-06 18:32:56.211,41.49,-0.01,0.0,0.0,-0.133,-0.968,-0.139,27.97,-22.71,-75.76,0.7487,-0.6528,-0.0011,-0.11470000000000001,-0.007,-0.009000000000000001,-0.008
2025-11-06 18:32:56.211,41.495,-0.009000000000000001,-0.003,0.001,-0.135,-0.969,-0.139,28.060000000000002,-23.35,-75.32000000000001,0.7485,-0.653,-0.0013000000000000002,-0.11460000000000001,-0.005,-0.009000000000000001,-0.007
2025-11-06 18:32:56.211,41.5,-0.011,-0.007,0.0,-0.137,-0.971,-0.14100000000000001,28.060000000000002,-23.35,-75.32000000000001,0.7484000000000001,-0.6532,-0.0014,-0.11460000000000001,-0.002,-0.006,-0.005
2025-11-06 18:32:56.211,41.505,-0.014,-0.006,-0.001,-0.136,-0.971,-0.14200000000000002,28.12,-23.26,-75.65,0.7483000000000001,-0.6532,-0.0015,-0.1145,-0.003,-0.007,-0.003
2025-11-06 18:32:56.211,41.51,-0.011,-0.008,-0.001,-0.137,-0.97,-0.146,28.12,-23.26,-75.65,0.7484000000000001,-0.6532,-0.0015,-0.1144,-0.002,-0.008,0.0
2025-11-06 18:32:56.211,41.515,-0.012,-0.014,-0.001,-0.136,-0.968,-0.147,28.12,-23.26,-75.65,0.7485,-0.6531,-0.0016,-0.1143,-0.003,-0.01,0.0
2025-11-06 18:32:56.211,41.52,-0.01,-0.019,-0.002,-0.138,-0.967,-0.151,28.26,-23.150000000000002,-75.67,0.7487,-0.6529,-0.0015,-0.1143,-0.002,-0.011,0.004
2025-11-06 18:32:56.211,41.525,-0.011,-0.018000000000000002,-0.001,-0.136,-0.966,-0.152,28.26,-23.150000000000002,-75.67,0.7489,-0.6527000000000001,-0.0015,-0.11420000000000001,-0.003,-0.011,0.004
2025-11-06 18:32:56.211,41.53,-0.006,-0.022,-0.001,-0.134,-0.965,-0.152,27.68,-23.32,-76.14,0.7491,-0.6524,-0.0016,-0.114,-0.005,-0.012,0.004
2025-11-06 18:32:56.211,41.535,-0.004,-0.027,-0.001,-0.134,-0.968,-0.151,27.68,-23.32,-76.14,0.7493000000000001,-0.6523,-0.0016,-0.1139,-0.004,-0.01,0.002
2025-11-06 18:32:56.211,41.54,-0.002,-0.024,-0.001,-0.135,-0.968,-0.147,27.68,-23.32,-76.14,0.7493000000000001,-0.6523,-0.0016,-0.11380000000000001,-0.003,-0.009000000000000001,-0.001
2025-11-06 18:32:56.211,41.545,-0.001,-0.023,-0.001,-0.136,-0.968,-0.146,28.44,-24.37,-76.11,0.7492000000000001,-0.6523,-0.0017000000000000001,-0.11370000000000001,-0.002,-0.01,-0.002
2025-11-06 18:32:56.211,41.55,-0.001,-0.024,-0.001,-0.137,-0.967,-0.14300000000000002,28.44,-24.37,-76.11,0.7491,-0.6525000000000001,-0.0016,-0.11370000000000001,-0.001,-0.011,-0.004
2025-11-06 18:32:56.211,41.555,0.0,-0.023,0.0,-0.139,-0.967,-0.14300000000000002,28.03,-23.2,-76.08,0.749,-0.6526000000000001,-0.0015,-0.11370000000000001,0.0,-0.011,-0.005
2025-11-06 18:32:56.211,41.56,-0.001,-0.022,0.0,-0.14,-0.968,-0.14300000000000002,28.03,-23.2,-76.08,0.7489,-0.6527000000000001,-0.0014,-0.11380000000000001,0.001,-0.01,-0.004
2025-11-06 18:32:56.211,41.565,0.0,-0.021,0.0,-0.14200000000000002,-0.968,-0.14100000000000001,28.03,-23.2,-76.08,0.7487,-0.6529,-0.0012000000000000001,-0.1139,0.002,-0.009000000000000001,-0.006
2025-11-06 18:32:56.211,41.57,0.0,-0.019,0.001,-0.14300000000000002,-0.969,-0.14300000000000002,27.71,-22.91,-76.41,0.7486,-0.653,-0.001,-0.114,0.002,-0.009000000000000001,-0.004
2025-11-06 18:32:56.211,41.575,0.001,-0.017,0.004,-0.145,-0.969,-0.14400000000000002,27.71,-22.91,-76.41,0.7485,-0.6531,-0.0008,-0.11410000000000001,0.004,-0.009000000000000001,-0.002
2025-11-06 18:32:56.211,41.58,0.002,-0.014,0.003,-0.146,-0.969,-0.14400000000000002,27.94,-23.150000000000002,-75.67,0.7485,-0.6531,-0.0005,-0.1143,0.005,-0.009000000000000001,-0.002
2025-11-06 18:32:56.211,41.585,0.004,-0.016,0.003,-0.145,-0.968,-0.14400000000000002,27.94,-23.150000000000002,-75.67,0.7484000000000001,-0.6532,-0.00030000000000000003,-0.1144,0.003,-0.01,-0.002
2025-11-06 18:32:56.211,41.59,0.005,-0.01,0.005,-0.148,-0.968,-0.14200000000000002,28.23,-23.06,-76.43,0.7483000000000001,-0.6533,0.0,-0.11460000000000001,0.005,-0.01,-0.003
2025-11-06 18:32:56.211,41.595,0.004,-0.005,0.006,-0.148,-0.967,-0.14300000000000002,28.23,-23.06,-76.43,0.7482000000000001,-0.6533,0.0002,-0.1148,0.004,-0.011,-0.002
2025-11-06 18:32:56.211,41.6,0.005,-0.005,0.006,-0.148,-0.968,-0.14300000000000002,28.23,-23.06,-76.43,0.7481,-0.6534,0.0004,-0.1149,0.004,-0.009000000000000001,-0.003
2025-11-06 18:32:56.211,41.605,0.004,0.0,0.004,-0.147,-0.966,-0.14300000000000002,27.91,-23.26,-76.05,0.7481,-0.6534,0.0006000000000000001,-0.11510000000000001,0.003,-0.011,-0.002
2025-11-06 18:32:56.211,41.61,0.004,0.0,0.003,-0.147,-0.967,-0.14200000000000002,27.91,-23.26,-76.05,0.748,-0.6535000000000001,0.0007,-0.11520000000000001,0.002,-0.01,-0.003
2025-11-06 18:32:56.211,41.615,0.004,0.0,0.003,-0.148,-0.968,-0.14200000000000002,28.73,-22.94,-75.24,0.7479,-0.6536000000000001,0.0009000000000000001,-0.1153,0.003,-0.01,-0.003
2025-11-06 18:32:56.211,41.62,0.007,-0.003,0.004,-0.147,-0.969,-0.14,28.73,-22.94,-75.24,0.7477,-0.6538,0.0011,-0.1154,0.002,-0.008,-0.005
2025-11-06 18:32:56.211,41.625,0.004,-0.005,0.004,-0.149,-0.968,-0.139,28.73,-22.94,-75.24,0.7476,-0.6539,0.0012000000000000001,-0.1155,0.002,-0.009000000000000001,-0.005
2025-11-06 18:32:56.211,41.63,0.004,-0.003,0.001,-0.149,-0.968,-0.138,28.23,-22.47,-76.29,0.7474000000000001,-0.6541,0.0014,-0.11560000000000001,0.003,-0.009000000000000001,-0.006
2025-11-06 18:32:56.211,41.635,0.004,-0.004,0.001,-0.148,-0.969,-0.137,28.23,-22.47,-76.29,0.7472000000000001,-0.6543,0.0015,-0.11570000000000001,0.001,-0.008,-0.006
2025-11-06 18:32:56.211,41.64,0.002,-0.007,0.003,-0.147,-0.971,-0.139,27.97,-22.88,-75.94,0.7471,-0.6544,0.0016,-0.11570000000000001,0.0,-0.007,-0.004
2025-11-06 18:32:56.211,41.645,0.0,-0.004,0.001,-0.15,-0.972,-0.139,27.97,-22.88,-75.94,0.747,-0.6545000000000001,0.0018000000000000002,-0.1158,0.003,-0.005,-0.003
2025-11-06 18:32:56.211,41.65,0.001,-0.007,0.0,-0.147,-0.971,-0.14,27.97,-22.88,-75.94,0.7469,-0.6546000000000001,0.0018000000000000002,-0.1158,0.0,-0.006,-0.002
2025-11-06 18:32:56.211,41.655,0.001,-0.004,0.0,-0.147,-0.971,-0.14200000000000002,28.2,-23.150000000000002,-75.79,0.7469,-0.6546000000000001,0.0018000000000000002,-0.1158,0.0,-0.006,0.0
2025-11-06 18:32:56.211,41.66,0.0,-0.005,-0.001,-0.147,-0.971,-0.14300000000000002,28.2,-23.150000000000002,-75.79,0.747,-0.6546000000000001,0.0019,-0.1158,0.0,-0.006,0.0
2025-11-06 18:32:56.211,41.665,0.0,-0.001,-0.001,-0.145,-0.97,-0.146,27.59,-22.62,-75.53,0.7471,-0.6544,0.0018000000000000002,-0.1158,-0.002,-0.007,0.002
2025-11-06 18:32:56.211,41.67,0.0,0.002,0.0,-0.148,-0.969,-0.146,27.59,-22.62,-75.53,0.7472000000000001,-0.6543,0.0019,-0.1159,0.0,-0.008,0.002
2025-11-06 18:32:56.211,41.675,0.0,0.001,0.0,-0.148,-0.969,-0.145,27.88,-23.12,-75.12,0.7473000000000001,-0.6542,0.002,-0.116,0.0,-0.008,0.001
2025-11-06 18:32:56.211,41.68,-0.001,0.005,-0.001,-0.15,-0.965,-0.14200000000000002,27.88,-23.12,-75.12,0.7472000000000001,-0.6542,0.0021000000000000003,-0.11610000000000001,0.002,-0.012,-0.001
2025-11-06 18:32:56.211,41.685,-0.002,0.007,0.0,-0.149,-0.966,-0.14,27.88,-23.12,-75.12,0.7472000000000001,-0.6543,0.0022,-0.11620000000000001,0.001,-0.011,-0.003
2025-11-06 18:32:56.213,41.69,-0.001,0.007,0.0,-0.149,-0.967,-0.138,28.14,-23.23,-75.03,0.7471,-0.6544,0.0023,-0.1163,0.0,-0.01,-0.005
2025-11-06 18:32:56.213,41.695,0.004,0.008,0.002,-0.151,-0.968,-0.136,28.14,-23.23,-75.03,0.7469,-0.6546000000000001,0.0024000000000000002,-0.1164,0.002,-0.009000000000000001,-0.006
2025-11-06 18:32:56.213,41.7,0.006,0.007,0.002,-0.151,-0.968,-0.133,28.23,-23.2,-74.68,0.7466,-0.6549,0.0025,-0.1165,0.002,-0.009000000000000001,-0.008
2025-11-06 18:32:56.213,41.705,0.004,0.01,0.003,-0.154,-0.969,-0.132,28.23,-23.2,-74.68,0.7463000000000001,-0.6551,0.0027,-0.11660000000000001,0.004,-0.008,-0.009000000000000001
2025-11-06 18:32:56.213,41.71,0.002,0.013000000000000001,0.001,-0.155,-0.969,-0.131,28.23,-23.2,-74.68,0.746,-0.6555000000000001,0.003,-0.1168,0.004,-0.008,-0.009000000000000001
2025-11-06 18:32:56.213,41.715,0.006,0.013000000000000001,0.003,-0.155,-0.969,-0.132,28.09,-23.2,-75.24,0.7458,-0.6557000000000001,0.0031000000000000003,-0.1169,0.004,-0.008,-0.008
2025-11-06 18:32:56.213,41.72,0.007,0.013000000000000001,0.003,-0.156,-0.969,-0.132,28.09,-23.2,-75.24,0.7456,-0.6559,0.0033,-0.11710000000000001,0.004,-0.009000000000000001,-0.007
2025-11-06 18:32:56.213,41.725,0.006,0.013000000000000001,0.003,-0.156,-0.968,-0.133,28.2,-22.82,-75.32000000000001,0.7454000000000001,-0.6561,0.0035,-0.1173,0.004,-0.009000000000000001,-0.005
2025-11-06 18:32:56.213,41.73,0.009000000000000001,0.01,0.003,-0.155,-0.967,-0.136,28.2,-22.82,-75.32000000000001,0.7453000000000001,-0.6562,0.0037,-0.11750000000000001,0.002,-0.01,-0.002
2025-11-06 18:32:56.213,41.735,0.007,0.011,0.001,-0.155,-0.968,-0.136,28.2,-22.82,-75.32000000000001,0.7452000000000001,-0.6562,0.0037,-0.11760000000000001,0.001,-0.009000000000000001,-0.002
2025-11-06 18:32:56.213,41.74,0.006,0.014,0.0,-0.154,-0.969,-0.135,27.68,-23.32,-75.85000000000001,0.7451,-0.6563,0.0038,-0.1177,0.001,-0.008,-0.003
2025-11-06 18:32:56.213,41.745,0.006,0.014,0.0,-0.153,-0.969,-0.136,27.68,-23.32,-75.85000000000001,0.7451,-0.6564,0.0038,-0.1178,0.0,-0.008,-0.002
2025-11-06 18:32:56.213,41.75,0.006,0.016,0.001,-0.154,-0.969,-0.136,28.93,-23.990000000000002,-75.38,0.745,-0.6564,0.0039000000000000003,-0.1179,0.0,-0.008,-0.002
2025-11-06 18:32:56.213,41.755,0.002,0.022,0.001,-0.156,-0.971,-0.135,28.93,-23.990000000000002,-75.38,0.745,-0.6565000000000001,0.004,-0.11800000000000001,0.002,-0.006,-0.002
2025-11-06 18:32:56.213,41.76,0.006,0.02,0.001,-0.155,-0.969,-0.135,28.93,-23.990000000000002,-75.38,0.7449,-0.6565000000000001,0.004,-0.11810000000000001,0.001,-0.007,-0.002
2025-11-06 18:32:56.213,41.765,0.008,0.027,0.001,-0.155,-0.968,-0.134,27.85,-23.150000000000002,-76.05,0.7448,-0.6566000000000001,0.0041,-0.1182,0.001,-0.009000000000000001,-0.003
2025-11-06 18:32:56.213,41.77,0.007,0.028,0.001,-0.155,-0.968,-0.135,27.85,-23.150000000000002,-76.05,0.7447,-0.6567000000000001,0.0041,-0.1183,0.0,-0.009000000000000001,-0.002
2025-11-06 18:32:56.213,41.775,0.009000000000000001,0.034,0.001,-0.153,-0.968,-0.137,27.330000000000002,-22.94,-75.53,0.7447,-0.6566000000000001,0.004,-0.1184,-0.001,-0.009000000000000001,0.0
2025-11-06 18:32:56.213,41.78,0.01,0.034,0.004,-0.152,-0.968,-0.14,27.330000000000002,-22.94,-75.53,0.7448,-0.6565000000000001,0.0039000000000000003,-0.11850000000000001,-0.002,-0.009000000000000001,0.002
2025-11-06 18:32:56.213,41.785,0.012,0.037,0.004,-0.15,-0.968,-0.14100000000000001,27.3,-24.96,-74.89,0.745,-0.6563,0.0038,-0.11850000000000001,-0.003,-0.009000000000000001,0.003
2025-11-06 18:32:56.213,41.79,0.012,0.039,0.001,-0.145,-0.97,-0.14300000000000002,27.3,-24.96,-74.89,0.7452000000000001,-0.6562,0.0034000000000000002,-0.1184,-0.008,-0.007,0.004
2025-11-06 18:32:56.213,41.795,0.009000000000000001,0.038,0.003,-0.145,-0.97,-0.145,27.3,-24.96,-74.89,0.7454000000000001,-0.6559,0.0031000000000000003,-0.1183,-0.007,-0.007,0.005
2025-11-06 18:32:56.213,41.8,0.007,0.033,0.004,-0.14400000000000002,-0.971,-0.145,27.740000000000002,-25.95,-75.03,0.7456,-0.6557000000000001,0.0028,-0.1182,-0.008,-0.006,0.005
2025-11-06 18:32:56.213,41.805,0.006,0.032,0.004,-0.14300000000000002,-0.971,-0.146,27.740000000000002,-25.95,-75.03,0.7458,-0.6555000000000001,0.0025,-0.11810000000000001,-0.008,-0.006,0.005
2025-11-06 18:32:56.213,41.81,0.004,0.024,0.004,-0.14100000000000001,-0.973,-0.146,27.53,-23.35,-75.53,0.746,-0.6553,0.0022,-0.1179,-0.009000000000000001,-0.004,0.004
2025-11-06 18:32:56.213,41.815,0.003,0.018000000000000002,0.004,-0.14100000000000001,-0.974,-0.145,27.53,-23.35,-75.53,0.7462000000000001,-0.6551,0.0018000000000000002,-0.1177,-0.009000000000000001,-0.003,0.003
2025-11-06 18:32:56.213,41.82,0.004,0.015,0.003,-0.14,-0.975,-0.14400000000000002,27.53,-23.35,-75.53,0.7463000000000001,-0.655,0.0015,-0.11750000000000001,-0.008,-0.002,0.002
2025-11-06 18:32:56.213,41.825,-0.001,0.009000000000000001,0.001,-0.14100000000000001,-0.976,-0.14400000000000002,27.59,-23.23,-75.44,0.7464000000000001,-0.6549,0.0012000000000000001,-0.1174,-0.007,-0.001,0.002
2025-11-06 18:32:56.213,41.83,-0.003,0.007,0.001,-0.14200000000000002,-0.974,-0.14300000000000002,27.59,-23.23,-75.44,0.7465,-0.6548,0.001,-0.11720000000000001,-0.006,-0.003,0.001
2025-11-06 18:32:56.213,41.835,0.0,0.001,-0.001,-0.14200000000000002,-0.974,-0.14100000000000001,27.97,-23.47,-75.67,0.7465,-0.6548,0.0008,-0.11710000000000001,-0.005,-0.003,0.0
2025-11-06 18:32:56.213,41.84,-0.001,0.004,0.0,-0.14200000000000002,-0.971,-0.14,27.97,-23.47,-75.67,0.7465,-0.6549,0.0006000000000000001,-0.1169,-0.005,-0.007,-0.002
2025-11-06 18:32:56.213,41.845,-0.003,0.011,-0.002,-0.14100000000000001,-0.969,-0.136,27.97,-23.47,-75.67,0.7464000000000001,-0.655,0.0005,-0.1168,-0.005,-0.009000000000000001,-0.006
2025-11-06 18:32:56.213,41.85,-0.006,0.017,-0.003,-0.14100000000000001,-0.968,-0.136,28.0,-23.38,-75.67,0.7463000000000001,-0.6551,0.00030000000000000003,-0.11670000000000001,-0.005,-0.01,-0.005
2025-11-06 18:32:56.213,41.855,-0.006,0.023,-0.002,-0.14,-0.969,-0.139,28.0,-23.38,-75.67,0.7463000000000001,-0.6552,0.0001,-0.11660000000000001,-0.005,-0.008,-0.002
2025-11-06 18:32:56.213,41.86,-0.006,0.029,-0.003,-0.138,-0.969,-0.139,28.0,-23.580000000000002,-75.97,0.7463000000000001,-0.6552,-0.0001,-0.1165,-0.006,-0.009000000000000001,-0.002
2025-11-06 18:32:56.214,41.865,-0.006,0.028,-0.003,-0.139,-0.97,-0.14,28.0,-23.580000000000002,-75.97,0.7464000000000001,-0.6551,-0.00030000000000000003,-0.1164,-0.005,-0.007,0.0
2025-11-06 18:32:56.214,41.87,-0.011,0.03,-0.003,-0.14100000000000001,-0.969,-0.14100000000000001,28.2,-23.56,-75.53,0.7465,-0.6551,-0.0004,-0.1164,-0.003,-0.008,0.0
2025-11-06 18:32:56.214,41.875,-0.011,0.029,-0.003,-0.14100000000000001,-0.968,-0.138,28.2,-23.56,-75.53,0.7464000000000001,-0.6551,-0.0005,-0.1164,-0.003,-0.01,-0.003
2025-11-06 18:32:56.214,41.88,-0.011,0.032,-0.004,-0.14200000000000002,-0.965,-0.137,28.2,-23.56,-75.53,0.7464000000000001,-0.6552,-0.0006000000000000001,-0.1164,-0.002,-0.013000000000000001,-0.004
2025-11-06 18:32:56.214,41.885,-0.011,0.027,-0.004,-0.14300000000000002,-0.965,-0.136,27.91,-23.32,-75.32000000000001,0.7463000000000001,-0.6552,-0.0006000000000000001,-0.1165,-0.001,-0.012,-0.004
2025-11-06 18:32:56.214,41.89,-0.011,0.03,-0.002,-0.14200000000000002,-0.967,-0.136,27.91,-23.32,-75.32000000000001,0.7462000000000001,-0.6553,-0.0007,-0.1165,-0.001,-0.011,-0.005
2025-11-06 18:32:56.214,41.895,-0.011,0.027,-0.002,-0.146,-0.969,-0.134,28.29,-24.52,-75.44,0.7461,-0.6555000000000001,-0.0007,-0.11660000000000001,0.001,-0.009000000000000001,-0.006
2025-11-06 18:32:56.214,41.9,-0.014,0.025,-0.001,-0.148,-0.969,-0.129,28.29,-24.52,-75.44,0.7458,-0.6558,-0.0006000000000000001,-0.1168,0.002,-0.009000000000000001,-0.01
2025-11-06 18:32:56.214,41.905,-0.018000000000000002,0.03,0.0,-0.15,-0.969,-0.126,28.29,-24.52,-75.44,0.7454000000000001,-0.6561,-0.0005,-0.117,0.004,-0.009000000000000001,-0.012
2025-11-06 18:32:56.217,41.91,-0.015,0.03,0.003,-0.15,-0.969,-0.125,28.26,-23.29,-75.29,0.7451,-0.6565000000000001,-0.0004,-0.11720000000000001,0.003,-0.009000000000000001,-0.012
2025-11-06 18:32:56.217,41.915,-0.014,0.035,0.003,-0.153,-0.97,-0.126,28.26,-23.29,-75.29,0.7448,-0.6568,-0.0002,-0.11750000000000001,0.006,-0.008,-0.01
2025-11-06 18:32:56.217,41.92,-0.019,0.038,0.005,-0.152,-0.971,-0.126,28.29,-26.04,-75.41,0.7445,-0.6571,-0.0001,-0.1177,0.004,-0.007,-0.009000000000000001
2025-11-06 18:32:56.217,41.925,-0.015,0.039,0.004,-0.152,-0.971,-0.128,28.29,-26.04,-75.41,0.7443000000000001,-0.6572,0.0,-0.11800000000000001,0.004,-0.007,-0.007
2025-11-06 18:32:56.217,41.93,-0.014,0.043000000000000003,0.006,-0.151,-0.969,-0.13,28.29,-26.04,-75.41,0.7442000000000001,-0.6574,0.0,-0.1182,0.002,-0.009000000000000001,-0.005
2025-11-06 18:32:56.217,41.935,-0.012,0.042,0.007,-0.151,-0.969,-0.131,28.2,-23.06,-75.65,0.7441,-0.6574,0.0001,-0.1184,0.002,-0.009000000000000001,-0.004
2025-11-06 18:32:56.217,41.94,-0.012,0.046,0.004,-0.148,-0.968,-0.134,28.2,-23.06,-75.65,0.7441,-0.6574,0.0,-0.11850000000000001,0.0,-0.01,-0.001
2025-11-06 18:32:56.217,41.945,-0.008,0.046,0.006,-0.149,-0.97,-0.137,27.91,-23.0,-76.08,0.7442000000000001,-0.6573,0.0,-0.11860000000000001,0.0,-0.008,0.001
2025-11-06 18:32:56.217,41.95,-0.005,0.045,0.006,-0.146,-0.97,-0.139,27.91,-23.0,-76.08,0.7443000000000001,-0.6571,0.0,-0.1187,-0.002,-0.008,0.002
2025-11-06 18:32:56.217,41.955,-0.006,0.048,0.004,-0.14400000000000002,-0.97,-0.137,27.82,-23.88,-76.08,0.7444000000000001,-0.657,-0.0002,-0.1187,-0.004,-0.008,0.0
2025-11-06 18:32:56.217,41.96,-0.005,0.049,0.008,-0.14100000000000001,-0.971,-0.135,27.82,-23.88,-76.08,0.7444000000000001,-0.657,-0.0005,-0.11860000000000001,-0.006,-0.007,-0.001
2025-11-06 18:32:56.217,41.965,-0.004,0.056,0.008,-0.138,-0.971,-0.133,27.82,-23.88,-76.08,0.7444000000000001,-0.657,-0.0008,-0.11850000000000001,-0.008,-0.007,-0.003
2025-11-06 18:32:56.217,41.97,-0.002,0.054,0.009000000000000001,-0.136,-0.972,-0.131,28.12,-25.46,-75.91,0.7443000000000001,-0.6572,-0.0012000000000000001,-0.1182,-0.01,-0.006,-0.004
2025-11-06 18:32:56.217,41.975,-0.004,0.055,0.011,-0.134,-0.974,-0.131,28.12,-25.46,-75.91,0.7443000000000001,-0.6573,-0.0016,-0.11800000000000001,-0.011,-0.004,-0.005
2025-11-06 18:32:56.217,41.98,-0.004,0.058,0.012,-0.133,-0.973,-0.129,28.29,-23.18,-75.65,0.7442000000000001,-0.6574,-0.0021000000000000003,-0.1177,-0.011,-0.005,-0.006
2025-11-06 18:32:56.217,41.985,-0.007,0.061,0.01,-0.131,-0.975,-0.129,28.29,-23.18,-75.65,0.7441,-0.6576000000000001,-0.0025,-0.1174,-0.012,-0.004,-0.006
2025-11-06 18:32:56.217,41.99,-0.004,0.06,0.01,-0.131,-0.974,-0.128,28.29,-23.18,-75.65,0.744,-0.6578,-0.003,-0.11720000000000001,-0.011,-0.005,-0.006
2025-11-06 18:32:56.217,41.995,-0.006,0.058,0.01,-0.132,-0.975,-0.13,28.03,-23.18,-75.41,0.7439,-0.6579,-0.0034000000000000002,-0.117,-0.009000000000000001,-0.004,-0.004
2025-11-06 18:32:56.217,42.0,-0.006,0.06,0.007,-0.135,-0.972,-0.13,28.03,-23.18,-75.41,0.7439,-0.6579,-0.0036000000000000003,-0.1169,-0.006,-0.007,-0.003
2025-11-06 18:32:56.217,42.005,-0.004,0.063,0.004,-0.137,-0.97,-0.133,28.41,-23.41,-75.24,0.7439,-0.6579,-0.0038,-0.1169,-0.003,-0.009000000000000001,-0.001
2025-11-06 18:32:56.217,42.01,-0.01,0.063,0.004,-0.14,-0.968,-0.134,28.41,-23.41,-75.24,0.7439,-0.6578,-0.0039000000000000003,-0.11710000000000001,-0.001,-0.012,0.0
2025-11-06 18:32:56.217,42.015,-0.006,0.065,0.004,-0.14100000000000001,-0.967,-0.136,28.41,-23.41,-75.24,0.744,-0.6576000000000001,-0.0039000000000000003,-0.1173,0.0,-0.012,0.001
2025-11-06 18:32:56.217,42.02,-0.005,0.062,0.001,-0.14100000000000001,-0.967,-0.136,28.5,-23.2,-74.91,0.7441,-0.6575000000000001,-0.004,-0.1174,0.0,-0.012,0.0
2025-11-06 18:32:56.217,42.025,-0.005,0.06,0.002,-0.14300000000000002,-0.966,-0.135,28.5,-23.2,-74.91,0.7442000000000001,-0.6574,-0.0039000000000000003,-0.1177,0.001,-0.014,0.0
2025-11-06 18:32:56.217,42.03,-0.005,0.06,0.003,-0.14100000000000001,-0.964,-0.134,28.32,-23.580000000000002,-75.06,0.7442000000000001,-0.6574,-0.004,-0.1178,0.0,-0.015,-0.001
2025-11-06 18:32:56.217,42.035,-0.006,0.061,0.004,-0.14100000000000001,-0.967,-0.132,28.32,-23.580000000000002,-75.06,0.7441,-0.6574,-0.0041,-0.11800000000000001,-0.001,-0.012,-0.002
2025-11-06 18:32:56.217,42.04,-0.008,0.062,0.004,-0.14,-0.969,-0.132,27.76,-23.580000000000002,-75.67,0.7441,-0.6574,-0.004200000000000001,-0.11810000000000001,-0.001,-0.01,-0.002
2025-11-06 18:32:56.217,42.045,-0.008,0.062,0.005,-0.14,-0.971,-0.132,27.76,-23.67,-75.67,0.7441,-0.6574,-0.0043,-0.1182,-0.001,-0.008,-0.003
2025-11-06 18:32:56.217,42.05,-0.009000000000000001,0.064,0.006,-0.14,-0.973,-0.132,27.76,-23.67,-75.67,0.744,-0.6575000000000001,-0.0044,-0.1183,-0.001,-0.006,-0.003
2025-11-06 18:32:56.217,42.055,-0.013000000000000001,0.061,0.006,-0.14,-0.974,-0.132,27.76,-23.29,-75.35000000000001,0.744,-0.6575000000000001,-0.0046,-0.1183,-0.001,-0.005,-0.002
2025-11-06 18:32:56.217,42.06,-0.021,0.066,0.005,-0.14100000000000001,-0.975,-0.135,27.76,-23.29,-75.35000000000001,0.744,-0.6574,-0.0046,-0.11850000000000001,0.0,-0.004,0.0
2025-11-06 18:32:56.217,42.065,-0.024,0.066,0.003,-0.14300000000000002,-0.975,-0.138,27.68,-23.38,-75.67,0.7441,-0.6573,-0.0047,-0.1187,0.001,-0.004,0.002
2025-11-06 18:32:56.217,42.07,-0.029,0.06,0.004,-0.14400000000000002,-0.975,-0.14100000000000001,27.68,-23.38,-75.67,0.7443000000000001,-0.657,-0.0047,-0.1189,0.002,-0.004,0.004
2025-11-06 18:32:56.217,42.075,-0.03,0.06,0.006,-0.14400000000000002,-0.974,-0.14100000000000001,27.68,-23.38,-75.67,0.7445,-0.6568,-0.0046,-0.11910000000000001,0.002,-0.005,0.003
2025-11-06 18:32:56.217,42.08,-0.036000000000000004,0.062,0.004,-0.146,-0.972,-0.14200000000000002,27.68,-23.18,-76.05,0.7447,-0.6565000000000001,-0.0046,-0.1194,0.003,-0.006,0.004
2025-11-06 18:32:56.217,42.085,-0.037,0.063,0.004,-0.145,-0.97,-0.14200000000000002,27.68,-23.18,-76.05,0.7449,-0.6562,-0.0045000000000000005,-0.11960000000000001,0.002,-0.009000000000000001,0.004
2025-11-06 18:32:56.217,42.09,-0.037,0.063,0.003,-0.146,-0.969,-0.14400000000000002,27.650000000000002,-23.94,-75.27,0.7451,-0.6559,-0.0045000000000000005,-0.1199,0.003,-0.009000000000000001,0.004
2025-11-06 18:32:56.217,42.095,-0.037,0.065,0.004,-0.145,-0.97,-0.14400000000000002,27.650000000000002,-23.94,-75.27,0.7453000000000001,-0.6556000000000001,-0.0045000000000000005,-0.12010000000000001,0.001,-0.008,0.004
2025-11-06 18:32:56.218,42.1,-0.04,0.065,0.003,-0.147,-0.972,-0.14300000000000002,27.650000000000002,-23.94,-75.27,0.7455,-0.6554,-0.0044,-0.12040000000000001,0.003,-0.006,0.002
2025-11-06 18:32:56.218,42.105,-0.041,0.064,0.002,-0.147,-0.97,-0.14200000000000002,27.68,-23.29,-75.41,0.7456,-0.6553,-0.0044,-0.1206,0.003,-0.008,0.0
2025-11-06 18:32:56.218,42.11,-0.042,0.066,0.0,-0.148,-0.968,-0.14,27.68,-23.29,-75.41,0.7456,-0.6552,-0.0043,-0.12090000000000001,0.003,-0.01,-0.001
2025-11-06 18:32:56.218,42.115,-0.04,0.067,0.0,-0.148,-0.965,-0.138,27.68,-23.2,-75.82000000000001,0.7456,-0.6551,-0.004200000000000001,-0.1212,0.003,-0.013000000000000001,-0.003
2025-11-06 18:32:56.218,42.12,-0.041,0.066,-0.001,-0.149,-0.961,-0.14,27.68,-23.2,-75.82000000000001,0.7457,-0.655,-0.0041,-0.12140000000000001,0.003,-0.016,-0.001
2025-11-06 18:32:56.218,42.125,-0.038,0.059000000000000004,-0.002,-0.147,-0.96,-0.138,27.68,-23.2,-75.82000000000001,0.7457,-0.655,-0.0041,-0.1216,0.001,-0.017,-0.003
2025-11-06 18:32:56.218,42.13,-0.036000000000000004,0.055,-0.006,-0.147,-0.961,-0.135,27.85,-23.12,-75.85000000000001,0.7456,-0.655,-0.0041,-0.1218,0.001,-0.016,-0.006
2025-11-06 18:32:56.218,42.135,-0.033,0.051000000000000004,-0.006,-0.146,-0.9590000000000001,-0.132,27.85,-23.12,-75.85000000000001,0.7455,-0.6552,-0.004,-0.12190000000000001,0.0,-0.018000000000000002,-0.008
2025-11-06 18:32:56.218,42.14,-0.036000000000000004,0.046,-0.006,-0.147,-0.96,-0.129,27.97,-23.23,-75.24,0.7452000000000001,-0.6554,-0.004,-0.12200000000000001,0.0,-0.018000000000000002,-0.011
2025-11-06 18:32:56.218,42.145,-0.037,0.047,-0.007,-0.148,-0.964,-0.128,27.97,-23.23,-75.24,0.745,-0.6557000000000001,-0.0039000000000000003,-0.1221,0.0,-0.014,-0.012
2025-11-06 18:32:56.218,42.15,-0.037,0.041,-0.006,-0.148,-0.97,-0.127,27.88,-23.150000000000002,-75.27,0.7447,-0.656,-0.0039000000000000003,-0.1222,0.001,-0.008,-0.011
2025-11-06 18:32:56.218,42.155,-0.036000000000000004,0.037,-0.004,-0.154,-0.978,-0.129,27.88,-23.150000000000002,-75.27,0.7445,-0.6562,-0.0038,-0.1223,0.006,0.0,-0.009000000000000001
2025-11-06 18:32:56.218,42.16,-0.037,0.038,-0.002,-0.157,-0.984,-0.131,27.88,-23.150000000000002,-75.27,0.7443000000000001,-0.6564,-0.0036000000000000003,-0.1226,0.008,0.006,-0.007
2025-11-06 18:32:56.218,42.165,-0.034,0.037,-0.001,-0.161,-0.984,-0.134,27.740000000000002,-23.23,-75.35000000000001,0.7441,-0.6565000000000001,-0.0033,-0.12300000000000001,0.011,0.006,-0.003
2025-11-06 18:32:56.218,42.17,-0.038,0.043000000000000003,-0.001,-0.163,-0.982,-0.138,27.740000000000002,-23.23,-75.35000000000001,0.7441,-0.6564,-0.003,-0.12340000000000001,0.013000000000000001,0.004,0.0
2025-11-06 18:32:56.218,42.175,-0.039,0.043000000000000003,-0.001,-0.166,-0.975,-0.149,27.82,-23.12,-75.15,0.7444000000000001,-0.656,-0.0026000000000000003,-0.1241,0.014,-0.002,0.01
2025-11-06 18:32:56.218,42.18,-0.042,0.055,-0.001,-0.165,-0.967,-0.158,27.82,-23.12,-75.15,0.7449,-0.6553,-0.0023,-0.12490000000000001,0.012,-0.01,0.017
2025-11-06 18:32:56.218,42.185,-0.042,0.067,-0.001,-0.161,-0.961,-0.163,27.82,-23.12,-75.15,0.7456,-0.6544,-0.0022,-0.12560000000000002,0.008,-0.016,0.019
2025-11-06 18:32:56.218,42.19,-0.044,0.076,-0.003,-0.159,-0.9560000000000001,-0.165,28.23,-23.0,-75.24,0.7462000000000001,-0.6535000000000001,-0.0022,-0.1262,0.004,-0.02,0.019
2025-11-06 18:32:56.218,42.195,-0.037,0.082,-0.007,-0.157,-0.9540000000000001,-0.163,28.23,-23.0,-75.24,0.7468,-0.6527000000000001,-0.0023,-0.1268,0.002,-0.022,0.015
2025-11-06 18:32:56.218,42.2,-0.026000000000000002,0.098,-0.004,-0.156,-0.9530000000000001,-0.158,27.76,-23.06,-74.65,0.7472000000000001,-0.6522,-0.0024000000000000002,-0.1272,0.001,-0.022,0.009000000000000001
2025-11-06 18:32:56.219,42.205,-0.022,0.107,-0.002,-0.154,-0.9530000000000001,-0.155,27.76,-23.06,-74.65,0.7475,-0.6518,-0.0025,-0.12760000000000002,-0.001,-0.022,0.004
2025-11-06 18:32:56.219,42.21,-0.018000000000000002,0.111,-0.002,-0.153,-0.9540000000000001,-0.148,27.76,-23.06,-74.65,0.7475,-0.6517000000000001,-0.0027,-0.1278,-0.001,-0.021,-0.002
2025-11-06 18:32:56.219,42.215,-0.014,0.11,-0.001,-0.152,-0.9550000000000001,-0.146,28.26,-23.73,-74.89,0.7475,-0.6517000000000001,-0.0029000000000000002,-0.128,-0.003,-0.02,-0.004
2025-11-06 18:32:56.219,42.22,-0.012,0.10400000000000001,0.0,-0.15,-0.9590000000000001,-0.14100000000000001,28.26,-23.73,-74.89,0.7474000000000001,-0.6518,-0.0031000000000000003,-0.128,-0.005,-0.016,-0.008
2025-11-06 18:32:56.219,42.225,-0.008,0.101,0.0,-0.151,-0.962,-0.138,28.03,-23.29,-75.06,0.7471,-0.6521,-0.0033,-0.128,-0.003,-0.013000000000000001,-0.011
2025-11-06 18:32:56.219,42.23,-0.006,0.099,0.0,-0.151,-0.964,-0.139,28.03,-23.29,-75.06,0.7469,-0.6524,-0.0035,-0.128,-0.003,-0.012,-0.01
2025-11-06 18:32:56.219,42.235,-0.001,0.093,0.0,-0.151,-0.966,-0.14300000000000002,27.53,-24.080000000000002,-75.44,0.7468,-0.6525000000000001,-0.0037,-0.12810000000000002,-0.003,-0.01,-0.005
2025-11-06 18:32:56.219,42.24,-0.006,0.09,-0.001,-0.153,-0.968,-0.14300000000000002,27.53,-24.080000000000002,-75.44,0.7467,-0.6526000000000001,-0.0039000000000000003,-0.1282,-0.001,-0.008,-0.004
2025-11-06 18:32:56.219,42.245,-0.008,0.082,-0.003,-0.154,-0.971,-0.149,27.53,-24.080000000000002,-75.44,0.7467,-0.6525000000000001,-0.004,-0.12840000000000001,0.0,-0.004,0.0
2025-11-06 18:32:56.219,42.25,-0.008,0.075,-0.001,-0.152,-0.971,-0.149,27.91,-23.94,-75.41,0.7468,-0.6524,-0.004200000000000001,-0.1285,-0.001,-0.004,0.0
2025-11-06 18:32:56.219,42.255,-0.008,0.073,-0.003,-0.155,-0.973,-0.152,27.91,-23.94,-75.41,0.7469,-0.6522,-0.0043,-0.1287,0.001,-0.002,0.003
2025-11-06 18:32:56.219,42.26,-0.009000000000000001,0.07200000000000001,-0.002,-0.158,-0.975,-0.153,27.62,-23.94,-75.21000000000001,0.747,-0.652,-0.0043,-0.12890000000000001,0.003,-0.001,0.004
2025-11-06 18:32:56.219,42.265,-0.011,0.074,-0.002,-0.16,-0.973,-0.154,27.62,-23.94,-75.21000000000001,0.7472000000000001,-0.6518,-0.004200000000000001,-0.1293,0.005,-0.002,0.004
2025-11-06 18:32:56.219,42.27,-0.012,0.07,-0.004,-0.16,-0.973,-0.153,27.62,-23.94,-75.21000000000001,0.7472000000000001,-0.6517000000000001,-0.004200000000000001,-0.1296,0.004,-0.001,0.002
2025-11-06 18:32:56.219,42.275,-0.017,0.07200000000000001,-0.004,-0.158,-0.972,-0.155,27.85,-24.61,-75.73,0.7474000000000001,-0.6515000000000001,-0.004200000000000001,-0.1298,0.003,-0.003,0.004
2025-11-06 18:32:56.219,42.28,-0.016,0.075,-0.008,-0.158,-0.97,-0.155,27.85,-24.61,-75.73,0.7475,-0.6513,-0.004200000000000001,-0.1301,0.002,-0.004,0.003
2025-11-06 18:32:56.219,42.285,-0.022,0.076,-0.009000000000000001,-0.157,-0.972,-0.156,28.5,-24.52,-75.53,0.7477,-0.651,-0.0043,-0.1303,0.001,-0.003,0.004
2025-11-06 18:32:56.219,42.29,-0.019,0.074,-0.011,-0.157,-0.971,-0.156,28.5,-24.52,-75.53,0.7478,-0.6508,-0.0045000000000000005,-0.13040000000000002,0.0,-0.004,0.003
2025-11-06 18:32:56.219,42.295,-0.018000000000000002,0.07100000000000001,-0.015,-0.155,-0.969,-0.156,28.5,-24.52,-75.53,0.748,-0.6506000000000001,-0.0046,-0.1306,0.0,-0.005,0.002
