System_Time,Timestamp,Gyro_X,Gyro_Y,Gyro_Z,Acc_X,Acc_Y,Acc_Z,Mag_X,Mag_Y,Mag_Z,Quat_W,Quat_X,Quat_Y,Quat_Z,Linear_Acc_X,Linear_Acc_Y,Linear_Acc_Z
2025-11-06 18:34:09.368,52.995,-0.026000000000000002,-0.007,-0.005,-0.092,-0.993,0.036000000000000004,69.21000000000001,-16.25,-67.78,0.6926,-0.7164,0.0818,0.012700000000000001,-0.003,0.0,0.003
2025-11-06 18:34:09.368,53.0,-0.027,-0.02,-0.002,-0.094,-0.991,0.036000000000000004,68.69,-15.58,-67.72,0.6928000000000001,-0.7163,0.0818,0.0128,0.0,-0.003,0.003
2025-11-06 18:34:09.368,53.005,-0.023,-0.034,-0.002,-0.094,-0.99,0.043000000000000003,68.69,-15.58,-67.72,0.6927,-0.7163,0.0818,0.0128,0.0,-0.004,-0.003
2025-11-06 18:34:09.368,53.01,-0.023,-0.047,-0.005,-0.096,-0.991,0.046,69.33,-15.96,-68.13,0.6925,-0.7165,0.082,0.0128,0.001,-0.003,-0.006
2025-11-06 18:34:09.368,53.015,-0.025,-0.061,-0.007,-0.095,-0.992,0.049,69.33,-15.96,-68.13,0.6923,-0.7167,0.0821,0.0129,0.0,-0.002,-0.008
2025-11-06 18:34:09.368,53.02,-0.032,-0.063,-0.009000000000000001,-0.095,-0.991,0.05,69.33,-15.96,-68.13,0.6920000000000001,-0.7169,0.08220000000000001,0.0129,0.0,-0.002,-0.008
2025-11-06 18:34:09.368,53.025,-0.038,-0.062,-0.013000000000000001,-0.095,-0.992,0.048,68.98,-16.1,-68.4,0.6919000000000001,-0.7171000000000001,0.0823,0.013000000000000001,0.0,-0.002,-0.006
2025-11-06 18:34:09.368,53.03,-0.046,-0.061,-0.015,-0.093,-0.993,0.045,68.98,-16.1,-68.4,0.6919000000000001,-0.7171000000000001,0.0823,0.0132,-0.001,0.0,-0.002
2025-11-06 18:34:09.368,53.035,-0.05,-0.059000000000000004,-0.017,-0.096,-0.994,0.045,68.89,-16.16,-67.84,0.6918000000000001,-0.7171000000000001,0.0824,0.013300000000000001,0.001,0.0,-0.002
2025-11-06 18:34:09.368,53.04,-0.056,-0.057,-0.016,-0.095,-0.996,0.041,68.89,-16.16,-67.84,0.6920000000000001,-0.7170000000000001,0.0825,0.0134,0.001,0.002,0.0
2025-11-06 18:34:09.368,53.045,-0.057,-0.056,-0.019,-0.095,-0.997,0.037,68.89,-16.16,-67.84,0.6922,-0.7167,0.0826,0.013600000000000001,0.0,0.003,0.004
2025-11-06 18:34:09.368,53.05,-0.062,-0.055,-0.018000000000000002,-0.097,-0.995,0.032,69.39,-15.93,-67.69,0.6925,-0.7164,0.08270000000000001,0.0137,0.002,0.0,0.007
2025-11-06 18:34:09.368,53.055,-0.064,-0.057,-0.017,-0.097,-0.995,0.032,69.39,-15.93,-67.69,0.6929000000000001,-0.7160000000000001,0.0828,0.013800000000000002,0.002,0.0,0.007
2025-11-06 18:34:09.368,53.06,-0.061,-0.059000000000000004,-0.014,-0.098,-0.995,0.034,68.63,-16.01,-67.9,0.6931,-0.7158,0.083,0.013800000000000002,0.003,0.0,0.004
2025-11-06 18:34:09.368,53.065,-0.061,-0.06,-0.014,-0.10200000000000001,-0.996,0.03,68.63,-16.01,-67.9,0.6935,-0.7154,0.0833,0.013800000000000002,0.006,0.001,0.007
2025-11-06 18:34:09.368,53.07,-0.057,-0.062,-0.012,-0.10400000000000001,-0.994,0.03,68.83,-16.51,-68.05,0.6938000000000001,-0.7151000000000001,0.08360000000000001,0.013600000000000001,0.008,0.0,0.006
2025-11-06 18:34:09.368,53.075,-0.051000000000000004,-0.077,-0.012,-0.10400000000000001,-0.996,0.035,68.83,-16.51,-68.05,0.6939000000000001,-0.7149,0.084,0.013600000000000001,0.007,0.002,0.001
2025-11-06 18:34:09.368,53.08,-0.046,-0.075,-0.008,-0.10200000000000001,-0.994,0.036000000000000004,68.83,-16.51,-68.05,0.6940000000000001,-0.7148,0.08420000000000001,0.013600000000000001,0.005,0.0,0.0
2025-11-06 18:34:09.368,53.085,-0.045,-0.081,-0.007,-0.10200000000000001,-0.994,0.033,69.07000000000001,-16.31,-68.43,0.6941,-0.7146,0.0845,0.013600000000000001,0.004,0.0,0.002
2025-11-06 18:34:09.368,53.09,-0.043000000000000003,-0.078,-0.003,-0.10400000000000001,-0.992,0.031,69.07000000000001,-16.31,-68.43,0.6943,-0.7144,0.0848,0.0135,0.006,-0.002,0.004
2025-11-06 18:34:09.368,53.095,-0.036000000000000004,-0.08,-0.002,-0.10400000000000001,-0.99,0.029,68.57000000000001,-16.39,-68.31,0.6946,-0.7141000000000001,0.08510000000000001,0.0135,0.005,-0.003,0.005
2025-11-06 18:34:09.369,53.1,-0.031,-0.079,0.0,-0.10200000000000001,-0.989,0.03,68.57000000000001,-16.39,-68.31,0.6948000000000001,-0.7139,0.0854,0.0135,0.003,-0.004,0.003
2025-11-06 18:34:09.369,53.105,-0.026000000000000002,-0.083,-0.001,-0.105,-0.988,0.031,68.57000000000001,-16.39,-68.31,0.6948000000000001,-0.7138,0.0857,0.0135,0.005,-0.005,0.001
2025-11-06 18:34:09.369,53.11,-0.023,-0.084,0.0,-0.107,-0.987,0.033,69.68,-16.01,-68.22,0.6949000000000001,-0.7137,0.08610000000000001,0.0134,0.007,-0.006,0.0
2025-11-06 18:34:09.369,53.115,-0.025,-0.084,-0.002,-0.109,-0.986,0.035,69.68,-16.01,-68.22,0.6949000000000001,-0.7137,0.08660000000000001,0.0132,0.008,-0.007,-0.001
2025-11-06 18:34:09.369,53.12,-0.028,-0.092,-0.005,-0.11,-0.986,0.037,69.10000000000001,-15.9,-68.28,0.6948000000000001,-0.7137,0.08710000000000001,0.0131,0.008,-0.007,-0.003
2025-11-06 18:34:09.369,53.125,-0.033,-0.095,-0.01,-0.11,-0.986,0.037,69.10000000000001,-15.9,-68.28,0.6947,-0.7137,0.08750000000000001,0.0131,0.007,-0.007,-0.003
2025-11-06 18:34:09.369,53.13,-0.038,-0.091,-0.012,-0.109,-0.986,0.036000000000000004,69.48,-15.96,-68.34,0.6947,-0.7137,0.0879,0.013000000000000001,0.006,-0.007,-0.001
2025-11-06 18:34:09.369,53.135,-0.047,-0.097,-0.016,-0.107,-0.989,0.036000000000000004,69.48,-15.96,-68.34,0.6947,-0.7137,0.0882,0.0131,0.003,-0.004,-0.001
2025-11-06 18:34:09.369,53.14,-0.054,-0.098,-0.024,-0.10400000000000001,-0.992,0.037,69.48,-15.96,-68.34,0.6946,-0.7137,0.0884,0.013300000000000001,0.0,-0.001,-0.003
2025-11-06 18:34:09.369,53.145,-0.058,-0.098,-0.027,-0.105,-0.995,0.036000000000000004,69.19,-16.04,-68.81,0.6947,-0.7136,0.0886,0.0135,0.001,0.001,-0.001
2025-11-06 18:34:09.369,53.15,-0.063,-0.088,-0.029,-0.105,-0.997,0.036000000000000004,69.19,-16.04,-68.81,0.6947,-0.7136,0.0887,0.0137,0.001,0.003,-0.002
2025-11-06 18:34:09.369,53.155,-0.065,-0.08,-0.03,-0.10300000000000001,-0.997,0.035,69.10000000000001,-15.870000000000001,-67.99,0.6948000000000001,-0.7135,0.0888,0.013900000000000001,0.0,0.003,-0.001
2025-11-06 18:34:09.369,53.16,-0.068,-0.061,-0.027,-0.10200000000000001,-0.998,0.031,69.10000000000001,-15.870000000000001,-67.99,0.6949000000000001,-0.7133,0.0888,0.014100000000000001,0.0,0.004,0.001
2025-11-06 18:34:09.369,53.165,-0.068,-0.045,-0.026000000000000002,-0.10200000000000001,-0.994,0.029,69.10000000000001,-15.870000000000001,-67.99,0.6952,-0.7131000000000001,0.0888,0.0143,0.0,0.0,0.003
2025-11-06 18:34:09.369,53.17,-0.067,-0.044,-0.025,-0.10300000000000001,-0.995,0.028,68.89,-15.280000000000001,-69.21000000000001,0.6954,-0.7129000000000001,0.0888,0.014400000000000001,0.0,0.001,0.004
2025-11-06 18:34:09.369,53.175,-0.066,-0.034,-0.02,-0.10400000000000001,-0.998,0.025,68.89,-15.280000000000001,-69.21000000000001,0.6957,-0.7125,0.0888,0.0145,0.001,0.004,0.006
2025-11-06 18:34:09.369,53.18,-0.062,-0.033,-0.018000000000000002,-0.10300000000000001,-0.987,0.021,69.21000000000001,-15.780000000000001,-68.78,0.6961,-0.7122,0.0888,0.0145,0.0,-0.006,0.008
2025-11-06 18:34:09.369,53.185,-0.053,-0.038,-0.016,-0.107,-0.995,0.022,69.21000000000001,-15.780000000000001,-68.78,0.6965,-0.7118,0.0889,0.0145,0.003,0.001,0.007
2025-11-06 18:34:09.369,53.19,-0.05,-0.037,-0.013000000000000001,-0.106,-0.992,0.02,68.81,-15.69,-68.75,0.6968000000000001,-0.7115,0.08900000000000001,0.0145,0.003,-0.001,0.007
2025-11-06 18:34:09.369,53.195,-0.049,-0.04,-0.012,-0.107,-0.988,0.019,68.81,-15.69,-68.75,0.6971,-0.7111000000000001,0.0892,0.014400000000000001,0.004,-0.005,0.007
2025-11-06 18:34:09.369,53.2,-0.046,-0.047,-0.009000000000000001,-0.108,-0.993,0.023,68.81,-15.69,-68.75,0.6973,-0.7109000000000001,0.08940000000000001,0.014400000000000001,0.004,0.0,0.003
2025-11-06 18:34:09.369,53.205,-0.041,-0.057,-0.01,-0.109,-0.99,0.031,69.07000000000001,-15.69,-69.04,0.6973,-0.7109000000000001,0.0897,0.0143,0.004,-0.003,-0.004
2025-11-06 18:34:09.369,53.21,-0.039,-0.07,-0.013000000000000001,-0.108,-0.99,0.038,69.07000000000001,-15.69,-69.04,0.6969000000000001,-0.7112,0.09000000000000001,0.014400000000000001,0.003,-0.003,-0.01
2025-11-06 18:34:09.369,53.215,-0.041,-0.07200000000000001,-0.013000000000000001,-0.109,-0.991,0.039,68.86,-16.19,-68.72,0.6966,-0.7115,0.0903,0.0145,0.003,-0.002,-0.01
2025-11-06 18:34:09.369,53.22,-0.047,-0.077,-0.013000000000000001,-0.109,-0.99,0.037,68.86,-16.19,-68.72,0.6964,-0.7116,0.0906,0.0145,0.003,-0.003,-0.008
2025-11-06 18:34:09.369,53.225,-0.051000000000000004,-0.073,-0.015,-0.11,-0.991,0.034,68.86,-16.19,-68.72,0.6963,-0.7117,0.09090000000000001,0.0146,0.004,-0.002,-0.004
2025-11-06 18:34:09.369,53.23,-0.055,-0.08,-0.018000000000000002,-0.108,-0.991,0.032,69.33,-15.52,-68.95,0.6963,-0.7117,0.0912,0.014700000000000001,0.002,-0.002,-0.002
2025-11-06 18:34:09.369,53.235,-0.056,-0.081,-0.02,-0.11,-0.988,0.029,69.33,-15.52,-68.95,0.6964,-0.7115,0.09140000000000001,0.014700000000000001,0.004,-0.005,0.0
2025-11-06 18:34:09.369,53.24,-0.053,-0.085,-0.021,-0.107,-0.987,0.029,68.98,-16.07,-68.98,0.6965,-0.7115,0.0916,0.0148,0.001,-0.005,0.0
2025-11-06 18:34:09.370,53.245,-0.055,-0.08600000000000001,-0.026000000000000002,-0.10400000000000001,-0.987,0.034,68.98,-16.07,-68.98,0.6964,-0.7115,0.0917,0.0151,-0.001,-0.006,-0.004
2025-11-06 18:34:09.370,53.25,-0.054,-0.091,-0.029,-0.10200000000000001,-0.988,0.037,68.95,-15.63,-68.4,0.6962,-0.7117,0.0918,0.0154,-0.003,-0.005,-0.007
2025-11-06 18:34:09.370,53.255,-0.06,-0.082,-0.031,-0.098,-0.993,0.039,68.95,-15.63,-68.4,0.6960000000000001,-0.7119000000000001,0.0917,0.0159,-0.006,0.0,-0.008
2025-11-06 18:34:09.370,53.26,-0.068,-0.08,-0.033,-0.096,-0.994,0.039,68.95,-15.63,-68.4,0.6958000000000001,-0.7121000000000001,0.0916,0.0164,-0.008,0.0,-0.008
2025-11-06 18:34:09.370,53.265,-0.075,-0.077,-0.037,-0.092,-0.996,0.043000000000000003,69.24,-15.66,-69.36,0.6955,-0.7124,0.09140000000000001,0.017,-0.011,0.002,-0.011
2025-11-06 18:34:09.370,53.27,-0.079,-0.073,-0.041,-0.092,-0.999,0.045,69.24,-15.66,-69.36,0.6952,-0.7127,0.0913,0.0177,-0.009000000000000001,0.005,-0.013000000000000001
2025-11-06 18:34:09.370,53.275,-0.096,-0.067,-0.04,-0.088,-1.002,0.044,70.03,-15.72,-69.19,0.6950000000000001,-0.7129000000000001,0.091,0.0183,-0.011,0.008,-0.011
2025-11-06 18:34:09.370,53.28,-0.10400000000000001,-0.057,-0.037,-0.088,-1.004,0.039,70.03,-15.72,-69.19,0.6949000000000001,-0.7130000000000001,0.0907,0.0189,-0.01,0.01,-0.006
2025-11-06 18:34:09.370,53.285,-0.11,-0.044,-0.033,-0.088,-1.0050000000000001,0.034,69.13,-15.49,-69.21000000000001,0.6950000000000001,-0.7129000000000001,0.09050000000000001,0.0195,-0.009000000000000001,0.011,-0.001
2025-11-06 18:34:09.370,53.29,-0.115,-0.039,-0.031,-0.089,-1.004,0.032,69.13,-15.49,-69.21000000000001,0.6952,-0.7127,0.0902,0.02,-0.007,0.009000000000000001,0.0
2025-11-06 18:34:09.370,53.295,-0.113,-0.033,-0.027,-0.093,-1.0030000000000001,0.03,69.13,-15.49,-69.21000000000001,0.6955,-0.7125,0.0901,0.020300000000000002,-0.003,0.008,0.001
2025-11-06 18:34:09.370,53.3,-0.113,-0.025,-0.026000000000000002,-0.099,-1.004,0.024,69.3,-15.43,-69.62,0.6959000000000001,-0.7121000000000001,0.0902,0.020300000000000002,0.003,0.009000000000000001,0.006
2025-11-06 18:34:09.370,53.305,-0.116,-0.015,-0.025,-0.10400000000000001,-1.004,0.022,69.3,-15.43,-69.62,0.6963,-0.7116,0.0903,0.020200000000000003,0.007,0.009000000000000001,0.007
2025-11-06 18:34:09.370,53.31,-0.11800000000000001,-0.007,-0.025,-0.109,-1.0030000000000001,0.018000000000000002,69.01,-15.69,-69.42,0.6969000000000001,-0.7111000000000001,0.0906,0.0199,0.012,0.008,0.009000000000000001
2025-11-06 18:34:09.370,53.315,-0.12,0.0,-0.023,-0.114,-0.999,0.011,69.01,-15.69,-69.42,0.6976,-0.7103,0.09090000000000001,0.0195,0.016,0.005,0.014
2025-11-06 18:34:09.370,53.32,-0.117,-0.005,-0.027,-0.116,-0.996,0.007,69.01,-15.69,-69.42,0.6984,-0.7095,0.0913,0.019,0.016,0.001,0.016
2025-11-06 18:34:09.370,53.325,-0.117,-0.014,-0.029,-0.11900000000000001,-0.993,0.006,69.19,-15.75,-69.68,0.6991,-0.7088,0.0918,0.018500000000000003,0.017,-0.001,0.015
2025-11-06 18:34:09.370,53.33,-0.115,-0.026000000000000002,-0.031,-0.11900000000000001,-0.988,0.005,69.19,-15.75,-69.68,0.6998000000000001,-0.7080000000000001,0.0922,0.0181,0.015,-0.005,0.014
2025-11-06 18:34:09.370,53.335,-0.116,-0.029,-0.034,-0.12,-0.986,0.005,70.68,-15.9,-69.71000000000001,0.7004,-0.7073,0.0927,0.0177,0.016,-0.008,0.013000000000000001
2025-11-06 18:34:09.370,53.34,-0.115,-0.04,-0.04,-0.12,-0.988,0.011,70.68,-15.9,-69.71000000000001,0.7008,-0.7069000000000001,0.0932,0.017400000000000002,0.014,-0.005,0.005
2025-11-06 18:34:09.370,53.345,-0.114,-0.047,-0.043000000000000003,-0.116,-0.988,0.017,69.13,-15.6,-69.86,0.7010000000000001,-0.7067,0.0936,0.0173,0.009000000000000001,-0.005,0.0
2025-11-06 18:34:09.370,53.35,-0.116,-0.052000000000000005,-0.047,-0.114,-0.995,0.023,69.13,-15.6,-69.86,0.7010000000000001,-0.7067,0.09390000000000001,0.0173,0.007,0.001,-0.007
2025-11-06 18:34:09.370,53.355,-0.11900000000000001,-0.058,-0.051000000000000004,-0.109,-1.0,0.029,69.13,-15.6,-69.86,0.7007,-0.7069000000000001,0.0941,0.0175,0.002,0.006,-0.012
2025-11-06 18:34:09.370,53.36,-0.122,-0.059000000000000004,-0.051000000000000004,-0.11,-1.004,0.035,69.33,-15.9,-69.13,0.7004,-0.7072,0.0944,0.0178,0.003,0.01,-0.017
2025-11-06 18:34:09.370,53.365,-0.123,-0.061,-0.048,-0.114,-1.004,0.036000000000000004,69.33,-15.9,-69.13,0.7000000000000001,-0.7075,0.0947,0.0179,0.006,0.01,-0.017
2025-11-06 18:34:09.370,53.37,-0.125,-0.057,-0.045,-0.117,-0.998,0.031,69.01,-15.200000000000001,-68.98,0.6998000000000001,-0.7076,0.0952,0.0179,0.009000000000000001,0.004,-0.012
2025-11-06 18:34:09.370,53.375,-0.126,-0.038,-0.04,-0.11900000000000001,-0.99,0.022,69.01,-15.200000000000001,-68.98,0.6999000000000001,-0.7074,0.0955,0.0177,0.01,-0.002,-0.003
2025-11-06 18:34:09.370,53.38,-0.128,-0.029,-0.035,-0.121,-0.988,0.01,69.01,-15.200000000000001,-68.98,0.7004,-0.7070000000000001,0.09580000000000001,0.0173,0.011,-0.005,0.007
2025-11-06 18:34:09.370,53.385,-0.125,-0.022,-0.035,-0.117,-0.989,0.001,69.36,-15.46,-69.3,0.7012,-0.7062,0.09580000000000001,0.0171,0.007,-0.004,0.015
2025-11-06 18:34:09.370,53.39,-0.123,-0.009000000000000001,-0.037,-0.115,-0.992,-0.006,69.36,-15.46,-69.3,0.7021000000000001,-0.7054,0.09570000000000001,0.016900000000000002,0.005,-0.001,0.02
2025-11-06 18:34:09.370,53.395,-0.123,-0.003,-0.04,-0.11800000000000001,-0.992,-0.009000000000000001,68.95,-14.9,-69.10000000000001,0.7030000000000001,-0.7045,0.0956,0.0166,0.007,-0.001,0.02
2025-11-06 18:34:09.370,53.4,-0.121,0.004,-0.04,-0.123,-0.98,-0.013000000000000001,68.95,-14.9,-69.10000000000001,0.7039000000000001,-0.7035,0.09570000000000001,0.0161,0.011,-0.013000000000000001,0.022
2025-11-06 18:34:09.370,53.405,-0.11900000000000001,0.012,-0.041,-0.121,-0.972,-0.021,69.01,-15.05,-69.89,0.7051000000000001,-0.7024,0.09570000000000001,0.015700000000000002,0.008,-0.021,0.027
2025-11-06 18:34:09.370,53.41,-0.12,0.017,-0.049,-0.116,-0.977,-0.031,69.01,-15.05,-69.89,0.7064,-0.7011000000000001,0.09530000000000001,0.015300000000000001,0.003,-0.015,0.034
2025-11-06 18:34:09.370,53.415,-0.123,0.008,-0.053,-0.10400000000000001,-0.983,-0.037,69.01,-15.05,-69.89,0.7078,-0.6998000000000001,0.0944,0.015300000000000001,-0.007,-0.01,0.035
2025-11-06 18:34:09.370,53.42,-0.129,0.002,-0.056,-0.097,-0.988,-0.038,69.74,-15.370000000000001,-70.15,0.7092,-0.6986,0.09330000000000001,0.0155,-0.014,-0.005,0.032
2025-11-06 18:34:09.370,53.425,-0.137,-0.001,-0.061,-0.091,-0.994,-0.032,69.74,-15.370000000000001,-70.15,0.7102,-0.6977,0.0921,0.0159,-0.017,0.0,0.023
2025-11-06 18:34:09.370,53.43,-0.154,0.012,-0.064,-0.084,-1.0010000000000001,-0.016,68.66,-15.17,-70.21000000000001,0.7106,-0.6974,0.09090000000000001,0.0164,-0.022,0.007,0.005
2025-11-06 18:34:09.370,53.435,-0.17400000000000002,0.035,-0.065,-0.08,-1.008,0.0,68.66,-15.17,-70.21000000000001,0.7106,-0.6976,0.0896,0.017,-0.024,0.014,-0.01
2025-11-06 18:34:09.370,53.44,-0.193,0.069,-0.065,-0.088,-1.0090000000000001,0.01,68.66,-15.17,-70.21000000000001,0.7102,-0.6980000000000001,0.0888,0.017400000000000002,-0.013000000000000001,0.015,-0.02
2025-11-06 18:34:09.370,53.445,-0.20700000000000002,0.1,-0.061,-0.098,-1.0110000000000001,0.017,69.51,-15.200000000000001,-70.47,0.7098,-0.6985,0.08850000000000001,0.017400000000000002,-0.002,0.016,-0.025
2025-11-06 18:34:09.370,53.45,-0.223,0.134,-0.062,-0.10200000000000001,-1.0190000000000001,0.02,69.51,-15.200000000000001,-70.47,0.7093,-0.6991,0.0882,0.017400000000000002,0.001,0.024,-0.028
2025-11-06 18:34:09.371,53.455,-0.251,0.167,-0.059000000000000004,-0.10200000000000001,-1.036,0.013000000000000001,69.57000000000001,-14.46,-69.10000000000001,0.7091000000000001,-0.6993,0.0878,0.0173,0.002,0.041,-0.019
2025-11-06 18:34:09.371,53.46,-0.27,0.18,-0.057,-0.097,-1.049,0.004,69.57000000000001,-14.46,-69.10000000000001,0.7093,-0.6992,0.08710000000000001,0.0173,-0.002,0.054,-0.011
2025-11-06 18:34:09.371,53.465,-0.289,0.187,-0.054,-0.095,-1.047,-0.01,69.62,-14.73,-68.89,0.7099000000000001,-0.6987,0.0864,0.017400000000000002,-0.002,0.052000000000000005,0.002
2025-11-06 18:34:09.371,53.47,-0.302,0.196,-0.048,-0.093,-1.043,-0.036000000000000004,69.62,-14.73,-68.89,0.7112,-0.6974,0.08560000000000001,0.0175,-0.003,0.048,0.025
2025-11-06 18:34:09.371,53.475,-0.333,0.20500000000000002,-0.049,-0.061,-1.073,-0.078,69.62,-14.73,-68.89,0.7136,-0.6952,0.08360000000000001,0.018500000000000003,-0.033,0.077,0.06
2025-11-06 18:34:09.371,53.48,-0.359,0.20800000000000002,-0.041,-0.057,-1.08,-0.092,69.33,-15.11,-69.04,0.7162000000000001,-0.6927,0.08170000000000001,0.0195,-0.033,0.084,0.068
2025-11-06 18:34:09.371,53.485,-0.369,0.218,-0.033,-0.062,-1.08,-0.099,69.33,-15.11,-69.04,0.7187,-0.6902,0.08,0.0204,-0.025,0.084,0.066
2025-11-06 18:34:09.371,53.49,-0.383,0.247,-0.027,-0.07200000000000001,-1.065,-0.108,69.68,-15.58,-68.98,0.7214,-0.6876,0.079,0.021,-0.012,0.069,0.068
2025-11-06 18:34:09.371,53.495,-0.39,0.29,-0.024,-0.082,-1.047,-0.114,69.68,-15.58,-68.98,0.7240000000000001,-0.6849000000000001,0.0784,0.0213,-0.002,0.052000000000000005,0.066
2025-11-06 18:34:09.371,53.5,-0.396,0.357,-0.025,-0.09,-1.041,-0.112,69.68,-15.58,-68.98,0.7264,-0.6823,0.0782,0.021400000000000002,0.006,0.046,0.057
2025-11-06 18:34:09.371,53.505,-0.396,0.383,-0.026000000000000002,-0.097,-1.038,-0.105,69.62,-15.25,-70.12,0.7284,-0.6802,0.0781,0.0212,0.012,0.044,0.044
2025-11-06 18:34:09.371,53.51,-0.4,0.419,-0.025,-0.108,-1.039,-0.097,69.62,-15.25,-70.12,0.7301000000000001,-0.6784,0.0784,0.020800000000000003,0.022,0.044,0.031
2025-11-06 18:34:09.371,53.515,-0.421,0.442,-0.031,-0.1,-1.052,-0.091,69.54,-15.14,-69.74,0.7314,-0.6771,0.0781,0.020300000000000002,0.013000000000000001,0.059000000000000004,0.021
2025-11-06 18:34:09.371,53.52,-0.453,0.463,-0.03,-0.1,-1.073,-0.081,69.54,-15.14,-69.74,0.7323000000000001,-0.6761,0.0775,0.0196,0.013000000000000001,0.079,0.008
2025-11-06 18:34:09.371,53.525,-0.485,0.47400000000000003,-0.027,-0.101,-1.068,-0.07200000000000001,69.48,-14.93,-70.38,0.733,-0.6755,0.077,0.0189,0.014,0.075,-0.002
2025-11-06 18:34:09.371,53.53,-0.488,0.488,-0.018000000000000002,-0.115,-1.049,-0.068,69.48,-14.93,-70.38,0.7335,-0.6749,0.0772,0.018000000000000002,0.026000000000000002,0.056,-0.008
2025-11-06 18:34:09.371,53.535,-0.498,0.502,-0.012,-0.112,-1.054,-0.076,69.48,-14.93,-70.38,0.7343000000000001,-0.6741,0.0772,0.0171,0.022,0.061,-0.001
2025-11-06 18:34:09.371,53.54,-0.507,0.516,0.002,-0.116,-1.039,-0.089,69.16,-14.67,-70.94,0.7354,-0.6729,0.07730000000000001,0.0162,0.025,0.046,0.008
2025-11-06 18:34:09.371,53.545,-0.512,0.547,0.016,-0.099,-1.041,-0.107,69.16,-14.67,-70.94,0.7369,-0.6714,0.07640000000000001,0.015300000000000001,0.007,0.049,0.022
2025-11-06 18:34:09.371,53.55,-0.512,0.559,0.022,-0.098,-1.042,-0.116,69.33,-14.700000000000001,-70.38,0.7385,-0.6698000000000001,0.07540000000000001,0.014400000000000001,0.006,0.05,0.026000000000000002
2025-11-06 18:34:09.371,53.555,-0.498,0.582,0.033,-0.129,-0.989,-0.122,69.33,-14.700000000000001,-70.38,0.7403000000000001,-0.6677000000000001,0.0763,0.0132,0.035,-0.002,0.027
2025-11-06 18:34:09.371,53.56,-0.458,0.636,0.039,-0.139,-0.994,-0.137,69.33,-14.700000000000001,-70.38,0.7422000000000001,-0.6655,0.0771,0.0117,0.041,0.004,0.036000000000000004
2025-11-06 18:34:09.371,53.565,-0.497,0.659,0.023,-0.138,-1.037,-0.145,69.51,-15.17,-70.03,0.7442000000000001,-0.6633,0.07740000000000001,0.0103,0.037,0.048,0.038
2025-11-06 18:34:09.371,53.57,-0.54,0.676,0.012,-0.122,-1.059,-0.14300000000000002,69.51,-15.17,-70.03,0.7459,-0.6615,0.0766,0.0091,0.019,0.07,0.031
2025-11-06 18:34:09.371,53.575,-0.5670000000000001,0.668,-0.004,-0.12,-1.087,-0.136,69.59,-15.08,-69.89,0.7472000000000001,-0.6602,0.0757,0.008,0.018000000000000002,0.099,0.02
2025-11-06 18:34:09.371,53.58,-0.583,0.666,-0.013000000000000001,-0.135,-1.11,-0.111,69.59,-15.08,-69.89,0.7477,-0.6596000000000001,0.0756,0.0071,0.032,0.123,-0.006
2025-11-06 18:34:09.371,53.585,-0.585,0.684,-0.018000000000000002,-0.152,-1.099,-0.099,69.74,-15.72,-69.71000000000001,0.7478,-0.6593,0.07640000000000001,0.0061,0.046,0.112,-0.019
2025-11-06 18:34:09.371,53.59,-0.5750000000000001,0.751,0.005,-0.184,-1.093,-0.076,69.74,-15.72,-69.71000000000001,0.7474000000000001,-0.6596000000000001,0.0786,0.0049,0.075,0.107,-0.041
2025-11-06 18:34:09.371,53.595,-0.5680000000000001,0.809,0.028,-0.192,-1.049,-0.059000000000000004,69.74,-15.72,-69.71000000000001,0.7467,-0.6601,0.0813,0.0035,0.077,0.062,-0.055
2025-11-06 18:34:09.371,53.6,-0.558,0.858,0.048,-0.194,-1.025,-0.039,70.06,-14.52,-70.97,0.7454000000000001,-0.6611,0.08420000000000001,0.0021000000000000003,0.073,0.038,-0.07200000000000001
2025-11-06 18:34:09.371,53.605,-0.554,0.88,0.07200000000000001,-0.17200000000000001,-0.982,-0.027,70.06,-14.52,-70.97,0.744,-0.6624,0.0864,0.0012000000000000001,0.046,-0.003,-0.081
2025-11-06 18:34:09.371,53.61,-0.543,0.856,0.08600000000000001,-0.14200000000000002,-0.971,-0.008,69.83,-14.9,-70.35000000000001,0.7421,-0.6644,0.08800000000000001,0.0016,0.014,-0.015,-0.094
2025-11-06 18:34:09.371,53.615,-0.524,0.8310000000000001,0.1,-0.124,-0.9570000000000001,-0.01,69.83,-14.9,-70.35000000000001,0.7404000000000001,-0.6661,0.0889,0.0023,-0.004,-0.029,-0.08700000000000001
2025-11-06 18:34:09.371,53.62,-0.485,0.8200000000000001,0.107,-0.095,-0.9520000000000001,-0.009000000000000001,69.83,-14.9,-69.86,0.7388,-0.6679,0.08900000000000001,0.004,-0.031,-0.035,-0.083
2025-11-06 18:34:09.371,53.625,-0.437,0.836,0.125,-0.091,-0.9490000000000001,-0.011,71.55,-14.73,-69.86,0.7373000000000001,-0.6696000000000001,0.0889,0.0055000000000000005,-0.033,-0.038,-0.077
2025-11-06 18:34:09.371,53.63,-0.399,0.856,0.14300000000000002,-0.085,-0.9590000000000001,-0.024,71.55,-14.73,-69.86,0.7363000000000001,-0.6708000000000001,0.0882,0.0066,-0.035,-0.029,-0.06
2025-11-06 18:34:09.371,53.635,-0.363,0.908,0.17200000000000001,-0.08700000000000001,-1.004,-0.033,69.97,-14.700000000000001,-69.57000000000001,0.7355,-0.6717000000000001,0.0873,0.0074,-0.031,0.015,-0.049
2025-11-06 18:34:09.371,53.64,-0.336,0.899,0.209,-0.122,-1.111,-0.002,69.97,-14.700000000000001,-69.57000000000001,0.7339,-0.6736000000000001,0.0868,0.0068000000000000005,0.004,0.121,-0.075
2025-11-06 18:34:09.373,53.645,-0.318,0.905,0.265,-0.138,-1.0030000000000001,0.0,70.09,-14.49,-70.35000000000001,0.7323000000000001,-0.6753,0.08650000000000001,0.0043,0.018000000000000002,0.013000000000000001,-0.073
2025-11-06 18:34:09.373,53.65,-0.273,0.93,0.314,-0.115,-0.837,-0.006,70.09,-14.49,-70.35000000000001,0.731,-0.6768000000000001,0.08610000000000001,0.0018000000000000002,-0.007,-0.152,-0.063
2025-11-06 18:34:09.373,53.655,-0.209,0.976,0.34500000000000003,-0.078,-0.657,-0.065,70.09,-14.49,-70.35000000000001,0.7324,-0.6755,0.0845,-0.0002,-0.046,-0.331,-0.006
2025-11-06 18:34:09.373,53.66,-0.14,0.999,0.34900000000000003,-0.064,-0.626,-0.106,70.12,-15.43,-69.27,0.7356,-0.6723,0.0819,-0.0021000000000000003,-0.058,-0.362,0.026000000000000002
2025-11-06 18:34:09.373,53.665,-0.08600000000000001,0.987,0.364,-0.074,-0.6920000000000001,-0.121,70.12,-15.43,-69.27,0.7386,-0.6693,0.0794,-0.0043,-0.049,-0.295,0.031
2025-11-06 18:34:09.373,53.67,-0.052000000000000005,0.9400000000000001,0.359,-0.074,-0.758,-0.076,70.71000000000001,-15.200000000000001,-69.59,0.7391000000000001,-0.669,0.07780000000000001,-0.005200000000000001,-0.048,-0.229,-0.015
2025-11-06 18:34:09.373,53.675,0.018000000000000002,0.895,0.34700000000000003,-0.02,-0.6970000000000001,-0.032,70.71000000000001,-15.200000000000001,-69.59,0.7378,-0.6706000000000001,0.07540000000000001,-0.0028,-0.096,-0.291,-0.058
2025-11-06 18:34:09.373,53.68,0.15,0.872,0.322,0.043000000000000003,-0.638,0.006,70.33,-15.14,-69.59,0.7349,-0.6743,0.0716,0.0033,-0.147,-0.352,-0.089
2025-11-06 18:34:09.373,53.685,0.22,0.887,0.28500000000000003,0.07,-0.671,0.019,70.33,-15.14,-69.59,0.7315,-0.6784,0.0668,0.010100000000000001,-0.158,-0.321,-0.092
2025-11-06 18:34:09.373,53.69,0.262,0.905,0.245,0.093,-0.6970000000000001,0.021,70.33,-15.14,-69.59,0.7282000000000001,-0.6823,0.0618,0.0175,-0.164,-0.297,-0.085
2025-11-06 18:34:09.373,53.695,0.31,0.929,0.20600000000000002,0.114,-0.6940000000000001,0.019,69.89,-15.17,-68.75,0.7250000000000001,-0.6858000000000001,0.0565,0.0256,-0.166,-0.302,-0.074
2025-11-06 18:34:09.373,53.7,0.377,0.925,0.137,0.126,-0.793,0.017,69.89,-15.17,-68.75,0.7221000000000001,-0.6890000000000001,0.0516,0.0327,-0.16,-0.20500000000000002,-0.064
2025-11-06 18:34:09.373,53.705,0.399,0.902,0.116,0.113,-0.854,0.009000000000000001,70.82000000000001,-14.99,-67.93,0.7197,-0.6915,0.0475,0.038,-0.131,-0.14400000000000002,-0.049
2025-11-06 18:34:09.373,53.71,0.403,0.894,0.10400000000000001,0.088,-0.891,0.013000000000000001,70.82000000000001,-14.99,-67.93,0.7173,-0.6941,0.043300000000000005,0.0403,-0.096,-0.107,-0.047
2025-11-06 18:34:09.373,53.715,0.431,0.899,0.08600000000000001,0.088,-0.919,0.025,70.82000000000001,-14.99,-67.93,0.7148,-0.6970000000000001,0.0385,0.0412,-0.088,-0.08,-0.052000000000000005
2025-11-06 18:34:09.373,53.72,0.482,0.922,0.06,0.101,-0.9380000000000001,0.031,69.97,-15.14,-67.72,0.7121000000000001,-0.6998000000000001,0.034,0.0426,-0.092,-0.06,-0.051000000000000004
2025-11-06 18:34:09.373,53.725,0.521,0.917,0.03,0.139,-0.9580000000000001,0.022,69.97,-15.14,-67.72,0.7098,-0.7020000000000001,0.0307,0.0473,-0.11900000000000001,-0.041,-0.036000000000000004
2025-11-06 18:34:09.373,53.73,0.518,0.875,0.007,0.17200000000000001,-0.971,0.009000000000000001,71.29,-15.14,-67.34,0.7080000000000001,-0.7034,0.0287,0.054900000000000004,-0.139,-0.027,-0.019
2025-11-06 18:34:09.373,53.735,0.47300000000000003,0.812,-0.018000000000000002,0.212,-1.029,-0.009000000000000001,71.29,-15.14,-67.34,0.7067,-0.7039000000000001,0.0281,0.06470000000000001,-0.164,0.03,0.001
2025-11-06 18:34:09.373,53.74,0.405,0.742,-0.013000000000000001,0.213,-1.0170000000000001,-0.033,70.09,-15.55,-67.05,0.7061000000000001,-0.7033,0.028900000000000002,0.0755,-0.151,0.019,0.024
2025-11-06 18:34:09.373,53.745,0.392,0.6930000000000001,0.001,0.20700000000000002,-1.022,-0.046,70.09,-15.55,-67.05,0.7059000000000001,-0.7024,0.030100000000000002,0.0853,-0.132,0.025,0.035
2025-11-06 18:34:09.373,53.75,0.397,0.669,0.013000000000000001,0.191,-1.037,-0.054,70.09,-15.55,-67.05,0.7058,-0.7014,0.0316,0.0935,-0.106,0.04,0.041
2025-11-06 18:34:09.374,53.755,0.392,0.642,0.005,0.186,-1.065,-0.067,70.12,-15.22,-67.02,0.7059000000000001,-0.7002,0.0335,0.10110000000000001,-0.094,0.069,0.05
2025-11-06 18:34:09.374,53.76,0.352,0.583,-0.01,0.179,-1.103,-0.068,70.12,-15.22,-67.02,0.7060000000000001,-0.6990000000000001,0.0351,0.1071,-0.08,0.108,0.049
2025-11-06 18:34:09.374,53.765,0.275,0.491,-0.025,0.17400000000000002,-1.129,-0.088,70.33,-15.05,-66.73,0.7066,-0.6973,0.0378,0.1136,-0.07,0.135,0.064
2025-11-06 18:34:09.374,53.77,0.192,0.312,-0.014,0.14300000000000002,-1.145,-0.108,70.33,-15.05,-66.73,0.7077,-0.6949000000000001,0.0422,0.1198,-0.037,0.151,0.079
2025-11-06 18:34:09.374,53.775,0.167,0.212,0.0,0.14300000000000002,-1.1260000000000001,-0.111,70.33,-15.05,-66.73,0.7088,-0.6925,0.0461,0.1255,-0.035,0.132,0.076
2025-11-06 18:34:09.374,53.78,0.184,0.134,0.02,0.127,-1.115,-0.106,70.5,-15.58,-66.35,0.7097,-0.6905,0.0499,0.13,-0.018000000000000002,0.122,0.066
2025-11-06 18:34:09.374,53.785,0.201,0.073,0.044,0.127,-1.1,-0.114,70.5,-15.58,-66.35,0.7107,-0.6883,0.0536,0.13440000000000002,-0.018000000000000002,0.107,0.069
2025-11-06 18:34:09.374,53.79,0.214,-0.005,0.094,0.094,-1.104,-0.128,69.83,-15.08,-66.23,0.7119000000000001,-0.6858000000000001,0.058800000000000005,0.1385,0.012,0.111,0.077
2025-11-06 18:34:09.374,53.795,0.215,-0.091,0.129,0.065,-1.08,-0.132,69.83,-15.08,-66.23,0.7132000000000001,-0.6832,0.065,0.14200000000000002,0.037,0.08700000000000001,0.076
2025-11-06 18:34:09.374,53.8,0.209,-0.167,0.165,0.041,-1.063,-0.13,70.3,-15.31,-66.53,0.7145,-0.6806,0.0714,0.1447,0.054,0.07,0.068
2025-11-06 18:34:09.374,53.805,0.20400000000000001,-0.23,0.189,0.038,-1.031,-0.11800000000000001,70.3,-15.31,-66.53,0.7155,-0.6785,0.07690000000000001,0.1466,0.051000000000000004,0.037,0.052000000000000005
2025-11-06 18:34:09.374,53.81,0.197,-0.296,0.228,0.009000000000000001,-0.998,-0.091,70.3,-15.31,-66.53,0.7160000000000001,-0.6773,0.0826,0.1468,0.073,0.004,0.023
2025-11-06 18:34:09.374,53.815,0.212,-0.322,0.271,-0.009000000000000001,-0.879,-0.076,70.79,-15.69,-66.55,0.7165,-0.6762,0.0884,0.1464,0.082,-0.115,0.007
2025-11-06 18:34:09.374,53.82,0.242,-0.34800000000000003,0.307,-0.006,-0.898,-0.073,70.79,-15.69,-66.55,0.7166,-0.6755,0.0935,0.1458,0.07100000000000001,-0.097,0.003
2025-11-06 18:34:09.374,53.825,0.267,-0.393,0.33,-0.059000000000000004,-0.9550000000000001,-0.041,70.27,-15.96,-65.5,0.7160000000000001,-0.6758000000000001,0.0999,0.1431,0.113,-0.04,-0.026000000000000002
2025-11-06 18:34:09.374,53.83,0.312,-0.4,0.329,-0.076,-0.963,0.012,70.27,-15.96,-65.5,0.7140000000000001,-0.678,0.1053,0.1386,0.117,-0.033,-0.073
2025-11-06 18:34:09.374,53.835,0.398,-0.31,0.292,-0.096,-0.9410000000000001,0.053,70.27,-15.96,-65.5,0.7110000000000001,-0.6815,0.11030000000000001,0.1328,0.123,-0.056,-0.10300000000000001
2025-11-06 18:34:09.374,53.84,0.385,-0.256,0.253,-0.113,-0.961,0.049,70.24,-15.870000000000001,-65.97,0.7085,-0.6844,0.11520000000000001,0.12710000000000002,0.128,-0.037,-0.088
2025-11-06 18:34:09.374,53.845,0.33,-0.21,0.225,-0.129,-0.984,0.033,70.24,-15.870000000000001,-65.97,0.7067,-0.6864,0.12000000000000001,0.1217,0.13,-0.014,-0.064
2025-11-06 18:34:09.374,53.85,0.28400000000000003,-0.193,0.196,-0.129,-1.0210000000000001,0.015,69.89,-16.01,-65.79,0.7057,-0.6875,0.1242,0.11720000000000001,0.11800000000000001,0.021,-0.04
2025-11-06 18:34:09.374,53.855,0.26,-0.189,0.151,-0.137,-1.062,-0.002,69.89,-16.01,-65.79,0.7053,-0.6879000000000001,0.1279,0.1131,0.114,0.062,-0.018000000000000002
2025-11-06 18:34:09.374,53.86,0.23,-0.17200000000000001,0.098,-0.154,-1.096,-0.027,70.06,-16.25,-66.17,0.7057,-0.6876,0.13090000000000002,0.10880000000000001,0.121,0.097,0.007
2025-11-06 18:34:09.374,53.865,0.183,-0.14200000000000002,0.065,-0.152,-1.157,-0.05,70.06,-16.25,-66.17,0.7067,-0.6868000000000001,0.1331,0.1051,0.11,0.158,0.029
2025-11-06 18:34:09.374,53.87,0.124,-0.125,0.03,-0.146,-1.156,-0.077,70.06,-16.25,-66.17,0.7084,-0.6853,0.1343,0.10160000000000001,0.097,0.158,0.053
2025-11-06 18:34:09.374,53.875,0.079,-0.075,-0.01,-0.14,-1.1380000000000001,-0.1,69.33,-15.96,-65.74,0.7108,-0.6833,0.1346,0.0981,0.085,0.139,0.07200000000000001
2025-11-06 18:34:09.374,53.88,-0.035,0.009000000000000001,-0.024,-0.162,-1.174,-0.124,69.33,-15.96,-65.74,0.7137,-0.6808000000000001,0.1346,0.0942,0.1,0.176,0.089
2025-11-06 18:34:09.374,53.885,-0.098,0.043000000000000003,-0.024,-0.147,-1.1260000000000001,-0.129,69.07000000000001,-15.98,-66.38,0.7167,-0.6782,0.1342,0.0907,0.079,0.129,0.08700000000000001
2025-11-06 18:34:09.374,53.89,-0.107,0.064,-0.024,-0.147,-1.076,-0.121,69.07000000000001,-15.98,-66.38,0.7193,-0.6758000000000001,0.1342,0.0874,0.074,0.08,0.07200000000000001
2025-11-06 18:34:09.374,53.895,-0.099,0.096,-0.018000000000000002,-0.153,-1.047,-0.115,69.07000000000001,-15.98,-66.38,0.7217,-0.6736000000000001,0.13470000000000001,0.0843,0.074,0.052000000000000005,0.061
2025-11-06 18:34:09.374,53.9,-0.094,0.08700000000000001,-0.001,-0.156,-1.0070000000000001,-0.109,69.33,-15.49,-66.41,0.7237,-0.6716000000000001,0.13570000000000002,0.0814,0.07100000000000001,0.013000000000000001,0.049
2025-11-06 18:34:09.374,53.905,-0.083,0.056,0.028,-0.17200000000000001,-0.964,-0.085,69.33,-15.49,-66.41,0.7249,-0.67,0.1384,0.0789,0.079,-0.029,0.022
2025-11-06 18:34:09.374,53.91,-0.07100000000000001,0.035,0.069,-0.17300000000000001,-1.0,-0.062,69.3,-15.9,-66.23,0.7251000000000001,-0.6693,0.14170000000000002,0.0775,0.073,0.007,0.0
2025-11-06 18:34:09.374,53.915,-0.10400000000000001,0.007,0.107,-0.17300000000000001,-0.9580000000000001,-0.058,69.3,-15.9,-66.23,0.7253000000000001,-0.6686000000000001,0.1451,0.076,0.066,-0.033,-0.004
2025-11-06 18:34:09.374,53.92,-0.113,0.003,0.149,-0.164,-0.9490000000000001,-0.057,69.42,-15.98,-66.06,0.7255,-0.6679,0.14800000000000002,0.0747,0.05,-0.041,-0.006
2025-11-06 18:34:09.374,53.925,-0.123,0.015,0.20600000000000002,-0.168,-0.9420000000000001,-0.07,69.42,-15.98,-66.06,0.7261000000000001,-0.6669,0.15030000000000002,0.0728,0.048,-0.048,0.005
2025-11-06 18:34:09.374,53.93,-0.113,0.031,0.23800000000000002,-0.179,-0.915,-0.08700000000000001,69.42,-15.98,-66.06,0.7274,-0.6653,0.1522,0.07,0.052000000000000005,-0.074,0.019
2025-11-06 18:34:09.374,53.935,-0.094,0.057,0.264,-0.193,-0.936,-0.10400000000000001,69.24,-15.9,-66.06,0.7292000000000001,-0.6634,0.1537,0.0665,0.059000000000000004,-0.052000000000000005,0.033
2025-11-06 18:34:09.374,53.94,-0.091,0.084,0.28700000000000003,-0.203,-0.9590000000000001,-0.114,69.24,-15.9,-66.06,0.731,-0.6615,0.1549,0.063,0.061,-0.027,0.038
2025-11-06 18:34:09.374,53.945,-0.07200000000000001,0.128,0.306,-0.214,-0.9550000000000001,-0.12,69.68,-16.92,-66.06,0.7328,-0.6594,0.1563,0.0592,0.065,-0.03,0.04
2025-11-06 18:34:09.374,53.95,-0.029,0.186,0.312,-0.227,-0.9420000000000001,-0.121,69.68,-16.92,-66.06,0.7345,-0.6574,0.15810000000000002,0.0553,0.07,-0.041,0.037
2025-11-06 18:34:09.374,53.955,0.012,0.224,0.306,-0.23700000000000002,-0.936,-0.12,69.68,-16.92,-66.06,0.736,-0.6556000000000001,0.16010000000000002,0.0516,0.07100000000000001,-0.045,0.032
2025-11-06 18:34:09.374,53.96,0.043000000000000003,0.231,0.29,-0.244,-0.921,-0.112,69.97,-16.45,-66.61,0.7371000000000001,-0.654,0.1628,0.0482,0.069,-0.058,0.021
2025-11-06 18:34:09.374,53.965,0.069,0.20500000000000002,0.264,-0.251,-0.911,-0.08,69.97,-16.45,-66.61,0.7368,-0.6533,0.16720000000000002,0.046400000000000004,0.067,-0.067,-0.01
2025-11-06 18:34:09.374,53.97,0.092,0.179,0.22,-0.257,-0.906,-0.038,69.01,-16.86,-66.26,0.7351000000000001,-0.6535000000000001,0.1736,0.0465,0.065,-0.07100000000000001,-0.047
2025-11-06 18:34:09.374,53.975,0.095,0.177,0.184,-0.266,-0.931,-0.01,69.01,-16.86,-66.26,0.7326,-0.6544,0.18080000000000002,0.0477,0.065,-0.045,-0.069
2025-11-06 18:34:09.374,53.98,0.078,0.193,0.151,-0.259,-0.9490000000000001,0.005,69.33,-16.89,-66.23,0.7297,-0.6556000000000001,0.18730000000000002,0.0494,0.052000000000000005,-0.026000000000000002,-0.077
2025-11-06 18:34:09.374,53.985,0.075,0.23,0.126,-0.28200000000000003,-0.997,0.024,69.33,-16.89,-66.23,0.7265,-0.657,0.194,0.0512,0.068,0.022,-0.08700000000000001
2025-11-06 18:34:09.374,53.99,0.019,0.28300000000000003,0.091,-0.263,-1.042,0.022,69.33,-16.89,-66.23,0.7238,-0.6584,0.1988,0.0533,0.046,0.068,-0.078
2025-11-06 18:34:09.374,53.995,-0.04,0.314,0.061,-0.246,-1.049,0.021,69.51,-16.92,-65.24,0.7215,-0.6598,0.2023,0.0555,0.027,0.075,-0.07
2025-11-06 18:34:09.374,54.0,-0.08600000000000001,0.34400000000000003,0.041,-0.224,-1.043,0.018000000000000002,69.51,-16.92,-65.24,0.7195,-0.661,0.2048,0.0579,0.006,0.068,-0.062
2025-11-06 18:34:09.374,54.005,-0.134,0.378,0.027,-0.20600000000000002,-1.055,0.01,69.83,-16.57,-65.97,0.7180000000000001,-0.662,0.20600000000000002,0.0604,-0.01,0.079,-0.049
2025-11-06 18:34:09.374,54.01,-0.178,0.41200000000000003,0.019,-0.176,-1.035,-0.006,69.83,-16.57,-65.97,0.7172000000000001,-0.6628000000000001,0.20570000000000002,0.0629,-0.035,0.059000000000000004,-0.03
2025-11-06 18:34:09.374,54.015,-0.24,0.47200000000000003,0.01,-0.14400000000000002,-0.995,-0.037,70.79,-16.57,-65.85,0.7175,-0.6629,0.2034,0.065,-0.062,0.018000000000000002,0.0
2025-11-06 18:34:09.376,54.02,-0.262,0.499,0.017,-0.127,-1.0230000000000001,-0.059000000000000004,70.79,-16.57,-65.85,0.7185,-0.6627000000000001,0.2,0.067,-0.073,0.044,0.018000000000000002
2025-11-06 18:34:09.376,54.025,-0.273,0.509,0.044,-0.155,-0.992,-0.084,70.79,-16.57,-65.85,0.7204,-0.6615,0.1968,0.0668,-0.039,0.013000000000000001,0.039
2025-11-06 18:34:09.376,54.03,-0.256,0.519,0.052000000000000005,-0.081,-1.0030000000000001,-0.116,69.42,-16.72,-65.79,0.7229,-0.6604,0.191,0.0685,-0.106,0.022,0.063
2025-11-06 18:34:09.376,54.035,-0.23800000000000002,0.497,0.06,-0.095,-1.004,-0.123,69.42,-16.72,-65.79,0.7254,-0.659,0.18580000000000002,0.0695,-0.084,0.022,0.063
2025-11-06 18:34:09.376,54.04,-0.198,0.48,0.069,-0.093,-0.989,-0.112,70.38,-16.19,-65.79,0.7272000000000001,-0.6581,0.18130000000000002,0.07060000000000001,-0.078,0.006,0.046
2025-11-06 18:34:09.376,54.045,-0.157,0.491,0.074,-0.092,-0.988,-0.114,70.38,-16.19,-65.79,0.7289,-0.6573,0.1772,0.07150000000000001,-0.073,0.004,0.042
2025-11-06 18:34:09.376,54.05,-0.139,0.498,0.079,-0.11800000000000001,-0.996,-0.13,70.38,-16.19,-65.79,0.7309,-0.6559,0.17400000000000002,0.07150000000000001,-0.042,0.013000000000000001,0.052000000000000005
2025-11-06 18:34:09.376,54.055,-0.10400000000000001,0.491,0.083,-0.14100000000000001,-0.974,-0.14,69.45,-16.39,-65.94,0.7331000000000001,-0.6541,0.17170000000000002,0.0708,-0.017,-0.008,0.056
2025-11-06 18:34:09.376,54.06,-0.06,0.422,0.1,-0.166,-0.972,-0.15,69.45,-16.39,-65.94,0.7354,-0.652,0.1706,0.06960000000000001,0.006,-0.01,0.06
2025-11-06 18:34:09.376,54.065,-0.028,0.325,0.115,-0.182,-0.971,-0.137,69.68,-16.66,-65.85,0.737,-0.6503,0.1705,0.0683,0.02,-0.01,0.042
2025-11-06 18:34:09.376,54.07,-0.017,0.23800000000000002,0.133,-0.192,-0.968,-0.126,69.68,-16.66,-65.85,0.7381000000000001,-0.649,0.1711,0.0669,0.027,-0.012,0.028
2025-11-06 18:34:09.376,54.075,-0.018000000000000002,0.152,0.147,-0.193,-0.974,-0.116,68.95,-16.77,-65.68,0.7388,-0.6481,0.1719,0.0658,0.025,-0.006,0.016
2025-11-06 18:34:09.376,54.08,-0.022,0.078,0.168,-0.199,-0.99,-0.107,68.95,-16.77,-65.68,0.7391000000000001,-0.6476000000000001,0.1731,0.0649,0.028,0.01,0.006
2025-11-06 18:34:09.376,54.085,-0.03,0.041,0.184,-0.213,-0.997,-0.097,68.95,-16.77,-65.68,0.7391000000000001,-0.6473,0.1749,0.06380000000000001,0.038,0.018000000000000002,-0.003
2025-11-06 18:34:09.376,54.09,-0.038,0.053,0.195,-0.217,-1.0110000000000001,-0.093,69.16,-16.63,-65.24,0.7389,-0.6471,0.1766,0.06280000000000001,0.039,0.032,-0.006
2025-11-06 18:34:09.376,54.095,-0.059000000000000004,0.07,0.199,-0.216,-0.994,-0.099,69.16,-16.63,-65.24,0.739,-0.6467,0.17800000000000002,0.061700000000000005,0.033,0.016,0.0
2025-11-06 18:34:09.376,54.1,-0.082,0.08,0.209,-0.231,-0.99,-0.10200000000000001,69.27,-16.69,-65.53,0.7393000000000001,-0.646,0.17980000000000002,0.0603,0.044,0.013000000000000001,0.002
2025-11-06 18:34:09.376,54.105,-0.08700000000000001,0.081,0.222,-0.22,-0.972,-0.108,69.27,-16.69,-65.53,0.7398,-0.6452,0.1811,0.0591,0.029,-0.003,0.006
2025-11-06 18:34:09.376,54.11,-0.092,0.081,0.227,-0.217,-0.9540000000000001,-0.11,69.27,-16.69,-65.53,0.7404000000000001,-0.6443,0.1822,0.057800000000000004,0.023,-0.02,0.007
2025-11-06 18:34:09.376,54.115,-0.088,0.091,0.221,-0.219,-0.9570000000000001,-0.10200000000000001,69.68,-17.12,-65.24,0.7406,-0.6438,0.1834,0.0567,0.022,-0.016,-0.001
2025-11-06 18:34:09.376,54.12,-0.095,0.116,0.21,-0.219,-0.9500000000000001,-0.096,69.68,-17.12,-65.24,0.7407,-0.6434000000000001,0.18460000000000001,0.0557,0.019,-0.023,-0.007
2025-11-06 18:34:09.376,54.125,-0.121,0.17500000000000002,0.183,-0.197,-0.929,-0.083,68.83,-16.51,-65.44,0.7405,-0.6436000000000001,0.18510000000000001,0.055200000000000006,-0.004,-0.044,-0.019
2025-11-06 18:34:09.376,54.13,-0.14300000000000002,0.23,0.155,-0.191,-0.928,-0.083,68.83,-16.51,-65.44,0.7404000000000001,-0.6437,0.18510000000000001,0.054900000000000004,-0.011,-0.045,-0.018000000000000002
2025-11-06 18:34:09.376,54.135,-0.168,0.263,0.132,-0.169,-0.912,-0.1,68.72,-16.92,-65.91,0.7409,-0.6435000000000001,0.1839,0.0548,-0.033,-0.06,-0.002
2025-11-06 18:34:09.376,54.14,-0.193,0.27,0.116,-0.161,-0.894,-0.109,68.72,-16.92,-65.91,0.7418,-0.643,0.1824,0.054700000000000006,-0.038,-0.079,0.003
2025-11-06 18:34:09.377,54.145,-0.2,0.28300000000000003,0.105,-0.139,-0.915,-0.12,68.72,-16.92,-65.91,0.7428,-0.6425000000000001,0.1797,0.055200000000000006,-0.058,-0.058,0.011
2025-11-06 18:34:09.377,54.15,-0.19,0.262,0.105,-0.125,-0.98,-0.11900000000000001,68.51,-16.8,-65.74,0.7434000000000001,-0.6426000000000001,0.1766,0.0562,-0.066,0.005,0.007
2025-11-06 18:34:09.377,54.155,-0.182,0.252,0.13,-0.129,-1.05,-0.113,68.51,-16.8,-65.74,0.7435,-0.6431,0.1738,0.0572,-0.057,0.074,0.0
2025-11-06 18:34:09.377,54.16,-0.171,0.245,0.146,-0.131,-1.033,-0.095,68.63,-16.8,-65.5,0.7432000000000001,-0.644,0.1715,0.0579,-0.05,0.056,-0.016
2025-11-06 18:34:09.377,54.165,-0.178,0.268,0.152,-0.138,-1.037,-0.10200000000000001,68.63,-16.8,-65.5,0.7431,-0.6446000000000001,0.1696,0.0584,-0.038,0.059000000000000004,-0.009000000000000001
2025-11-06 18:34:09.377,54.17,-0.196,0.28800000000000003,0.148,-0.14400000000000002,-1.037,-0.114,68.63,-16.8,-65.5,0.7434000000000001,-0.6447,0.16790000000000002,0.058800000000000005,-0.03,0.059000000000000004,0.002
2025-11-06 18:34:09.377,54.175,-0.198,0.316,0.135,-0.136,-1.0110000000000001,-0.125,68.81,-16.77,-65.47,0.744,-0.6444000000000001,0.166,0.0592,-0.035,0.032,0.012
2025-11-06 18:34:09.377,54.18,-0.187,0.354,0.125,-0.147,-0.997,-0.14,68.81,-16.77,-65.47,0.7451,-0.6435000000000001,0.1645,0.059300000000000005,-0.021,0.018000000000000002,0.023
2025-11-06 18:34:09.377,54.185,-0.176,0.362,0.11800000000000001,-0.147,-0.974,-0.161,68.63,-16.830000000000002,-65.97,0.7467,-0.6419,0.1632,0.0594,-0.019,-0.003,0.04
2025-11-06 18:34:09.377,54.19,-0.151,0.34800000000000003,0.11800000000000001,-0.179,-0.9480000000000001,-0.15,68.63,-16.830000000000002,-65.97,0.748,-0.6405000000000001,0.1633,0.058600000000000006,0.01,-0.028,0.025
2025-11-06 18:34:09.377,54.195,-0.107,0.28300000000000003,0.109,-0.182,-0.9490000000000001,-0.135,69.16,-17.1,-66.38,0.7487,-0.6397,0.1636,0.0577,0.012,-0.027,0.007
2025-11-06 18:34:09.377,54.2,-0.08600000000000001,0.231,0.10300000000000001,-0.17300000000000001,-0.9470000000000001,-0.115,69.16,-17.1,-66.38,0.7487,-0.6398,0.1636,0.057,0.001,-0.029,-0.012
2025-11-06 18:34:09.377,54.205,-0.07,0.181,0.098,-0.162,-0.963,-0.093,69.16,-17.1,-66.38,0.7479,-0.6408,0.1633,0.0565,-0.009000000000000001,-0.013000000000000001,-0.032
2025-11-06 18:34:09.377,54.21,-0.06,0.133,0.089,-0.162,-0.98,-0.077,68.69,-16.98,-65.77,0.7467,-0.6423,0.163,0.056,-0.009000000000000001,0.002,-0.045
2025-11-06 18:34:09.377,54.215,-0.057,0.114,0.076,-0.167,-0.985,-0.058,68.69,-16.98,-65.77,0.745,-0.6443,0.16290000000000002,0.055400000000000005,-0.003,0.007,-0.059000000000000004
2025-11-06 18:34:09.378,54.22,-0.065,0.109,0.066,-0.17300000000000001,-0.977,-0.048,69.19,-16.6,-65.65,0.7433000000000001,-0.6464000000000001,0.1631,0.0546,0.002,0.0,-0.064
2025-11-06 18:34:09.378,54.225,-0.061,0.117,0.064,-0.19,-0.979,-0.032,69.19,-16.6,-65.65,0.7412000000000001,-0.6487,0.1638,0.053200000000000004,0.016,0.0,-0.073
2025-11-06 18:34:09.378,54.23,-0.054,0.12,0.058,-0.171,-0.987,-0.036000000000000004,69.19,-16.6,-65.65,0.7394000000000001,-0.6508,0.16390000000000002,0.052700000000000004,-0.002,0.007,-0.063
2025-11-06 18:34:09.378,54.235,-0.052000000000000005,0.125,0.056,-0.153,-0.993,-0.039,68.60000000000001,-16.77,-66.06,0.7377,-0.6527000000000001,0.1635,0.0529,-0.019,0.013000000000000001,-0.055
2025-11-06 18:34:09.378,54.24,-0.065,0.122,0.059000000000000004,-0.17300000000000001,-0.999,-0.083,68.60000000000001,-16.77,-66.06,0.7375,-0.653,0.16340000000000002,0.0526,0.001,0.019,-0.009000000000000001
2025-11-06 18:34:09.378,54.245,-0.069,0.115,0.064,-0.176,-1.0050000000000001,-0.084,68.54,-17.240000000000002,-65.79,0.7374,-0.6532,0.1633,0.0523,0.003,0.024,-0.008
2025-11-06 18:34:09.378,54.25,-0.059000000000000004,0.136,0.07,-0.179,-1.002,-0.085,68.54,-17.240000000000002,-65.79,0.7373000000000001,-0.6534,0.1633,0.051800000000000006,0.006,0.021,-0.007
2025-11-06 18:34:09.378,54.255,-0.045,0.15,0.08,-0.182,-0.999,-0.084,68.54,-16.51,-65.27,0.7372000000000001,-0.6536000000000001,0.1633,0.0512,0.008,0.018000000000000002,-0.007
2025-11-06 18:34:09.378,54.26,-0.024,0.134,0.095,-0.194,-0.995,-0.078,68.54,-16.51,-65.27,0.7369,-0.6539,0.1636,0.05,0.018000000000000002,0.014,-0.012
2025-11-06 18:34:09.378,54.265,-0.016,0.11800000000000001,0.108,-0.216,-0.994,-0.069,68.54,-16.51,-65.27,0.7364,-0.6544,0.1645,0.048100000000000004,0.038,0.015,-0.02
2025-11-06 18:34:09.378,54.27,-0.02,0.14300000000000002,0.114,-0.221,-0.983,-0.062,68.83,-17.18,-66.47,0.7358,-0.6549,0.1655,0.046,0.039,0.004,-0.025
2025-11-06 18:34:09.378,54.275,-0.027,0.184,0.111,-0.224,-0.979,-0.066,68.83,-17.18,-66.47,0.7354,-0.6553,0.16640000000000002,0.0439,0.038,0.0,-0.019
2025-11-06 18:34:09.378,54.28,-0.035,0.222,0.109,-0.216,-0.986,-0.07100000000000001,69.21000000000001,-16.89,-66.53,0.7352000000000001,-0.6555000000000001,0.16690000000000002,0.042300000000000004,0.026000000000000002,0.008,-0.013000000000000001
2025-11-06 18:34:09.378,54.285,-0.039,0.233,0.113,-0.21,-0.994,-0.06,69.21000000000001,-16.89,-66.53,0.7346,-0.6561,0.16720000000000002,0.041100000000000005,0.019,0.016,-0.023
2025-11-06 18:34:09.378,54.29,-0.042,0.225,0.11800000000000001,-0.202,-1.0010000000000001,-0.048,69.21000000000001,-16.89,-66.53,0.7337,-0.6571,0.1675,0.0403,0.01,0.023,-0.032
2025-11-06 18:34:09.378,54.295,-0.044,0.203,0.124,-0.193,-1.004,-0.038,69.62,-16.98,-65.65,0.7326,-0.6583,0.16770000000000002,0.040100000000000004,0.0,0.026000000000000002,-0.039
2025-11-06 18:34:09.378,54.3,-0.053,0.189,0.133,-0.191,-1.0010000000000001,-0.031,69.62,-16.98,-65.65,0.7314,-0.6596000000000001,0.168,0.039900000000000005,-0.001,0.022,-0.043000000000000003
2025-11-06 18:34:09.378,54.305,-0.075,0.188,0.138,-0.179,-0.994,-0.023,68.83,-17.77,-65.59,0.7301000000000001,-0.661,0.1681,0.0402,-0.013000000000000001,0.016,-0.046
2025-11-06 18:34:09.378,54.31,-0.099,0.20400000000000001,0.139,-0.17,-0.991,-0.02,68.83,-17.77,-65.59,0.7288,-0.6624,0.168,0.0408,-0.02,0.011,-0.045
2025-11-06 18:34:09.378,54.315,-0.125,0.225,0.14,-0.158,-0.989,-0.031,68.63,-17.42,-66.0,0.728,-0.6633,0.1676,0.041800000000000004,-0.031,0.009000000000000001,-0.032
2025-11-06 18:34:09.378,54.32,-0.154,0.262,0.132,-0.14400000000000002,-0.988,-0.045,68.63,-17.42,-66.0,0.7277,-0.6637000000000001,0.1668,0.0434,-0.041,0.008,-0.017
2025-11-06 18:34:09.378,54.325,-0.176,0.291,0.11800000000000001,-0.139,-0.981,-0.057,68.63,-17.42,-66.0,0.7278,-0.6638000000000001,0.16590000000000002,0.0449,-0.042,0.0,-0.006
2025-11-06 18:34:09.378,54.33,-0.187,0.334,0.106,-0.135,-0.975,-0.062,68.63,-17.45,-65.12,0.7281000000000001,-0.6636000000000001,0.1647,0.0463,-0.043000000000000003,-0.006,-0.001
2025-11-06 18:34:09.378,54.335,-0.191,0.34500000000000003,0.094,-0.129,-0.975,-0.052000000000000005,68.63,-17.45,-65.12,0.7281000000000001,-0.6638000000000001,0.1635,0.0478,-0.045,-0.006,-0.012
2025-11-06 18:34:09.378,54.34,-0.20700000000000002,0.336,0.083,-0.115,-0.981,-0.042,68.48,-17.53,-65.39,0.7278,-0.6644,0.1621,0.0497,-0.055,-0.001,-0.021
2025-11-06 18:34:09.378,54.345,-0.228,0.308,0.075,-0.091,-0.987,-0.044,68.48,-17.53,-65.39,0.7274,-0.665,0.1603,0.052500000000000005,-0.073,0.003,-0.019
2025-11-06 18:34:09.378,54.35,-0.243,0.276,0.064,-0.076,-0.992,-0.056,68.48,-17.53,-65.39,0.7274,-0.6652,0.1584,0.056,-0.081,0.006,-0.008
2025-11-06 18:34:09.378,54.355,-0.251,0.246,0.064,-0.073,-0.99,-0.067,68.51,-17.39,-66.41,0.7278,-0.6649,0.1567,0.059300000000000005,-0.077,0.003,0.001
2025-11-06 18:34:09.379,54.36,-0.252,0.233,0.064,-0.067,-0.989,-0.077,68.51,-17.39,-66.41,0.7283000000000001,-0.6644,0.155,0.06280000000000001,-0.076,0.002,0.009000000000000001
2025-11-06 18:34:09.379,54.365,-0.274,0.242,0.058,-0.076,-0.995,-0.09,70.3,-17.39,-65.88,0.7292000000000001,-0.6635,0.15360000000000001,0.06570000000000001,-0.061,0.007,0.019
2025-11-06 18:34:09.379,54.37,-0.294,0.253,0.05,-0.11900000000000001,-0.989,-0.099,70.3,-17.39,-65.88,0.7304,-0.6621,0.1531,0.06670000000000001,-0.015,0.001,0.024
2025-11-06 18:34:09.379,54.375,-0.312,0.262,0.031,-0.14,-0.991,-0.10400000000000001,68.54,-17.3,-66.0,0.7318,-0.6606000000000001,0.153,0.06670000000000001,0.005,0.003,0.025
2025-11-06 18:34:09.379,54.38,-0.34700000000000003,0.26,0.016,-0.151,-0.992,-0.113,68.54,-17.3,-66.0,0.7334,-0.6588,0.1532,0.0665,0.014,0.005,0.03
2025-11-06 18:34:09.379,54.385,-0.378,0.243,0.012,-0.168,-0.994,-0.111,68.54,-17.3,-66.0,0.7349,-0.6572,0.15360000000000001,0.06570000000000001,0.029,0.008,0.023
2025-11-06 18:34:09.379,54.39,-0.41600000000000004,0.233,0.009000000000000001,-0.183,-1.016,-0.113,68.4,-17.39,-66.41,0.7363000000000001,-0.6556000000000001,0.1542,0.0644,0.041,0.03,0.021
2025-11-06 18:34:09.379,54.395,-0.461,0.211,0.015,-0.17200000000000001,-1.0190000000000001,-0.10300000000000001,68.4,-17.39,-66.41,0.7373000000000001,-0.6544,0.1544,0.0635,0.028,0.034,0.008
2025-11-06 18:34:09.379,54.4,-0.495,0.176,0.023,-0.183,-1.024,-0.088,68.54,-17.3,-67.2,0.7379,-0.6538,0.1549,0.0621,0.036000000000000004,0.039,-0.008
2025-11-06 18:34:09.379,54.405,-0.522,0.149,0.044,-0.17300000000000001,-1.012,-0.061,68.54,-17.3,-67.2,0.7378,-0.654,0.155,0.060700000000000004,0.024,0.028,-0.034
2025-11-06 18:34:09.379,54.41,-0.523,0.12,0.069,-0.181,-1.0050000000000001,-0.051000000000000004,70.09,-17.150000000000002,-66.67,0.7375,-0.6545000000000001,0.1555,0.059000000000000004,0.03,0.021,-0.043000000000000003
2025-11-06 18:34:09.379,54.415,-0.526,0.105,0.094,-0.193,-0.989,-0.053,70.09,-17.150000000000002,-66.67,0.7372000000000001,-0.6547000000000001,0.1563,0.056900000000000006,0.038,0.006,-0.04
2025-11-06 18:34:09.380,54.42,-0.54,0.137,0.108,-0.183,-0.975,-0.07200000000000001,70.09,-17.150000000000002,-66.67,0.7376,-0.6543,0.1568,0.055400000000000005,0.025,-0.007,-0.021
2025-11-06 18:34:09.380,54.425,-0.557,0.147,0.11,-0.17400000000000002,-0.967,-0.075,68.51,-17.48,-67.26,0.7381000000000001,-0.6538,0.15710000000000002,0.0543,0.014,-0.014,-0.019
2025-11-06 18:34:09.380,54.43,-0.5690000000000001,0.151,0.111,-0.165,-0.963,-0.075,68.51,-17.48,-67.26,0.7385,-0.6533,0.1572,0.053700000000000005,0.003,-0.018000000000000002,-0.021
2025-11-06 18:34:09.380,54.435,-0.578,0.163,0.10400000000000001,-0.14200000000000002,-0.966,-0.083,68.19,-17.77,-66.93,0.7391000000000001,-0.6528,0.15660000000000002,0.054,-0.018000000000000002,-0.016,-0.014
2025-11-06 18:34:09.380,54.44,-0.557,0.169,0.1,-0.131,-0.906,-0.089,68.19,-17.77,-66.93,0.7399,-0.6519,0.156,0.0545,-0.028,-0.075,-0.011
2025-11-06 18:34:09.380,54.445,-0.548,0.183,0.08,-0.097,-0.996,-0.129,68.19,-17.77,-66.93,0.7415,-0.6504,0.15430000000000002,0.057,-0.058,0.013000000000000001,0.024
2025-11-06 18:34:09.380,54.45,-0.517,0.169,0.082,-0.096,-0.9550000000000001,-0.101,68.16,-17.45,-66.93,0.7421,-0.6498,0.1527,0.058800000000000005,-0.054,-0.027,-0.006
2025-11-06 18:34:09.380,54.455,-0.493,0.17400000000000002,0.078,-0.11900000000000001,-0.964,-0.095,68.16,-17.45,-66.93,0.7426,-0.6495000000000001,0.15180000000000002,0.059500000000000004,-0.028,-0.018000000000000002,-0.014
2025-11-06 18:34:09.380,54.46,-0.47900000000000004,0.17200000000000001,0.068,-0.131,-0.9510000000000001,-0.079,68.19,-17.740000000000002,-67.29,0.7425,-0.6497,0.1512,0.0594,-0.016,-0.031,-0.03
2025-11-06 18:34:09.380,54.465,-0.467,0.146,0.052000000000000005,-0.13,-0.9580000000000001,-0.069,68.19,-17.740000000000002,-67.29,0.7422000000000001,-0.6502,0.1505,0.059300000000000005,-0.016,-0.024,-0.039
2025-11-06 18:34:09.380,54.47,-0.468,0.127,0.035,-0.137,-0.965,-0.07100000000000001,68.07000000000001,-17.12,-67.37,0.742,-0.6506000000000001,0.1501,0.059000000000000004,-0.008,-0.017,-0.036000000000000004
2025-11-06 18:34:09.380,54.475,-0.468,0.127,0.02,-0.15,-0.964,-0.081,68.07000000000001,-17.12,-67.37,0.742,-0.6507000000000001,0.1499,0.058300000000000005,0.003,-0.018000000000000002,-0.026000000000000002
2025-11-06 18:34:09.380,54.48,-0.468,0.127,0.006,-0.147,-0.9570000000000001,-0.091,68.07000000000001,-17.12,-67.37,0.7424000000000001,-0.6503,0.1497,0.0579,0.0,-0.025,-0.017
2025-11-06 18:34:09.380,54.485,-0.446,0.111,-0.023,-0.162,-0.9460000000000001,-0.10200000000000001,68.28,-17.12,-67.37,0.7431,-0.6496000000000001,0.1499,0.057,0.014,-0.036000000000000004,-0.008
2025-11-06 18:34:09.380,54.49,-0.422,0.083,-0.039,-0.167,-0.9430000000000001,-0.10200000000000001,68.28,-17.12,-67.37,0.7437,-0.6489,0.1501,0.055900000000000005,0.017,-0.038,-0.01
2025-11-06 18:34:09.380,54.495,-0.396,0.043000000000000003,-0.052000000000000005,-0.178,-0.9530000000000001,-0.10200000000000001,68.19,-16.830000000000002,-68.45,0.7442000000000001,-0.6483,0.1506,0.054700000000000006,0.026000000000000002,-0.028,-0.01
2025-11-06 18:34:09.380,54.5,-0.38,-0.004,-0.068,-0.17500000000000002,-0.9570000000000001,-0.10300000000000001,68.19,-16.830000000000002,-68.45,0.7446,-0.6478,0.1511,0.0538,0.02,-0.023,-0.011
2025-11-06 18:34:09.380,54.505,-0.361,-0.035,-0.088,-0.177,-0.9520000000000001,-0.113,68.19,-16.830000000000002,-68.45,0.7453000000000001,-0.647,0.1515,0.0531,0.02,-0.028,-0.002
2025-11-06 18:34:09.380,54.51,-0.339,-0.045,-0.109,-0.157,-0.9390000000000001,-0.111,68.60000000000001,-17.18,-68.19,0.7458,-0.6464000000000001,0.1515,0.053200000000000004,0.0,-0.04,-0.005
2025-11-06 18:34:09.380,54.515,-0.319,-0.025,-0.131,-0.149,-0.9450000000000001,-0.115,68.60000000000001,-17.18,-68.19,0.7463000000000001,-0.6459,0.15130000000000002,0.0536,-0.007,-0.034,-0.004
2025-11-06 18:34:09.380,54.52,-0.318,0.017,-0.15,-0.151,-0.9510000000000001,-0.132,68.57000000000001,-16.45,-67.61,0.7472000000000001,-0.6449,0.1509,0.0541,-0.004,-0.029,0.01
2025-11-06 18:34:09.380,54.525,-0.33,0.067,-0.17,-0.137,-0.935,-0.157,68.57000000000001,-16.45,-67.61,0.7489,-0.6431,0.1499,0.055,-0.016,-0.044,0.031
2025-11-06 18:34:09.380,54.53,-0.378,0.08,-0.202,-0.126,-1.01,-0.184,68.86,-16.86,-67.67,0.7508,-0.641,0.14830000000000002,0.056600000000000004,-0.024,0.031,0.052000000000000005
2025-11-06 18:34:09.380,54.535,-0.382,0.047,-0.202,-0.113,-0.993,-0.166,68.86,-16.86,-67.67,0.7521,-0.6397,0.1467,0.0584,-0.033,0.013000000000000001,0.029
2025-11-06 18:34:09.380,54.54,-0.4,0.01,-0.20700000000000002,-0.105,-0.997,-0.168,68.86,-16.86,-67.67,0.7534000000000001,-0.6384000000000001,0.14500000000000002,0.0604,-0.037,0.017,0.026000000000000002
2025-11-06 18:34:09.380,54.545,-0.429,-0.007,-0.20500000000000002,-0.099,-0.988,-0.17200000000000001,68.54,-16.54,-68.22,0.7547,-0.637,0.1433,0.0625,-0.037,0.008,0.026000000000000002
2025-11-06 18:34:09.380,54.55,-0.455,-0.006,-0.19,-0.111,-0.98,-0.185,68.54,-16.54,-68.22,0.7563000000000001,-0.6352,0.1421,0.0641,-0.023,0.001,0.034
2025-11-06 18:34:09.380,54.555,-0.487,0.002,-0.182,-0.094,-0.985,-0.213,69.19,-16.39,-68.60000000000001,0.7586,-0.6327,0.1405,0.06620000000000001,-0.035,0.006,0.055
2025-11-06 18:34:09.380,54.56,-0.51,0.006,-0.181,-0.091,-0.996,-0.232,69.19,-16.39,-68.60000000000001,0.761,-0.6298,0.1388,0.0685,-0.034,0.018000000000000002,0.066
2025-11-06 18:34:09.380,54.565,-0.528,-0.009000000000000001,-0.182,-0.109,-1.0190000000000001,-0.232,69.19,-16.39,-68.60000000000001,0.7632,-0.6273000000000001,0.1378,0.07010000000000001,-0.013000000000000001,0.041,0.059000000000000004
2025-11-06 18:34:09.380,54.57,-0.536,-0.018000000000000002,-0.18,-0.10400000000000001,-0.998,-0.234,68.98,-15.84,-68.25,0.7654000000000001,-0.6247,0.1368,0.0717,-0.015,0.022,0.054
2025-11-06 18:34:09.380,54.575,-0.545,-0.046,-0.178,-0.135,-0.971,-0.269,68.98,-15.84,-68.25,0.7684000000000001,-0.6206,0.1373,0.0732,0.015,-0.003,0.08
2025-11-06 18:34:09.380,54.58,-0.5720000000000001,-0.08,-0.18,-0.188,-1.002,-0.293,69.16,-16.19,-69.07000000000001,0.7716000000000001,-0.616,0.1398,0.07400000000000001,0.065,0.03,0.094
2025-11-06 18:34:09.380,54.585,-0.599,-0.123,-0.17400000000000002,-0.23600000000000002,-0.991,-0.29,69.16,-16.19,-69.07000000000001,0.7745000000000001,-0.6113000000000001,0.1442,0.0742,0.105,0.022,0.081
2025-11-06 18:34:09.380,54.59,-0.623,-0.178,-0.166,-0.253,-0.967,-0.28800000000000003,69.24,-15.75,-69.51,0.7772,-0.6066,0.1492,0.0742,0.114,0.001,0.07100000000000001
2025-11-06 18:34:09.380,54.595,-0.617,-0.254,-0.15,-0.255,-0.928,-0.272,69.24,-15.75,-69.51,0.7796000000000001,-0.6023000000000001,0.1545,0.0743,0.106,-0.034,0.047
2025-11-06 18:34:09.380,54.6,-0.5720000000000001,-0.28200000000000003,-0.131,-0.273,-0.922,-0.257,69.24,-15.75,-69.51,0.7812,-0.5985,0.16060000000000002,0.0742,0.113,-0.037,0.026000000000000002
2025-11-06 18:34:09.380,54.605,-0.535,-0.246,-0.109,-0.281,-0.9390000000000001,-0.252,69.86,-15.22,-69.51,0.7824,-0.5954,0.16640000000000002,0.0741,0.112,-0.017,0.017
2025-11-06 18:34:09.380,54.61,-0.516,-0.203,-0.083,-0.273,-0.9440000000000001,-0.268,69.86,-15.22,-69.51,0.7839,-0.5922000000000001,0.1708,0.0737,0.095,-0.009000000000000001,0.029
2025-11-06 18:34:09.380,54.615,-0.505,-0.171,-0.059000000000000004,-0.27,-0.937,-0.279,69.45,-15.75,-70.09,0.7857000000000001,-0.5889,0.1743,0.07300000000000001,0.083,-0.014,0.035
2025-11-06 18:34:09.380,54.62,-0.47500000000000003,-0.13,-0.042,-0.247,-0.9470000000000001,-0.28200000000000003,69.45,-15.75,-70.09,0.7872,-0.5863,0.1763,0.07250000000000001,0.055,-0.001,0.033
2025-11-06 18:34:09.380,54.625,-0.445,-0.127,-0.021,-0.231,-0.9440000000000001,-0.278,69.45,-15.75,-70.09,0.7886000000000001,-0.5842,0.1776,0.0721,0.036000000000000004,-0.003,0.025
2025-11-06 18:34:09.380,54.63,-0.43,-0.135,-0.004,-0.23,-0.925,-0.278,70.27,-16.31,-69.92,0.7899,-0.5821000000000001,0.1789,0.0717,0.032,-0.019,0.02
2025-11-06 18:34:09.380,54.635,-0.433,-0.127,0.008,-0.23,-0.914,-0.276,70.27,-16.31,-69.92,0.7911,-0.5800000000000001,0.1802,0.0713,0.029,-0.029,0.015
2025-11-06 18:34:09.380,54.64,-0.435,-0.11,0.025,-0.245,-0.908,-0.264,69.19,-15.69,-69.95,0.7919,-0.5782,0.1826,0.0712,0.04,-0.033,0.0
2025-11-06 18:34:09.380,54.645,-0.444,-0.12,0.038,-0.28600000000000003,-0.901,-0.26,69.19,-15.69,-69.95,0.7925000000000001,-0.5759000000000001,0.18710000000000002,0.07100000000000001,0.073,-0.038,-0.005
2025-11-06 18:34:09.380,54.65,-0.462,-0.08600000000000001,0.041,-0.272,-0.895,-0.266,69.3,-15.6,-70.47,0.7934,-0.5738,0.1902,0.07050000000000001,0.052000000000000005,-0.042,-0.001
2025-11-06 18:34:09.380,54.655,-0.47500000000000003,-0.044,0.039,-0.257,-0.895,-0.28500000000000003,69.3,-15.6,-70.47,0.7947000000000001,-0.5715,0.19160000000000002,0.0697,0.033,-0.04,0.013000000000000001
2025-11-06 18:34:09.380,54.66,-0.467,-0.022,0.046,-0.26,-0.921,-0.295,69.3,-15.6,-70.47,0.7961,-0.5695,0.19260000000000002,0.0689,0.032,-0.012,0.019
2025-11-06 18:34:09.380,54.665,-0.464,-0.018000000000000002,0.041,-0.20600000000000002,-0.916,-0.289,70.38,-15.75,-70.62,0.7972,-0.5684,0.19110000000000002,0.06860000000000001,-0.02,-0.016,0.009000000000000001
2025-11-06 18:34:09.380,54.67,-0.457,-0.012,0.047,-0.234,-0.914,-0.281,70.38,-15.75,-70.62,0.798,-0.5672,0.19160000000000002,0.06860000000000001,0.007,-0.017,0.0
2025-11-06 18:34:09.380,54.675,-0.454,-0.006,0.046,-0.242,-0.903,-0.28600000000000003,68.83,-15.34,-71.35000000000001,0.7989,-0.5657,0.1922,0.0683,0.012,-0.026000000000000002,0.001
2025-11-06 18:34:09.380,54.68,-0.455,0.02,0.032,-0.246,-0.893,-0.28500000000000003,68.83,-15.34,-71.35000000000001,0.7998000000000001,-0.5642,0.19310000000000002,0.068,0.015,-0.035,-0.002
2025-11-06 18:34:09.380,54.685,-0.444,0.07200000000000001,-0.002,-0.233,-0.892,-0.28800000000000003,68.83,-15.34,-71.35000000000001,0.8007000000000001,-0.5629000000000001,0.19310000000000002,0.0678,0.001,-0.035,-0.002
2025-11-06 18:34:09.380,54.69,-0.435,0.091,-0.048,-0.213,-0.897,-0.281,68.78,-15.49,-71.32000000000001,0.8013,-0.5623,0.1923,0.06810000000000001,-0.018000000000000002,-0.03,-0.011
2025-11-06 18:34:09.380,54.695,-0.436,0.114,-0.09,-0.202,-0.925,-0.268,68.78,-15.49,-71.32000000000001,0.8013,-0.5625,0.1913,0.0692,-0.027,-0.002,-0.025
2025-11-06 18:34:09.380,54.7,-0.442,0.14100000000000001,-0.133,-0.184,-0.9420000000000001,-0.252,68.66,-15.22,-71.11,0.8007000000000001,-0.5636,0.19,0.0709,-0.04,0.013000000000000001,-0.04
2025-11-06 18:34:09.382,54.705,-0.449,0.15,-0.161,-0.171,-0.9470000000000001,-0.22,68.66,-15.22,-71.11,0.7993,-0.5656,0.189,0.0734,-0.049,0.015,-0.068
2025-11-06 18:34:09.382,54.71,-0.47000000000000003,0.14,-0.195,-0.154,-0.9580000000000001,-0.202,70.18,-15.22,-72.02,0.7974,-0.5682,0.18780000000000002,0.07640000000000001,-0.059000000000000004,0.024,-0.082
2025-11-06 18:34:09.382,54.715,-0.489,0.134,-0.214,-0.147,-0.967,-0.20400000000000001,70.18,-15.22,-72.02,0.7957000000000001,-0.5707,0.18630000000000002,0.07930000000000001,-0.06,0.03,-0.075
2025-11-06 18:34:09.382,54.72,-0.508,0.147,-0.223,-0.13,-0.982,-0.226,70.18,-15.22,-72.02,0.7947000000000001,-0.5725,0.184,0.0823,-0.069,0.042,-0.05
2025-11-06 18:34:09.382,54.725,-0.509,0.155,-0.223,-0.10400000000000001,-0.981,-0.247,68.92,-14.93,-72.08,0.7942,-0.5737,0.1807,0.0855,-0.08600000000000001,0.04,-0.028
2025-11-06 18:34:09.382,54.73,-0.481,0.155,-0.211,-0.111,-0.974,-0.272,68.92,-14.93,-72.08,0.7944,-0.5739000000000001,0.1776,0.0883,-0.07100000000000001,0.031,-0.004
2025-11-06 18:34:09.382,54.735,-0.445,0.15,-0.2,-0.11800000000000001,-0.9510000000000001,-0.273,69.92,-15.22,-71.67,0.7948000000000001,-0.5739000000000001,0.17500000000000002,0.09050000000000001,-0.057,0.007,-0.005
2025-11-06 18:34:09.382,54.74,-0.422,0.136,-0.199,-0.106,-0.93,-0.277,69.92,-15.22,-71.67,0.7953,-0.5737,0.1724,0.09280000000000001,-0.062,-0.013000000000000001,-0.003
2025-11-06 18:34:09.382,54.745,-0.405,0.128,-0.211,-0.1,-0.935,-0.28700000000000003,68.92,-15.22,-71.61,0.7959,-0.5733,0.1696,0.0951,-0.062,-0.009000000000000001,0.002
2025-11-06 18:34:09.382,54.75,-0.387,0.131,-0.225,-0.099,-0.9380000000000001,-0.28500000000000003,68.92,-15.05,-71.61,0.7963,-0.5730000000000001,0.1671,0.09720000000000001,-0.056,-0.006,-0.001
2025-11-06 18:34:09.382,54.755,-0.36,0.111,-0.261,-0.101,-0.9560000000000001,-0.271,68.92,-15.05,-71.61,0.7962,-0.5736,0.1647,0.099,-0.048,0.01,-0.016
2025-11-06 18:34:09.382,54.76,-0.34700000000000003,0.083,-0.28300000000000003,-0.107,-0.972,-0.265,68.98,-15.200000000000001,-72.34,0.7958000000000001,-0.5744,0.1627,0.1003,-0.037,0.026000000000000002,-0.022
2025-11-06 18:34:09.382,54.765,-0.337,0.065,-0.296,-0.106,-0.972,-0.265,68.98,-15.200000000000001,-72.34,0.7955,-0.5752,0.1608,0.10160000000000001,-0.034,0.024,-0.021
2025-11-06 18:34:09.382,54.77,-0.326,0.037,-0.318,-0.093,-0.978,-0.261,69.45,-15.14,-72.02,0.7949,-0.5763,0.1587,0.1032,-0.041,0.029,-0.024
2025-11-06 18:34:09.382,54.775,-0.315,-0.011,-0.343,-0.1,-0.993,-0.26,69.45,-15.14,-72.02,0.7943,-0.5774,0.157,0.1044,-0.029,0.043000000000000003,-0.024
2025-11-06 18:34:09.382,54.78,-0.33,-0.07,-0.369,-0.094,-1.0,-0.261,69.45,-15.14,-72.02,0.7937000000000001,-0.5784,0.1553,0.10590000000000001,-0.031,0.049,-0.021
2025-11-06 18:34:09.382,54.785,-0.357,-0.095,-0.384,-0.107,-1.0090000000000001,-0.255,68.86,-14.73,-72.37,0.793,-0.5795,0.15410000000000001,0.1068,-0.013000000000000001,0.057,-0.025
2025-11-06 18:34:09.382,54.79,-0.383,-0.113,-0.387,-0.10400000000000001,-0.988,-0.256,68.86,-14.73,-72.37,0.7925000000000001,-0.5803,0.153,0.1078,-0.013000000000000001,0.036000000000000004,-0.023
2025-11-06 18:34:09.382,54.795,-0.40800000000000003,-0.129,-0.385,-0.122,-0.993,-0.266,69.74,-13.91,-72.58,0.7924,-0.5805,0.1525,0.10830000000000001,0.005,0.04,-0.012
2025-11-06 18:34:09.382,54.8,-0.428,-0.128,-0.381,-0.125,-0.97,-0.28300000000000003,69.74,-13.91,-72.58,0.7929,-0.5798,0.15230000000000002,0.109,0.01,0.017,0.002
2025-11-06 18:34:09.382,54.805,-0.427,-0.128,-0.384,-0.132,-0.963,-0.294,69.89,-13.82,-72.31,0.7936000000000001,-0.5787,0.15230000000000002,0.1096,0.017,0.011,0.011
2025-11-06 18:34:09.382,54.81,-0.41500000000000004,-0.139,-0.373,-0.153,-0.9560000000000001,-0.28700000000000003,69.89,-13.82,-72.31,0.7942,-0.5777,0.1529,0.10930000000000001,0.037,0.005,0.002
2025-11-06 18:34:09.382,54.815,-0.387,-0.147,-0.34900000000000003,-0.177,-0.9420000000000001,-0.289,69.89,-13.82,-72.31,0.795,-0.5765,0.1542,0.1081,0.057,-0.008,0.002
2025-11-06 18:34:09.382,54.82,-0.355,-0.147,-0.317,-0.20800000000000002,-0.931,-0.292,70.3,-13.91,-72.72,0.7959,-0.5750000000000001,0.1564,0.10600000000000001,0.082,-0.017,0.003
2025-11-06 18:34:09.382,54.825,-0.338,-0.14400000000000002,-0.28,-0.216,-0.9460000000000001,-0.298,70.3,-13.91,-72.72,0.7968000000000001,-0.5737,0.1585,0.1038,0.084,-0.001,0.007
2025-11-06 18:34:09.383,54.83,-0.341,-0.147,-0.253,-0.214,-0.936,-0.306,70.0,-13.56,-72.99,0.7978000000000001,-0.5720000000000001,0.1605,0.10200000000000001,0.076,-0.009000000000000001,0.013000000000000001
2025-11-06 18:34:09.383,54.835,-0.34900000000000003,-0.158,-0.231,-0.219,-0.93,-0.31,70.0,-13.56,-72.99,0.799,-0.5702,0.1625,0.10010000000000001,0.075,-0.013000000000000001,0.014
2025-11-06 18:34:09.383,54.84,-0.356,-0.163,-0.218,-0.20700000000000002,-0.929,-0.321,70.0,-13.56,-72.99,0.8002,-0.5682,0.16390000000000002,0.0988,0.058,-0.012,0.022
2025-11-06 18:34:09.385,54.845,-0.363,-0.146,-0.199,-0.202,-0.932,-0.338,70.3,-13.09,-73.51,0.8017000000000001,-0.5660000000000001,0.16490000000000002,0.09770000000000001,0.049,-0.007,0.034
2025-11-06 18:34:09.385,54.85,-0.356,-0.135,-0.185,-0.20500000000000002,-0.929,-0.34600000000000003,70.3,-13.09,-73.51,0.8034,-0.5636,0.1658,0.0966,0.049,-0.009000000000000001,0.038
2025-11-06 18:34:09.385,54.855,-0.35000000000000003,-0.147,-0.167,-0.20400000000000001,-0.912,-0.34800000000000003,69.8,-13.09,-73.42,0.805,-0.5611,0.1666,0.0956,0.044,-0.023,0.035
2025-11-06 18:34:09.385,54.86,-0.341,-0.149,-0.14200000000000002,-0.20700000000000002,-0.897,-0.342,69.8,-13.09,-73.42,0.8065,-0.5588000000000001,0.16770000000000002,0.0945,0.043000000000000003,-0.036000000000000004,0.025
2025-11-06 18:34:09.385,54.865,-0.325,-0.11800000000000001,-0.10200000000000001,-0.20500000000000002,-0.881,-0.357,69.95,-13.3,-73.45,0.8084,-0.5561,0.16840000000000002,0.0932,0.037,-0.049,0.034
2025-11-06 18:34:09.385,54.87,-0.331,-0.073,-0.061,-0.22,-0.885,-0.383,69.95,-13.3,-73.45,0.8108000000000001,-0.5528000000000001,0.1691,0.0913,0.048,-0.042,0.054
2025-11-06 18:34:09.385,54.875,-0.353,-0.036000000000000004,-0.031,-0.229,-0.884,-0.399,69.95,-13.3,-73.45,0.8134,-0.5491,0.16970000000000002,0.0892,0.052000000000000005,-0.039,0.061
2025-11-06 18:34:09.385,54.88,-0.38,-0.014,0.005,-0.234,-0.873,-0.403,69.97,-12.94,-73.10000000000001,0.8160000000000001,-0.5453,0.1705,0.08710000000000001,0.052000000000000005,-0.047,0.058
2025-11-06 18:34:09.385,54.885,-0.394,-0.023,0.036000000000000004,-0.232,-0.865,-0.394,69.97,-12.94,-73.10000000000001,0.8182,-0.542,0.1715,0.0853,0.045,-0.051000000000000004,0.042
2025-11-06 18:34:09.385,54.89,-0.41400000000000003,-0.046,0.08,-0.221,-0.858,-0.378,71.41,-12.71,-73.54,0.8199000000000001,-0.5393,0.17250000000000001,0.084,0.03,-0.055,0.02
2025-11-06 18:34:09.385,54.895,-0.43,-0.029,0.11900000000000001,-0.212,-0.858,-0.375,71.41,-12.71,-73.54,0.8214,-0.5369,0.17320000000000002,0.083,0.018000000000000002,-0.053,0.012
2025-11-06 18:34:09.385,54.9,-0.446,0.013000000000000001,0.158,-0.216,-0.852,-0.381,71.41,-12.71,-73.54,0.8230000000000001,-0.5344,0.1738,0.08170000000000001,0.018000000000000002,-0.055,0.014
2025-11-06 18:34:09.385,54.905,-0.462,0.063,0.202,-0.225,-0.8290000000000001,-0.404,70.15,-12.65,-73.42,0.8254,-0.531,0.1741,0.0796,0.023,-0.075,0.03
2025-11-06 18:34:09.385,54.91,-0.48,0.105,0.252,-0.23600000000000002,-0.792,-0.442,70.15,-12.65,-73.42,0.8290000000000001,-0.526,0.1738,0.0763,0.029,-0.107,0.058
2025-11-06 18:34:09.385,54.915,-0.507,0.117,0.297,-0.246,-0.783,-0.467,69.95,-12.86,-73.77,0.8329000000000001,-0.5203,0.1736,0.0726,0.034,-0.11,0.07100000000000001
2025-11-06 18:34:09.385,54.92,-0.517,0.117,0.337,-0.271,-0.778,-0.47800000000000004,69.95,-12.86,-73.77,0.8367,-0.5143,0.17470000000000002,0.0692,0.052000000000000005,-0.107,0.07100000000000001
2025-11-06 18:34:09.385,54.925,-0.507,0.114,0.381,-0.312,-0.736,-0.46,69.62,-12.83,-74.36,0.8399000000000001,-0.5078,0.1791,0.0668,0.082,-0.14200000000000002,0.042
2025-11-06 18:34:09.385,54.93,-0.47800000000000004,0.127,0.399,-0.364,-0.716,-0.406,69.62,-12.83,-74.36,0.8414,-0.5019,0.18860000000000002,0.0671,0.11800000000000001,-0.155,-0.017
2025-11-06 18:34:09.385,54.935,-0.482,0.177,0.367,-0.311,-0.739,-0.356,69.62,-12.83,-74.36,0.8413,-0.499,0.1957,0.0687,0.053,-0.127,-0.068
2025-11-06 18:34:09.385,54.94,-0.489,0.20800000000000002,0.327,-0.233,-0.797,-0.323,69.07000000000001,-12.86,-73.98,0.8401000000000001,-0.49970000000000003,0.19840000000000002,0.0713,-0.028,-0.069,-0.099
2025-11-06 18:34:09.385,54.945,-0.507,0.216,0.28400000000000003,-0.151,-0.856,-0.28200000000000003,69.07000000000001,-12.86,-73.98,0.8375,-0.5036,0.19770000000000001,0.0757,-0.105,-0.015,-0.134
2025-11-06 18:34:09.385,54.95,-0.542,0.252,0.23800000000000002,-0.08,-0.901,-0.24,69.16,-12.71,-74.39,0.8339000000000001,-0.5098,0.19460000000000002,0.0816,-0.164,0.021,-0.166
2025-11-06 18:34:09.385,54.955,-0.645,0.354,0.15,0.034,-0.926,-0.222,69.16,-12.71,-74.39,0.8302,-0.5176000000000001,0.18660000000000002,0.0883,-0.259,0.036000000000000004,-0.17300000000000001
2025-11-06 18:34:09.385,54.96,-0.765,0.502,0.094,0.07200000000000001,-0.9480000000000001,-0.267,69.16,-12.71,-74.39,0.8279000000000001,-0.5237,0.1766,0.0944,-0.272,0.05,-0.122
2025-11-06 18:34:09.385,54.965,-0.859,0.624,0.044,0.099,-0.973,-0.327,69.33,-12.89,-74.3,0.8270000000000001,-0.5275000000000001,0.16570000000000001,0.10060000000000001,-0.274,0.068,-0.06
2025-11-06 18:34:09.385,54.97,-0.925,0.679,0.012,0.107,-0.973,-0.38,69.33,-12.89,-74.3,0.8273,-0.5291,0.1554,0.10690000000000001,-0.257,0.065,-0.01
2025-11-06 18:34:09.385,54.975,-0.936,0.637,-0.012,0.10200000000000001,-0.9580000000000001,-0.40900000000000003,69.36,-13.3,-73.86,0.8280000000000001,-0.5292,0.14600000000000002,0.1131,-0.229,0.049,0.013000000000000001
2025-11-06 18:34:09.385,54.98,-0.906,0.481,-0.035,0.1,-0.9390000000000001,-0.382,69.36,-13.3,-73.86,0.8282,-0.5302,0.13720000000000002,0.11800000000000001,-0.20700000000000002,0.028,-0.017
2025-11-06 18:34:09.385,54.985,-0.889,0.37,-0.038,0.093,-0.926,-0.342,70.24,-12.74,-74.56,0.8278000000000001,-0.5325,0.1287,0.1206,-0.181,0.014,-0.057
2025-11-06 18:34:09.385,54.99,-0.878,0.28300000000000003,-0.032,0.092,-0.92,-0.327,70.24,-12.74,-74.56,0.8270000000000001,-0.5351,0.1207,0.12240000000000001,-0.164,0.006,-0.07100000000000001
2025-11-06 18:34:09.385,54.995,-0.857,0.244,-0.023,0.089,-0.905,-0.337,70.24,-12.74,-74.56,0.8266,-0.5367000000000001,0.1139,0.12480000000000001,-0.147,-0.01,-0.06
2025-11-06 18:34:09.385,55.0,-0.846,0.209,0.003,0.062,-0.91,-0.376,70.3,-12.83,-74.21000000000001,0.8269000000000001,-0.5365,0.1095,0.1279,-0.108,-0.005,-0.023
2025-11-06 18:34:09.385,55.005,-0.837,0.115,0.025,0.02,-0.9390000000000001,-0.371,70.3,-12.83,-74.21000000000001,0.8271000000000001,-0.5368,0.10600000000000001,0.1278,-0.059000000000000004,0.024,-0.029
2025-11-06 18:34:09.385,55.01,-0.8190000000000001,0.006,0.047,-0.023,-0.9430000000000001,-0.343,70.68,-12.94,-74.68,0.8271000000000001,-0.5383,0.1032,0.12390000000000001,-0.013000000000000001,0.027,-0.056
2025-11-06 18:34:09.385,55.015,-0.793,-0.066,0.056,-0.047,-0.9390000000000001,-0.312,70.68,-12.94,-74.68,0.8266,-0.5409,0.1005,0.11760000000000001,0.008,0.022,-0.083
2025-11-06 18:34:09.385,55.02,-0.77,-0.111,0.053,-0.07,-0.924,-0.29,70.68,-12.94,-74.68,0.8260000000000001,-0.5439,0.09820000000000001,0.10990000000000001,0.029,0.005,-0.099
2025-11-06 18:34:09.385,55.025,-0.766,-0.117,0.038,-0.099,-0.923,-0.306,69.95,-12.620000000000001,-74.51,0.8258000000000001,-0.5458000000000001,0.09720000000000001,0.10250000000000001,0.052000000000000005,0.002,-0.079
2025-11-06 18:34:09.386,55.03,-0.806,-0.08,0.018000000000000002,-0.116,-0.917,-0.34,69.95,-12.620000000000001,-74.51,0.8265,-0.5459,0.0974,0.09680000000000001,0.063,-0.004,-0.044
2025-11-06 18:34:09.386,55.035,-0.837,-0.011,-0.003,-0.126,-0.918,-0.354,69.51,-12.620000000000001,-74.94,0.8273,-0.5453,0.0978,0.0917,0.065,-0.002,-0.031
2025-11-06 18:34:09.386,55.04,-0.857,0.053,-0.025,-0.091,-0.914,-0.341,69.51,-12.620000000000001,-74.94,0.8278000000000001,-0.5453,0.09720000000000001,0.0886,0.027,-0.005,-0.044
2025-11-06 18:34:09.386,55.045,-0.882,0.112,-0.065,-0.076,-0.924,-0.328,69.8,-12.13,-75.79,0.8278000000000001,-0.5458000000000001,0.0961,0.08600000000000001,0.011,0.004,-0.056
2025-11-06 18:34:09.386,55.05,-0.885,0.151,-0.089,-0.059000000000000004,-0.934,-0.363,69.8,-12.13,-75.79,0.8284,-0.5452,0.095,0.08560000000000001,-0.004,0.014,-0.022
2025-11-06 18:34:09.387,55.055,-0.859,0.24,-0.11,-0.044,-0.935,-0.427,69.8,-12.13,-75.79,0.8301000000000001,-0.5424,0.09430000000000001,0.0878,-0.018000000000000002,0.017,0.035
2025-11-06 18:34:09.387,55.06,-0.809,0.382,-0.116,-0.045,-0.931,-0.453,69.92,-12.24,-76.9,0.8321000000000001,-0.5391,0.09340000000000001,0.09000000000000001,-0.013000000000000001,0.016,0.054
2025-11-06 18:34:09.387,55.065,-0.746,0.518,-0.109,-0.038,-0.916,-0.449,69.92,-12.24,-76.9,0.8339000000000001,-0.5361,0.0921,0.09190000000000001,-0.017,0.004,0.042
2025-11-06 18:34:09.387,55.07,-0.714,0.673,-0.094,-0.038,-0.893,-0.4,69.57000000000001,-11.78,-76.73,0.8349000000000001,-0.535,0.0901,0.092,-0.014,-0.016,-0.01
2025-11-06 18:34:09.387,55.075,-0.705,0.77,-0.079,-0.042,-0.877,-0.333,69.57000000000001,-11.78,-76.73,0.8346,-0.5362,0.0874,0.0897,-0.007,-0.033,-0.076
2025-11-06 18:34:09.387,55.08,-0.715,0.862,-0.068,-0.057,-0.869,-0.294,69.57000000000001,-11.78,-76.73,0.8337,-0.5388000000000001,0.0847,0.0854,0.008,-0.043000000000000003,-0.111
2025-11-06 18:34:09.387,55.085,-0.735,0.918,-0.073,-0.10200000000000001,-0.851,-0.276,71.7,-11.92,-76.49,0.8329000000000001,-0.5414,0.0828,0.0784,0.051000000000000004,-0.062,-0.124
2025-11-06 18:34:09.387,55.09,-0.806,0.874,-0.097,-0.096,-0.872,-0.28200000000000003,71.7,-11.92,-76.49,0.8321000000000001,-0.5437000000000001,0.081,0.0726,0.041,-0.043000000000000003,-0.113
2025-11-06 18:34:09.387,55.095,-0.868,0.6980000000000001,-0.12,-0.085,-0.865,-0.28600000000000003,71.03,-11.83,-75.29,0.8315,-0.5453,0.0795,0.0684,0.028,-0.052000000000000005,-0.106
2025-11-06 18:34:09.387,55.1,-0.903,0.626,-0.15,-0.075,-0.88,-0.324,71.03,-11.83,-75.29,0.8317,-0.5456,0.078,0.0659,0.017,-0.037,-0.067
2025-11-06 18:34:09.387,55.105,-0.9400000000000001,0.613,-0.177,-0.075,-0.885,-0.382,70.35000000000001,-11.31,-75.32000000000001,0.8332,-0.5438000000000001,0.0766,0.06420000000000001,0.018000000000000002,-0.03,-0.013000000000000001
2025-11-06 18:34:09.387,55.11,-0.981,0.634,-0.209,-0.093,-0.886,-0.438,70.35000000000001,-11.31,-75.32000000000001,0.8358,-0.5401,0.07540000000000001,0.062200000000000005,0.034,-0.027,0.035
2025-11-06 18:34:09.387,55.115,-1.0210000000000001,0.706,-0.23700000000000002,-0.084,-0.889,-0.442,70.35000000000001,-11.31,-75.32000000000001,0.8383,-0.5366000000000001,0.07390000000000001,0.060700000000000004,0.025,-0.019,0.031
2025-11-06 18:34:09.387,55.12,-1.044,0.6950000000000001,-0.262,-0.075,-0.878,-0.381,70.56,-10.99,-76.35000000000001,0.8394,-0.5353,0.0724,0.0592,0.017,-0.029,-0.034
2025-11-06 18:34:09.387,55.125,-1.087,0.678,-0.297,-0.082,-0.863,-0.322,70.56,-10.99,-76.35000000000001,0.8392000000000001,-0.5359,0.0712,0.057100000000000005,0.024,-0.044,-0.092
2025-11-06 18:34:09.387,55.13,-1.1340000000000001,0.645,-0.337,-0.079,-0.846,-0.315,70.71000000000001,-11.25,-76.17,0.8391000000000001,-0.5364,0.07010000000000001,0.0553,0.021,-0.061,-0.099
2025-11-06 18:34:09.387,55.135,-1.183,0.587,-0.374,-0.067,-0.8300000000000001,-0.34600000000000003,70.71000000000001,-11.25,-76.17,0.8399000000000001,-0.5354,0.06860000000000001,0.054400000000000004,0.01,-0.076,-0.07
2025-11-06 18:34:09.387,55.14,-1.187,0.552,-0.392,-0.039,-0.81,-0.354,71.55,-10.34,-76.76,0.8410000000000001,-0.5339,0.06670000000000001,0.0553,-0.015,-0.095,-0.065
2025-11-06 18:34:09.387,55.145,-1.195,0.544,-0.41200000000000003,-0.016,-0.78,-0.364,71.55,-10.34,-76.76,0.8425,-0.5317000000000001,0.0644,0.0575,-0.032,-0.123,-0.059000000000000004
2025-11-06 18:34:09.387,55.15,-1.215,0.549,-0.422,-0.023,-0.764,-0.40700000000000003,71.55,-10.34,-76.76,0.8451000000000001,-0.5276000000000001,0.0621,0.0589,-0.02,-0.136,-0.025
2025-11-06 18:34:09.387,55.155,-1.2630000000000001,0.499,-0.433,-0.01,-0.734,-0.47900000000000004,71.55,-9.73,-77.19,0.8494,-0.5206000000000001,0.059500000000000004,0.0614,-0.027,-0.158,0.033
2025-11-06 18:34:09.387,55.16,-1.2790000000000001,0.405,-0.435,-0.005,-0.723,-0.525,71.55,-9.73,-77.19,0.8544,-0.5123,0.057100000000000005,0.06420000000000001,-0.028,-0.161,0.061
2025-11-06 18:34:09.387,55.165,-1.276,0.378,-0.423,0.019,-0.712,-0.545,71.2,-9.200000000000001,-77.57000000000001,0.8593000000000001,-0.5039,0.0541,0.0679,-0.045,-0.163,0.063
2025-11-06 18:34:09.387,55.17,-1.283,0.389,-0.403,0.023,-0.7020000000000001,-0.531,71.2,-9.200000000000001,-77.57000000000001,0.8637,-0.4963,0.051000000000000004,0.0711,-0.042,-0.164,0.032
2025-11-06 18:34:09.387,55.175,-1.28,0.41100000000000003,-0.394,0.003,-0.671,-0.516,71.2,-9.200000000000001,-77.57000000000001,0.8677,-0.48900000000000005,0.0489,0.0734,-0.017,-0.186,0.003
2025-11-06 18:34:09.387,55.18,-1.296,0.41100000000000003,-0.422,-0.042,-0.632,-0.492,72.31,-9.03,-77.9,0.8716,-0.4818,0.049300000000000004,0.0747,0.029,-0.216,-0.034
2025-11-06 18:34:09.387,55.185,-1.312,0.396,-0.443,-0.077,-0.63,-0.496,72.31,-9.03,-77.9,0.8753000000000001,-0.4748,0.0514,0.0755,0.059000000000000004,-0.21,-0.043000000000000003
2025-11-06 18:34:09.387,55.19,-1.349,0.379,-0.47100000000000003,-0.129,-0.656,-0.521,71.52,-8.18,-78.16,0.8786,-0.46790000000000004,0.056,0.076,0.10400000000000001,-0.17500000000000002,-0.031
2025-11-06 18:34:09.387,55.195,-1.372,0.362,-0.501,-0.177,-0.667,-0.533,71.52,-8.18,-78.16,0.8817,-0.4612,0.0627,0.0766,0.14100000000000001,-0.156,-0.03
2025-11-06 18:34:09.387,55.2,-1.3940000000000001,0.325,-0.532,-0.214,-0.682,-0.519,72.28,-7.51,-78.69,0.8839,-0.4555,0.0709,0.0775,0.163,-0.135,-0.053
2025-11-06 18:34:09.387,55.205,-1.423,0.254,-0.558,-0.231,-0.6920000000000001,-0.514,72.28,-7.51,-78.69,0.8856,-0.4506,0.0795,0.0787,0.165,-0.11900000000000001,-0.064
2025-11-06 18:34:09.387,55.21,-1.437,0.23,-0.5750000000000001,-0.24,-0.7030000000000001,-0.484,72.28,-7.51,-78.69,0.8863000000000001,-0.4471,0.0887,0.081,0.158,-0.10400000000000001,-0.099
2025-11-06 18:34:09.387,55.215,-1.457,0.258,-0.604,-0.23600000000000002,-0.7010000000000001,-0.439,72.66,-7.33,-78.89,0.8859,-0.44530000000000003,0.09820000000000001,0.0847,0.14,-0.10300000000000001,-0.14400000000000002
2025-11-06 18:34:09.387,55.22,-1.498,0.28300000000000003,-0.629,-0.231,-0.7020000000000001,-0.425,72.66,-7.33,-78.89,0.8851,-0.444,0.10690000000000001,0.0886,0.123,-0.10200000000000001,-0.157
2025-11-06 18:34:09.387,55.225,-1.5310000000000001,0.298,-0.674,-0.201,-0.683,-0.466,72.43,-6.92,-79.39,0.8858,-0.44110000000000005,0.1116,0.0901,0.084,-0.11900000000000001,-0.11800000000000001
2025-11-06 18:34:09.387,55.23,-1.54,0.318,-0.706,-0.12,-0.6920000000000001,-0.488,72.43,-6.92,-79.39,0.8869,-0.4385,0.1116,0.0927,0.003,-0.107,-0.1
2025-11-06 18:34:09.387,55.235,-1.555,0.368,-0.711,-0.062,-0.683,-0.56,72.43,-6.92,-79.39,0.8897,-0.43410000000000004,0.1063,0.0925,-0.048,-0.11,-0.037
2025-11-06 18:34:09.387,55.24,-1.571,0.396,-0.716,-0.049,-0.676,-0.645,73.01,-5.96,-79.74,0.8941,-0.42750000000000005,0.09870000000000001,0.0892,-0.052000000000000005,-0.108,0.034
2025-11-06 18:34:09.387,55.245,-1.6320000000000001,0.365,-0.721,-0.03,-0.663,-0.667,73.01,-5.96,-79.74,0.8986000000000001,-0.42050000000000004,0.09050000000000001,0.0858,-0.062,-0.11,0.041
2025-11-06 18:34:09.387,55.25,-1.681,0.294,-0.717,-0.062,-0.645,-0.607,72.99,-5.84,-80.44,0.9018,-0.4147,0.0863,0.085,-0.024,-0.11900000000000001,-0.031
2025-11-06 18:34:09.387,55.255,-1.686,0.202,-0.723,-0.048,-0.627,-0.598,72.99,-5.84,-80.44,0.9047000000000001,-0.4092,0.0821,0.0845,-0.032,-0.129,-0.05
2025-11-06 18:34:09.387,55.26,-1.6560000000000001,0.111,-0.733,-0.018000000000000002,-0.63,-0.618,72.96000000000001,-4.58,-80.35000000000001,0.9076000000000001,-0.40390000000000004,0.0767,0.08420000000000001,-0.055,-0.11800000000000001,-0.04
2025-11-06 18:34:09.387,55.265,-1.666,0.061,-0.743,0.013000000000000001,-0.632,-0.653,72.96000000000001,-4.58,-80.35000000000001,0.9108,-0.3981,0.0699,0.0835,-0.076,-0.106,-0.017
2025-11-06 18:34:09.387,55.27,-1.696,0.044,-0.78,-0.036000000000000004,-0.654,-0.618,72.96000000000001,-4.58,-80.35000000000001,0.9125000000000001,-0.3941,0.06760000000000001,0.08510000000000001,-0.02,-0.077,-0.059000000000000004
2025-11-06 18:34:09.387,55.275,-1.712,0.001,-0.795,-0.073,-0.669,-0.5710000000000001,72.63,-3.77,-81.73,0.913,-0.3921,0.0687,0.0886,0.017,-0.058,-0.111
2025-11-06 18:34:09.387,55.28,-1.702,-0.056,-0.8220000000000001,-0.085,-0.681,-0.527,72.63,-3.77,-81.73,0.9124,-0.3919,0.07150000000000001,0.09340000000000001,0.028,-0.047,-0.155
2025-11-06 18:34:09.387,55.285,-1.719,-0.074,-0.869,-0.10200000000000001,-0.708,-0.507,72.96000000000001,-2.92,-80.91,0.911,-0.3929,0.0756,0.099,0.043000000000000003,-0.022,-0.17300000000000001
2025-11-06 18:34:09.387,55.29,-1.729,-0.056,-0.888,-0.131,-0.734,-0.538,72.96000000000001,-2.92,-80.91,0.91,-0.3931,0.08020000000000001,0.1038,0.068,0.002,-0.14
2025-11-06 18:34:09.387,55.295,-1.776,-0.015,-0.911,-0.152,-0.749,-0.519,72.96000000000001,-2.92,-80.91,0.9085000000000001,-0.3941,0.0857,0.1087,0.083,0.015,-0.155
2025-11-06 18:34:09.387,55.3,-1.821,0.047,-0.918,-0.14,-0.738,-0.46900000000000003,73.31,-2.39,-82.02,0.9063,-0.39630000000000004,0.0911,0.11460000000000001,0.066,0.0,-0.2
2025-11-06 18:34:09.387,55.305,-1.846,0.126,-0.926,-0.165,-0.721,-0.47800000000000004,73.31,-2.39,-82.02,0.9048,-0.39740000000000003,0.09630000000000001,0.11810000000000001,0.08600000000000001,-0.02,-0.187
2025-11-06 18:34:09.387,55.31,-1.845,0.156,-0.924,-0.185,-0.6930000000000001,-0.555,73.51,-1.69,-82.19,0.9056000000000001,-0.3951,0.09970000000000001,0.11750000000000001,0.099,-0.046,-0.111
2025-11-06 18:34:09.387,55.315,-1.901,0.17,-0.892,-0.146,-0.668,-0.5700000000000001,73.51,-1.69,-82.19,0.9067000000000001,-0.3919,0.101,0.11800000000000001,0.056,-0.067,-0.1
2025-11-06 18:34:09.387,55.32,-1.936,0.266,-0.88,-0.12,-0.631,-0.552,74.71000000000001,-1.37,-82.11,0.908,-0.3886,0.1013,0.1192,0.029,-0.099,-0.123
2025-11-06 18:34:09.387,55.325,-1.975,0.44,-0.87,-0.113,-0.615,-0.5660000000000001,74.71000000000001,-1.37,-82.11,0.9097000000000001,-0.3846,0.1005,0.1197,0.022,-0.109,-0.115
2025-11-06 18:34:09.387,55.33,-2.023,0.54,-0.863,-0.111,-0.5650000000000001,-0.615,74.71000000000001,-1.37,-82.11,0.9132,-0.3778,0.0975,0.1168,0.02,-0.15,-0.076
2025-11-06 18:34:09.387,55.335,-2.0180000000000002,0.546,-0.856,-0.062,-0.515,-0.552,74.13,0.29,-83.36,0.9159,-0.37220000000000003,0.0937,0.11710000000000001,-0.023,-0.19,-0.15
2025-11-06 18:34:09.387,55.34,-1.98,0.56,-0.866,-0.018000000000000002,-0.502,-0.5660000000000001,74.13,0.29,-83.36,0.9186000000000001,-0.3664,0.0879,0.11860000000000001,-0.059000000000000004,-0.193,-0.146
2025-11-06 18:34:09.387,55.345,-1.977,0.597,-0.883,0.014,-0.507,-0.632,74.18,1.25,-83.04,0.9219,-0.35950000000000004,0.08020000000000001,0.1198,-0.08,-0.177,-0.092
2025-11-06 18:34:09.387,55.35,-1.984,0.602,-0.866,0.02,-0.49,-0.674,74.18,1.25,-83.04,0.9257000000000001,-0.3513,0.0723,0.1198,-0.073,-0.18,-0.064
2025-11-06 18:34:09.387,55.355,-1.994,0.5720000000000001,-0.888,0.024,-0.505,-0.667,74.18,1.25,-83.04,0.9286000000000001,-0.34450000000000003,0.0653,0.12090000000000001,-0.065,-0.152,-0.083
2025-11-06 18:34:09.387,55.36,-1.994,0.598,-0.889,0.007,-0.484,-0.6960000000000001,74.15,2.3000000000000003,-83.19,0.9319000000000001,-0.3366,0.0594,0.1212,-0.038,-0.16,-0.066
2025-11-06 18:34:09.387,55.365,-2.012,0.56,-0.921,0.046,-0.494,-0.746,74.15,2.3000000000000003,-83.19,0.9351,-0.3285,0.052000000000000005,0.1218,-0.067,-0.136,-0.028
2025-11-06 18:34:09.387,55.37,-1.993,0.499,-0.933,0.097,-0.513,-0.812,74.56,3.06,-83.07000000000001,0.9382,-0.3206,0.0432,0.1228,-0.10400000000000001,-0.10200000000000001,0.024
2025-11-06 18:34:09.387,55.375,-1.994,0.486,-0.9560000000000001,0.097,-0.5720000000000001,-0.853,74.56,3.06,-83.07000000000001,0.9404,-0.3143,0.0359,0.12430000000000001,-0.089,-0.03,0.055
2025-11-06 18:34:09.387,55.38,-2.033,0.47900000000000004,-0.9570000000000001,0.105,-0.645,-0.869,74.53,4.64,-83.60000000000001,0.9417000000000001,-0.3103,0.029500000000000002,0.1259,-0.08600000000000001,0.052000000000000005,0.064
2025-11-06 18:34:09.387,55.385,-2.068,0.457,-0.932,0.097,-0.714,-0.838,74.53,4.64,-83.60000000000001,0.9420000000000001,-0.30920000000000003,0.0246,0.12760000000000002,-0.067,0.124,0.031
2025-11-06 18:34:09.387,55.39,-2.091,0.445,-0.914,0.047,-0.721,-0.8230000000000001,74.53,4.64,-83.60000000000001,0.9421,-0.3085,0.0222,0.129,-0.011,0.133,0.014
2025-11-06 18:34:09.387,55.395,-2.115,0.445,-0.883,0.015,-0.725,-0.8220000000000001,74.39,5.61,-83.39,0.9422,-0.3078,0.021400000000000002,0.1302,0.023,0.139,0.012
2025-11-06 18:34:09.387,55.4,-2.099,0.46,-0.8260000000000001,-0.028,-0.7030000000000001,-0.781,74.39,5.61,-83.39,0.9422,-0.3073,0.022500000000000003,0.1308,0.066,0.11800000000000001,-0.028
2025-11-06 18:34:09.387,55.405,-2.086,0.547,-0.758,-0.065,-0.635,-0.725,75.0,6.54,-84.41,0.9426,-0.3062,0.024900000000000002,0.1305,0.1,0.051000000000000004,-0.085
2025-11-06 18:34:09.387,55.41,-2.095,0.603,-0.6980000000000001,-0.066,-0.59,-0.7000000000000001,75.0,6.54,-84.41,0.9432,-0.3044,0.027100000000000003,0.1301,0.095,0.008,-0.112
2025-11-06 18:34:09.387,55.415,-2.093,0.645,-0.641,-0.054,-0.549,-0.731,75.0,6.54,-84.41,0.9445,-0.3005,0.028,0.1293,0.08,-0.027,-0.085
2025-11-06 18:34:09.387,55.42,-2.064,0.71,-0.583,0.006,-0.523,-0.767,75.7,6.95,-83.68,0.9461,-0.29550000000000004,0.026000000000000002,0.1296,0.02,-0.044,-0.054
2025-11-06 18:34:09.387,55.425,-1.931,0.798,-0.513,0.12,-0.512,-0.977,75.7,6.95,-83.68,0.9487000000000001,-0.2871,0.019100000000000002,0.1308,-0.084,-0.041,0.145
2025-11-06 18:34:09.387,55.43,-1.7850000000000001,0.803,-0.461,0.196,-0.541,-1.165,76.9,7.6000000000000005,-84.33,0.9513,-0.278,0.0108,0.1322,-0.147,0.005,0.322
2025-11-06 18:34:09.387,55.435,-1.748,0.767,-0.419,0.28,-0.59,-1.301,76.9,7.6000000000000005,-84.33,0.9535,-0.2696,0.0016,0.134,-0.214,0.07100000000000001,0.449
2025-11-06 18:34:09.387,55.44,-1.7630000000000001,0.765,-0.371,0.295,-0.623,-1.302,75.82000000000001,8.59,-83.07000000000001,0.9552,-0.2627,-0.007,0.13540000000000002,-0.215,0.11900000000000001,0.442
2025-11-06 18:34:09.387,55.445,-1.73,0.7030000000000001,-0.319,0.296,-0.634,-1.207,75.82000000000001,8.59,-83.07000000000001,0.9563,-0.258,-0.0152,0.1361,-0.2,0.14300000000000002,0.342
2025-11-06 18:34:09.387,55.45,-1.578,0.584,-0.251,0.311,-0.643,-1.147,75.82000000000001,8.59,-83.07000000000001,0.9569000000000001,-0.2551,-0.023100000000000002,0.1361,-0.201,0.159,0.279
2025-11-06 18:34:09.387,55.455,-1.477,0.5670000000000001,-0.22,0.313,-0.6910000000000001,-1.18,75.79,9.700000000000001,-83.8,0.9573,-0.2534,-0.030000000000000002,0.1355,-0.19,0.213,0.31
2025-11-06 18:34:09.387,55.46,-1.401,0.52,-0.194,0.256,-0.771,-1.24,75.79,9.700000000000001,-83.8,0.9575,-0.2528,-0.0339,0.13390000000000002,-0.124,0.295,0.37
2025-11-06 18:34:09.387,55.465,-1.358,0.422,-0.14100000000000001,0.249,-0.811,-1.307,77.34,9.700000000000001,-84.56,0.9578000000000001,-0.2523,-0.0367,0.1322,-0.113,0.337,0.437
2025-11-06 18:34:09.387,55.47,-1.284,0.35000000000000003,-0.065,0.27,-0.81,-1.363,77.34,9.700000000000001,-84.56,0.9581000000000001,-0.25120000000000003,-0.039400000000000004,0.1311,-0.13,0.339,0.493
2025-11-06 18:34:09.387,55.475,-1.196,0.32,-0.012,0.312,-0.8140000000000001,-1.348,76.58,10.58,-84.36,0.9583,-0.25070000000000003,-0.0429,0.1298,-0.166,0.34500000000000003,0.47700000000000004
2025-11-06 18:34:09.387,55.48,-1.081,0.28700000000000003,0.019,0.36,-0.8160000000000001,-1.299,76.58,10.58,-84.36,0.9581000000000001,-0.2514,-0.0475,0.1285,-0.20700000000000002,0.34700000000000003,0.43
2025-11-06 18:34:09.387,55.485,-0.982,0.27,0.041,0.397,-0.791,-1.235,76.58,10.58,-84.36,0.9576,-0.2526,-0.0529,0.1275,-0.234,0.32,0.368
2025-11-06 18:34:09.387,55.49,-0.915,0.249,0.06,0.45,-0.73,-1.195,76.46000000000001,10.64,-84.18,0.9569000000000001,-0.25320000000000004,-0.0596,0.1283,-0.275,0.26,0.33
2025-11-06 18:34:09.387,55.495,-0.793,0.225,0.106,0.47200000000000003,-0.606,-1.18,76.46000000000001,10.64,-84.18,0.9564,-0.2513,-0.0663,0.1326,-0.28200000000000003,0.14100000000000001,0.315
2025-11-06 18:34:09.387,55.5,-0.708,0.197,0.14,0.503,-0.54,-1.182,76.43,10.31,-83.63,0.9558000000000001,-0.24810000000000001,-0.0732,0.1389,-0.297,0.083,0.316
2025-11-06 18:34:09.387,55.505,-0.623,0.159,0.171,0.504,-0.51,-1.186,76.43,10.31,-83.63,0.9553,-0.2446,-0.0794,0.1452,-0.28500000000000003,0.063,0.318
2025-11-06 18:34:09.387,55.51,-0.549,0.162,0.201,0.48,-0.468,-1.161,76.43,10.31,-83.63,0.9548000000000001,-0.24080000000000001,-0.0848,0.1517,-0.248,0.031,0.291
2025-11-06 18:34:09.387,55.515,-0.483,0.2,0.241,0.47200000000000003,-0.436,-1.149,76.58,10.4,-84.09,0.9544,-0.23670000000000002,-0.0898,0.15810000000000002,-0.228,0.01,0.277
2025-11-06 18:34:09.387,55.52,-0.424,0.213,0.28700000000000003,0.461,-0.436,-1.167,76.58,10.4,-84.09,0.9540000000000001,-0.2328,-0.09390000000000001,0.1636,-0.20800000000000002,0.02,0.293
2025-11-06 18:34:09.387,55.525,-0.359,0.2,0.314,0.439,-0.439,-1.162,76.46000000000001,10.69,-83.98,0.9537,-0.2296,-0.0971,0.16790000000000002,-0.178,0.031,0.28700000000000003
2025-11-06 18:34:09.387,55.53,-0.295,0.17,0.336,0.426,-0.442,-1.117,76.46000000000001,10.69,-83.98,0.9535,-0.2273,-0.1003,0.17020000000000002,-0.159,0.041,0.24
2025-11-06 18:34:09.387,55.535,-0.247,0.153,0.358,0.398,-0.463,-1.065,77.14,10.72,-83.71000000000001,0.9535,-0.2265,-0.10310000000000001,0.1698,-0.126,0.066,0.189
2025-11-06 18:34:09.387,55.54,-0.181,0.17200000000000001,0.401,0.372,-0.47200000000000003,-1.063,77.14,10.72,-83.71000000000001,0.9535,-0.22610000000000002,-0.1047,0.1689,-0.096,0.076,0.187
2025-11-06 18:34:09.387,55.545,-0.146,0.14400000000000002,0.424,0.377,-0.466,-1.111,77.14,10.72,-83.71000000000001,0.9536,-0.225,-0.1057,0.1695,-0.099,0.07100000000000001,0.23500000000000001
2025-11-06 18:34:09.387,55.55,-0.094,0.07200000000000001,0.449,0.355,-0.41400000000000003,-1.169,76.93,10.58,-83.98,0.9536,-0.222,-0.1047,0.1739,-0.077,0.026000000000000002,0.29
2025-11-06 18:34:09.387,55.555,-0.037,0.037,0.463,0.34500000000000003,-0.447,-1.177,76.93,10.58,-83.98,0.9537,-0.22010000000000002,-0.10350000000000001,0.1764,-0.069,0.063,0.296
2025-11-06 18:34:09.387,55.56,0.005,0.035,0.493,0.309,-0.395,-1.1380000000000001,76.17,10.81,-83.57000000000001,0.9539000000000001,-0.21730000000000002,-0.1014,0.18030000000000002,-0.036000000000000004,0.016,0.254
2025-11-06 18:34:09.387,55.565,0.036000000000000004,0.049,0.504,0.28400000000000003,-0.388,-1.096,76.17,10.81,-83.57000000000001,0.9540000000000001,-0.215,-0.09920000000000001,0.18330000000000002,-0.015,0.013000000000000001,0.20800000000000002
2025-11-06 18:34:09.387,55.57,0.049,0.074,0.504,0.291,-0.31,-1.04,76.17,10.81,-83.57000000000001,0.9541000000000001,-0.2111,-0.0981,0.1879,-0.024,-0.057,0.149
2025-11-06 18:34:09.387,55.575,0.088,0.13,0.46900000000000003,0.277,-0.332,-0.98,76.26,10.46,-83.8,0.9542,-0.2091,-0.0975,0.19,-0.011,-0.03,0.08700000000000001
2025-11-06 18:34:09.387,55.58,0.112,0.21,0.447,0.246,-0.316,-0.985,76.26,10.46,-83.8,0.9543,-0.2066,-0.09570000000000001,0.1933,0.017,-0.042,0.09
2025-11-06 18:34:09.387,55.585,0.176,0.324,0.445,0.183,-0.304,-0.973,76.26,9.9,-83.54,0.9543,-0.2039,-0.0915,0.19790000000000002,0.074,-0.049,0.074
2025-11-06 18:34:09.387,55.59,0.189,0.431,0.453,0.14400000000000002,-0.281,-0.922,76.26,9.9,-83.54,0.9544,-0.2011,-0.0867,0.2026,0.10400000000000001,-0.068,0.019
2025-11-06 18:34:09.387,55.595,0.178,0.544,0.45,0.135,-0.256,-0.834,76.35000000000001,9.82,-83.10000000000001,0.9545,-0.1986,-0.0829,0.20620000000000002,0.106,-0.089,-0.07200000000000001
2025-11-06 18:34:09.387,55.6,0.168,0.632,0.43,0.146,-0.21,-0.732,76.35000000000001,9.82,-83.10000000000001,0.9547,-0.1958,-0.0816,0.20850000000000002,0.091,-0.13,-0.176
2025-11-06 18:34:09.393,55.605,0.176,0.739,0.373,0.194,-0.137,-0.681,76.35000000000001,9.82,-83.10000000000001,0.9554,-0.1905,-0.08560000000000001,0.20850000000000002,0.047,-0.193,-0.23
2025-11-06 18:34:09.394,55.61,0.212,0.798,0.309,0.215,-0.106,-0.719,76.87,9.47,-82.92,0.9562,-0.18380000000000002,-0.0906,0.20850000000000002,0.032,-0.211,-0.195
2025-11-06 18:34:09.394,55.615,0.234,0.801,0.251,0.229,-0.093,-0.771,76.87,9.47,-82.92,0.9570000000000001,-0.1767,-0.09530000000000001,0.2091,0.025,-0.209,-0.147
2025-11-06 18:34:09.394,55.62,0.233,0.773,0.2,0.252,-0.105,-0.8190000000000001,76.9,9.58,-82.72,0.9576,-0.1705,-0.1,0.2094,0.008,-0.183,-0.101
2025-11-06 18:34:09.394,55.625,0.23900000000000002,0.719,0.162,0.296,-0.112,-0.811,76.9,9.58,-82.72,0.9583,-0.16540000000000002,-0.10700000000000001,0.2064,-0.026000000000000002,-0.163,-0.11
2025-11-06 18:34:09.394,55.63,0.231,0.609,0.116,0.34900000000000003,-0.114,-0.739,76.9,9.58,-82.72,0.9595,-0.1615,-0.11810000000000001,0.198,-0.063,-0.15,-0.18
2025-11-06 18:34:09.394,55.635,0.216,0.532,0.079,0.38,-0.113,-0.666,77.11,9.32,-82.46000000000001,0.9606,-0.1585,-0.1321,0.1857,-0.073,-0.14400000000000002,-0.249
2025-11-06 18:34:09.394,55.64,0.197,0.48,0.039,0.40800000000000003,-0.14400000000000002,-0.635,77.11,9.32,-82.46000000000001,0.9614,-0.1573,-0.14700000000000002,0.1709,-0.077,-0.108,-0.273
2025-11-06 18:34:09.394,55.645,0.181,0.47100000000000003,0.009000000000000001,0.386,-0.227,-0.607,77.19,9.52,-81.99,0.9617,-0.16040000000000001,-0.15940000000000001,0.15430000000000002,-0.034,-0.029,-0.292
2025-11-06 18:34:09.394,55.65,0.168,0.484,-0.02,0.435,-0.218,-0.592,77.19,9.52,-81.99,0.9613,-0.1626,-0.17370000000000002,0.1383,-0.061,-0.044,-0.296
2025-11-06 18:34:09.394,55.655,0.161,0.484,-0.044,0.454,-0.24,-0.602,77.78,9.67,-81.93,0.9604,-0.1651,-0.1869,0.12380000000000001,-0.059000000000000004,-0.029,-0.275
2025-11-06 18:34:09.394,55.66,0.113,0.483,-0.07100000000000001,0.45,-0.28,-0.668,77.78,9.67,-81.93,0.9595,-0.16790000000000002,-0.1962,0.1124,-0.039,0.003,-0.199
2025-11-06 18:34:09.394,55.665,0.049,0.497,-0.096,0.41500000000000004,-0.3,-0.757,77.78,9.67,-81.93,0.9590000000000001,-0.1699,-0.20020000000000002,0.1063,0.003,0.017,-0.105
2025-11-06 18:34:09.394,55.67,-0.006,0.47400000000000003,-0.10400000000000001,0.338,-0.294,-0.87,77.49,9.790000000000001,-81.52,0.9593,-0.1704,-0.1976,0.1078,0.079,0.009000000000000001,0.007
2025-11-06 18:34:09.394,55.675,-0.093,0.37,-0.1,0.275,-0.28300000000000003,-0.928,77.49,9.790000000000001,-81.52,0.9600000000000001,-0.17,-0.19090000000000001,0.1135,0.132,0.0,0.06
2025-11-06 18:34:09.394,55.68,-0.138,0.275,-0.096,0.23,-0.28,-0.905,77.22,10.02,-81.26,0.9609000000000001,-0.1696,-0.18280000000000002,0.1194,0.165,-0.002,0.031
2025-11-06 18:34:09.394,55.685,-0.17,0.20500000000000002,-0.107,0.214,-0.257,-0.873,77.22,10.02,-81.26,0.9618000000000001,-0.16870000000000002,-0.1749,0.1254,0.167,-0.024,-0.006
2025-11-06 18:34:09.394,55.69,-0.20600000000000002,0.17400000000000002,-0.134,0.20700000000000002,-0.25,-0.85,77.22,10.02,-81.26,0.9626,-0.16770000000000002,-0.16770000000000002,0.1307,0.162,-0.028,-0.035
2025-11-06 18:34:09.394,55.695,-0.242,0.164,-0.17,0.186,-0.233,-0.843,77.66,9.61,-81.08,0.9633,-0.1661,-0.16010000000000002,0.1364,0.171,-0.043000000000000003,-0.048
2025-11-06 18:34:09.394,55.7,-0.256,0.125,-0.191,0.163,-0.24,-0.854,77.66,9.61,-81.08,0.9641000000000001,-0.1646,-0.1519,0.1421,0.18,-0.034,-0.043000000000000003
2025-11-06 18:34:09.394,55.705,-0.258,0.064,-0.20600000000000002,0.149,-0.24,-0.867,77.49,10.05,-81.84,0.9648,-0.163,-0.1436,0.14750000000000002,0.179,-0.032,-0.036000000000000004
2025-11-06 18:34:09.394,55.71,-0.267,0.017,-0.217,0.14200000000000002,-0.25,-0.881,77.49,10.05,-81.84,0.9655,-0.1617,-0.13540000000000002,0.1524,0.17200000000000001,-0.02,-0.028
2025-11-06 18:34:09.395,55.715,-0.309,-0.011,-0.223,0.145,-0.262,-0.875,77.95,9.58,-81.43,0.9660000000000001,-0.16090000000000002,-0.128,0.1565,0.155,-0.008,-0.039
2025-11-06 18:34:09.395,55.72,-0.372,-0.069,-0.23,0.149,-0.27,-0.872,77.95,9.58,-81.43,0.9663,-0.16040000000000001,-0.12140000000000001,0.16010000000000002,0.139,0.0,-0.045
2025-11-06 18:34:09.395,55.725,-0.375,-0.093,-0.222,0.153,-0.28300000000000003,-0.872,77.95,9.58,-81.43,0.9665,-0.16040000000000001,-0.1153,0.1633,0.124,0.011,-0.048
2025-11-06 18:34:09.395,55.73,-0.352,-0.082,-0.21,0.159,-0.289,-0.878,77.4,10.4,-82.25,0.9666,-0.1607,-0.11,0.1661,0.109,0.015,-0.044
2025-11-06 18:34:09.395,55.735,-0.3,-0.075,-0.187,0.148,-0.303,-0.924,77.4,10.4,-82.25,0.9668,-0.16090000000000002,-0.1044,0.16870000000000002,0.11,0.028,-0.001
2025-11-06 18:34:09.396,55.74,-0.225,-0.121,-0.128,0.154,-0.323,-1.022,77.31,9.58,-81.52,0.9670000000000001,-0.16060000000000002,-0.0988,0.17070000000000002,0.093,0.046,0.094
2025-11-06 18:34:09.396,55.745,-0.203,-0.178,-0.088,0.152,-0.324,-1.018,77.31,9.58,-81.52,0.9673,-0.1605,-0.0935,0.17250000000000001,0.08600000000000001,0.046,0.088
2025-11-06 18:34:09.396,55.75,-0.20700000000000002,-0.189,-0.04,0.168,-0.342,-0.973,77.31,9.58,-81.52,0.9671000000000001,-0.16190000000000002,-0.0891,0.17470000000000002,0.062,0.061,0.042
2025-11-06 18:34:09.396,55.755,-0.20600000000000002,-0.177,0.01,0.17300000000000001,-0.34900000000000003,-0.933,77.43,10.11,-81.93,0.9666,-0.164,-0.0854,0.1771,0.051000000000000004,0.063,0.002
2025-11-06 18:34:09.396,55.76,-0.187,-0.154,0.075,0.17,-0.34400000000000003,-0.9560000000000001,77.43,10.11,-81.93,0.9664,-0.16540000000000002,-0.0819,0.17850000000000002,0.048,0.054,0.025
2025-11-06 18:34:09.396,55.765,-0.17300000000000001,-0.136,0.127,0.155,-0.343,-1.026,77.87,10.26,-82.11,0.9666,-0.1655,-0.0781,0.17880000000000001,0.056,0.051000000000000004,0.093
2025-11-06 18:34:09.396,55.77,-0.159,-0.13,0.165,0.137,-0.34800000000000003,-1.048,77.87,10.26,-82.11,0.9670000000000001,-0.16540000000000002,-0.0738,0.17880000000000001,0.066,0.055,0.114
2025-11-06 18:34:09.396,55.775,-0.139,-0.149,0.2,0.113,-0.34,-1.028,76.9,10.14,-82.54,0.9674,-0.1651,-0.06910000000000001,0.17850000000000002,0.081,0.045,0.092
2025-11-06 18:34:09.396,55.78,-0.133,-0.159,0.223,0.108,-0.333,-0.996,76.9,10.14,-82.54,0.9678,-0.165,-0.0646,0.17830000000000001,0.077,0.037,0.059000000000000004
2025-11-06 18:34:09.396,55.785,-0.134,-0.128,0.227,0.092,-0.31,-0.9560000000000001,76.9,10.14,-82.54,0.9683,-0.16440000000000002,-0.0603,0.17750000000000002,0.084,0.013000000000000001,0.018000000000000002
2025-11-06 18:34:09.396,55.79,-0.126,-0.064,0.221,0.084,-0.29,-0.922,77.17,9.700000000000001,-82.37,0.9689000000000001,-0.1635,-0.056400000000000006,0.1763,0.084,-0.006,-0.017
2025-11-06 18:34:09.396,55.795,-0.11,-0.01,0.214,0.074,-0.278,-0.89,77.17,9.700000000000001,-82.37,0.9695,-0.1625,-0.0526,0.1751,0.08600000000000001,-0.018000000000000002,-0.05
2025-11-06 18:34:09.396,55.8,-0.099,0.029,0.20600000000000002,0.069,-0.276,-0.875,78.10000000000001,9.93,-82.31,0.9700000000000001,-0.1618,-0.049100000000000005,0.1741,0.084,-0.02,-0.067
2025-11-06 18:34:09.396,55.805,-0.10400000000000001,0.061,0.193,0.074,-0.269,-0.863,78.10000000000001,9.93,-82.31,0.9705,-0.16110000000000002,-0.0463,0.17300000000000001,0.07200000000000001,-0.027,-0.08
2025-11-06 18:34:09.396,55.81,-0.124,0.114,0.17,0.084,-0.266,-0.851,77.46000000000001,9.76,-82.89,0.9708,-0.16040000000000001,-0.0444,0.17220000000000002,0.057,-0.03,-0.092
2025-11-06 18:34:09.396,55.815,-0.137,0.14100000000000001,0.145,0.099,-0.26,-0.8150000000000001,77.46000000000001,9.76,-82.89,0.9709000000000001,-0.1603,-0.043500000000000004,0.1719,0.04,-0.035,-0.128
2025-11-06 18:34:09.396,55.82,-0.137,0.187,0.124,0.114,-0.252,-0.79,77.46000000000001,9.76,-82.89,0.9710000000000001,-0.1603,-0.0438,0.1718,0.025,-0.043000000000000003,-0.154
2025-11-06 18:34:09.397,55.825,-0.132,0.22,0.099,0.13,-0.248,-0.799,77.37,10.08,-82.19,0.9710000000000001,-0.16010000000000002,-0.0449,0.1714,0.011,-0.046,-0.145
2025-11-06 18:34:09.397,55.83,-0.131,0.23600000000000002,0.066,0.148,-0.269,-0.846,77.37,10.08,-82.19,0.9709000000000001,-0.1603,-0.046400000000000004,0.1715,-0.004,-0.025,-0.098
2025-11-06 18:34:09.397,55.835,-0.127,0.219,0.05,0.17,-0.292,-0.886,77.57000000000001,10.08,-81.75,0.9706,-0.161,-0.0482,0.1721,-0.022,-0.003,-0.056
2025-11-06 18:34:09.397,55.84,-0.117,0.187,0.042,0.198,-0.318,-0.925,77.57000000000001,10.08,-81.75,0.9700000000000001,-0.1623,-0.0504,0.1731,-0.045,0.02,-0.017
2025-11-06 18:34:09.397,55.845,-0.10200000000000001,0.158,0.038,0.231,-0.352,-0.9560000000000001,77.57000000000001,10.08,-81.75,0.9692000000000001,-0.1647,-0.0531,0.1749,-0.07200000000000001,0.052000000000000005,0.016
2025-11-06 18:34:09.397,55.85,-0.08600000000000001,0.114,0.045,0.26,-0.398,-0.997,78.16,9.55,-81.58,0.9680000000000001,-0.1681,-0.0558,0.1772,-0.094,0.093,0.059000000000000004
2025-11-06 18:34:09.397,55.855,-0.07200000000000001,0.075,0.059000000000000004,0.276,-0.433,-1.029,78.16,9.55,-81.58,0.9668,-0.1721,-0.058100000000000006,0.1796,-0.10400000000000001,0.123,0.095
2025-11-06 18:34:09.397,55.86,-0.067,0.026000000000000002,0.075,0.278,-0.452,-1.043,77.93,10.02,-81.64,0.9655,-0.1761,-0.060000000000000005,0.18180000000000002,-0.099,0.135,0.112
2025-11-06 18:34:09.397,55.865,-0.067,-0.026000000000000002,0.091,0.276,-0.464,-1.034,77.93,10.02,-81.64,0.9643,-0.18030000000000002,-0.0614,0.1837,-0.092,0.14100000000000001,0.105
2025-11-06 18:34:09.397,55.87,-0.066,-0.07200000000000001,0.109,0.271,-0.47700000000000004,-1.006,77.84,9.99,-81.23,0.9630000000000001,-0.185,-0.062400000000000004,0.18560000000000001,-0.084,0.146,0.082
2025-11-06 18:34:09.397,55.875,-0.05,-0.13,0.138,0.275,-0.461,-0.9500000000000001,77.84,9.99,-81.23,0.9616,-0.1898,-0.06380000000000001,0.1875,-0.082,0.122,0.029
2025-11-06 18:34:09.397,55.88,-0.04,-0.14,0.149,0.28400000000000003,-0.451,-0.912,77.84,9.99,-81.23,0.9601000000000001,-0.19460000000000002,-0.0656,0.18960000000000002,-0.08600000000000001,0.10400000000000001,-0.004
2025-11-06 18:34:09.397,55.885,-0.031,-0.11,0.162,0.293,-0.439,-0.867,77.72,10.26,-81.05,0.9584,-0.1995,-0.068,0.192,-0.088,0.084,-0.044
2025-11-06 18:34:09.397,55.89,-0.014,-0.058,0.17300000000000001,0.303,-0.423,-0.8220000000000001,77.72,10.26,-81.05,0.9566,-0.2044,-0.0712,0.19460000000000002,-0.089,0.061,-0.084
2025-11-06 18:34:09.397,55.895,-0.005,0.01,0.166,0.303,-0.394,-0.839,77.81,10.72,-82.13,0.9552,-0.2076,-0.07440000000000001,0.1973,-0.081,0.027,-0.063
2025-11-06 18:34:09.397,55.9,-0.021,0.019,0.159,0.292,-0.373,-0.904,77.81,10.72,-82.13,0.9544,-0.2083,-0.0767,0.19920000000000002,-0.063,0.006,0.003
2025-11-06 18:34:09.397,55.905,-0.045,0.007,0.16,0.277,-0.353,-0.937,77.81,10.72,-82.13,0.9541000000000001,-0.2076,-0.0782,0.20070000000000002,-0.045,-0.012,0.035
2025-11-06 18:34:09.397,55.91,-0.044,0.007,0.158,0.256,-0.328,-0.9390000000000001,78.45,9.76,-81.81,0.9542,-0.20570000000000002,-0.079,0.2018,-0.022,-0.033,0.036000000000000004
2025-11-06 18:34:09.397,55.915,-0.032,0.011,0.148,0.23,-0.3,-0.923,78.45,9.76,-81.81,0.9547,-0.2031,-0.0792,0.2025,0.003,-0.056,0.019
2025-11-06 18:34:09.397,55.92,-0.005,0.015,0.111,0.20500000000000002,-0.259,-0.909,77.63,9.9,-81.23,0.9554,-0.199,-0.07880000000000001,0.20320000000000002,0.027,-0.09,0.002
2025-11-06 18:34:09.397,55.925,0.005,0.023,0.065,0.211,-0.241,-0.908,77.63,9.9,-81.23,0.9560000000000001,-0.1947,-0.079,0.2043,0.019,-0.1,-0.002
2025-11-06 18:34:09.397,55.93,0.003,0.036000000000000004,0.01,0.223,-0.251,-0.889,78.07000000000001,9.67,-81.73,0.9564,-0.19160000000000002,-0.07970000000000001,0.2054,0.007,-0.083,-0.023
2025-11-06 18:34:09.397,55.935,-0.001,0.043000000000000003,-0.038,0.23500000000000001,-0.27,-0.863,78.07000000000001,9.67,-81.73,0.9564,-0.1899,-0.0809,0.2064,-0.002,-0.06,-0.05
2025-11-06 18:34:09.397,55.94,-0.009000000000000001,0.052000000000000005,-0.095,0.245,-0.304,-0.838,78.07000000000001,9.67,-81.73,0.9561000000000001,-0.1902,-0.0824,0.2069,-0.009000000000000001,-0.024,-0.076
2025-11-06 18:34:09.397,55.945,-0.008,0.05,-0.14100000000000001,0.252,-0.34500000000000003,-0.8180000000000001,77.84,10.17,-81.78,0.9555,-0.19260000000000002,-0.0839,0.20670000000000002,-0.012,0.013000000000000001,-0.094
2025-11-06 18:34:09.397,55.95,-0.005,0.061,-0.176,0.268,-0.378,-0.802,77.84,10.17,-81.78,0.9547,-0.1965,-0.0858,0.2061,-0.024,0.04,-0.106
2025-11-06 18:34:09.397,55.955,0.004,0.07100000000000001,-0.20600000000000002,0.296,-0.402,-0.797,77.75,10.14,-81.96000000000001,0.9535,-0.2013,-0.0886,0.20550000000000002,-0.046,0.056,-0.106
2025-11-06 18:34:09.397,55.96,0.018000000000000002,0.083,-0.228,0.318,-0.43,-0.799,77.75,10.14,-81.96000000000001,0.9522,-0.2068,-0.0917,0.2049,-0.06,0.076,-0.099
2025-11-06 18:34:09.397,55.965,0.04,0.10300000000000001,-0.25,0.343,-0.45,-0.8140000000000001,77.75,10.14,-81.96000000000001,0.9507000000000001,-0.2124,-0.0952,0.2044,-0.077,0.08700000000000001,-0.078
2025-11-06 18:34:09.400,55.97,0.042,0.112,-0.257,0.35000000000000003,-0.467,-0.841,77.78,10.78,-81.55,0.9493,-0.21760000000000002,-0.0983,0.20400000000000001,-0.077,0.095,-0.046
2025-11-06 18:34:09.400,55.975,0.041,0.099,-0.258,0.353,-0.47800000000000004,-0.875,77.78,10.78,-81.55,0.9482,-0.222,-0.1008,0.20350000000000001,-0.073,0.1,-0.007
2025-11-06 18:34:09.400,55.98,0.037,0.073,-0.259,0.34600000000000003,-0.482,-0.898,77.60000000000001,10.870000000000001,-81.75,0.9473,-0.22560000000000002,-0.10250000000000001,0.2029,-0.061,0.098,0.02
2025-11-06 18:34:09.400,55.985,0.034,0.033,-0.259,0.337,-0.486,-0.909,77.60000000000001,10.870000000000001,-81.75,0.9466,-0.22870000000000001,-0.10360000000000001,0.202,-0.049,0.096,0.034
2025-11-06 18:34:09.400,55.99,0.03,-0.001,-0.26,0.326,-0.489,-0.906,77.63,10.26,-81.37,0.9461,-0.2316,-0.1042,0.20090000000000002,-0.036000000000000004,0.093,0.034
2025-11-06 18:34:09.400,55.995,0.027,-0.022,-0.266,0.321,-0.487,-0.903,77.63,10.26,-81.37,0.9456,-0.23420000000000002,-0.10450000000000001,0.1998,-0.03,0.08700000000000001,0.034
2025-11-06 18:34:09.400,56.0,0.033,-0.053,-0.275,0.318,-0.484,-0.9,77.63,10.26,-81.37,0.9452,-0.23650000000000002,-0.1047,0.19890000000000002,-0.026000000000000002,0.08,0.033
2025-11-06 18:34:09.401,56.005,0.038,-0.092,-0.277,0.304,-0.483,-0.896,77.19,10.69,-81.81,0.9450000000000001,-0.2386,-0.1044,0.1976,-0.012,0.074,0.031
2025-11-06 18:34:09.401,56.01,0.049,-0.159,-0.28300000000000003,0.275,-0.468,-0.894,77.19,10.69,-81.81,0.9452,-0.2398,-0.10310000000000001,0.19590000000000002,0.014,0.056,0.03
2025-11-06 18:34:09.401,56.015,0.045,-0.186,-0.28600000000000003,0.263,-0.467,-0.894,78.04,10.93,-81.61,0.9455,-0.24080000000000001,-0.1015,0.19410000000000002,0.023,0.052000000000000005,0.031
2025-11-06 18:34:09.401,56.02,0.044,-0.196,-0.291,0.252,-0.459,-0.886,78.04,10.93,-81.61,0.9458000000000001,-0.2414,-0.09970000000000001,0.19240000000000002,0.029,0.041,0.023
2025-11-06 18:34:09.401,56.025,0.044,-0.195,-0.299,0.242,-0.447,-0.868,78.04,10.93,-81.61,0.9462,-0.24200000000000002,-0.098,0.1908,0.036000000000000004,0.027,0.004
2025-11-06 18:34:09.401,56.03,0.049,-0.193,-0.31,0.227,-0.427,-0.848,77.25,11.28,-81.84,0.9467000000000001,-0.24200000000000002,-0.0961,0.1894,0.047,0.006,-0.015
2025-11-06 18:34:09.401,56.035,0.052000000000000005,-0.194,-0.319,0.216,-0.41600000000000004,-0.855,77.25,11.28,-81.84,0.9473,-0.24150000000000002,-0.094,0.188,0.053,-0.005,-0.009000000000000001
2025-11-06 18:34:09.401,56.04,0.054,-0.177,-0.324,0.221,-0.418,-0.861,77.28,10.72,-81.87,0.9478000000000001,-0.24100000000000002,-0.0922,0.18710000000000002,0.044,-0.003,-0.004
2025-11-06 18:34:09.401,56.045,0.058,-0.114,-0.333,0.23900000000000002,-0.425,-0.8250000000000001,77.28,10.72,-81.87,0.9476,-0.24180000000000001,-0.09140000000000001,0.18710000000000002,0.024,0.001,-0.041
2025-11-06 18:34:09.401,56.05,0.066,0.0,-0.34400000000000003,0.259,-0.43,-0.784,77.46000000000001,11.31,-82.22,0.9469000000000001,-0.2439,-0.09190000000000001,0.188,0.005,0.004,-0.079
2025-11-06 18:34:09.401,56.055,0.062,0.159,-0.357,0.259,-0.435,-0.785,77.46000000000001,11.31,-82.22,0.9461,-0.24600000000000002,-0.0927,0.1887,0.008,0.006,-0.076
2025-11-06 18:34:09.401,56.06,0.048,0.21,-0.358,0.248,-0.439,-0.8150000000000001,77.46000000000001,11.31,-82.22,0.9458000000000001,-0.2472,-0.09280000000000001,0.1887,0.02,0.007,-0.044
2025-11-06 18:34:09.401,56.065,0.038,0.23500000000000001,-0.354,0.23700000000000002,-0.438,-0.841,77.75,11.4,-81.61,0.9458000000000001,-0.2477,-0.0926,0.18810000000000002,0.03,0.005,-0.018000000000000002
2025-11-06 18:34:09.401,56.07,0.043000000000000003,0.258,-0.359,0.23900000000000002,-0.485,-0.84,77.75,11.4,-81.61,0.9455,-0.24980000000000002,-0.0921,0.18710000000000002,0.027,0.048,-0.017
2025-11-06 18:34:09.401,56.075,0.055,0.279,-0.364,0.217,-0.397,-0.8230000000000001,77.63,11.83,-81.37,0.9459000000000001,-0.2487,-0.0917,0.1864,0.048,-0.039,-0.035
2025-11-06 18:34:09.401,56.08,0.066,0.308,-0.378,0.23,-0.41400000000000003,-0.8230000000000001,77.63,11.83,-81.37,0.9460000000000001,-0.24860000000000002,-0.0918,0.1862,0.036000000000000004,-0.021,-0.036000000000000004
2025-11-06 18:34:09.401,56.085,0.051000000000000004,0.291,-0.391,0.229,-0.395,-0.834,77.63,11.83,-81.37,0.9463,-0.24750000000000003,-0.09190000000000001,0.18610000000000002,0.036000000000000004,-0.039,-0.025
2025-11-06 18:34:09.401,56.09,0.07100000000000001,0.274,-0.41200000000000003,0.24,-0.383,-0.833,77.63,11.72,-81.29,0.9465,-0.2461,-0.09240000000000001,0.18660000000000002,0.026000000000000002,-0.048,-0.027
2025-11-06 18:34:09.401,56.095,0.08,0.26,-0.432,0.25,-0.386,-0.846,77.63,11.72,-81.29,0.9467000000000001,-0.24480000000000002,-0.0932,0.18730000000000002,0.017,-0.042,-0.015
2025-11-06 18:34:09.401,56.1,0.093,0.249,-0.463,0.253,-0.379,-0.836,77.78,12.33,-81.17,0.9467000000000001,-0.2436,-0.094,0.1883,0.016,-0.046,-0.026000000000000002
2025-11-06 18:34:09.401,56.105,0.089,0.23500000000000001,-0.489,0.254,-0.386,-0.841,77.78,12.33,-81.17,0.9467000000000001,-0.2426,-0.09480000000000001,0.1892,0.016,-0.037,-0.022
2025-11-06 18:34:09.401,56.11,0.093,0.192,-0.503,0.255,-0.391,-0.872,77.75,12.3,-81.84,0.9468000000000001,-0.24130000000000001,-0.0951,0.19010000000000002,0.016,-0.03,0.007
2025-11-06 18:34:09.401,56.115,0.098,0.15,-0.514,0.257,-0.391,-0.887,77.75,12.3,-81.84,0.9470000000000001,-0.2399,-0.09530000000000001,0.191,0.015,-0.027,0.021
2025-11-06 18:34:09.401,56.12,0.112,0.14,-0.533,0.258,-0.399,-0.888,77.75,12.3,-81.84,0.9470000000000001,-0.2389,-0.0954,0.19190000000000002,0.013000000000000001,-0.016,0.021
2025-11-06 18:34:09.401,56.125,0.126,0.14300000000000002,-0.544,0.259,-0.391,-0.886,78.01,13.030000000000001,-81.43,0.9471,-0.2378,-0.0956,0.19290000000000002,0.013000000000000001,-0.022,0.017
2025-11-06 18:34:09.401,56.13,0.14,0.14200000000000002,-0.549,0.262,-0.387,-0.872,78.01,13.030000000000001,-81.43,0.9470000000000001,-0.2369,-0.0961,0.19410000000000002,0.01,-0.024,0.003
2025-11-06 18:34:09.401,56.135,0.139,0.14400000000000002,-0.551,0.268,-0.375,-0.866,78.16,13.0,-81.4,0.9469000000000001,-0.2358,-0.09680000000000001,0.1953,0.006,-0.033,-0.003
2025-11-06 18:34:09.401,56.14,0.139,0.139,-0.547,0.269,-0.371,-0.867,78.16,13.0,-81.4,0.9469000000000001,-0.23470000000000002,-0.0975,0.1966,0.007,-0.034,-0.003
2025-11-06 18:34:09.401,56.145,0.129,0.11900000000000001,-0.538,0.27,-0.368,-0.866,78.19,13.21,-82.31,0.9468000000000001,-0.2335,-0.09820000000000001,0.19790000000000002,0.007,-0.035,-0.005
2025-11-06 18:34:09.401,56.15,0.131,0.10300000000000001,-0.533,0.28500000000000003,-0.352,-0.876,78.19,13.21,-82.31,0.9468000000000001,-0.2318,-0.0995,0.19940000000000002,-0.004,-0.047,0.004
2025-11-06 18:34:09.401,56.155,0.124,0.074,-0.526,0.294,-0.354,-0.888,78.19,13.21,-82.31,0.9468000000000001,-0.2301,-0.1008,0.20090000000000002,-0.012,-0.041,0.015
2025-11-06 18:34:09.401,56.16,0.11800000000000001,0.056,-0.515,0.301,-0.343,-0.889,78.45,13.700000000000001,-81.96000000000001,0.9468000000000001,-0.2281,-0.1023,0.2024,-0.016,-0.047,0.014
2025-11-06 18:34:09.401,56.165,0.11,0.056,-0.51,0.306,-0.328,-0.871,78.45,13.700000000000001,-81.96000000000001,0.9467000000000001,-0.22610000000000002,-0.1042,0.2041,-0.017,-0.058,-0.003
2025-11-06 18:34:09.401,56.17,0.098,0.094,-0.512,0.298,-0.311,-0.865,77.98,13.97,-81.23,0.9467000000000001,-0.22360000000000002,-0.10590000000000001,0.20570000000000002,-0.006,-0.069,-0.011
2025-11-06 18:34:09.401,56.175,0.095,0.14100000000000001,-0.523,0.299,-0.307,-0.863,77.98,13.97,-81.23,0.9467000000000001,-0.22130000000000002,-0.1077,0.2073,-0.004,-0.068,-0.015
2025-11-06 18:34:09.401,56.18,0.101,0.185,-0.533,0.302,-0.304,-0.847,77.98,13.97,-81.23,0.9466,-0.21930000000000002,-0.1097,0.2089,-0.004,-0.066,-0.031
2025-11-06 18:34:09.401,56.185,0.10200000000000001,0.202,-0.543,0.304,-0.307,-0.841,78.57000000000001,13.790000000000001,-81.84,0.9464,-0.21780000000000002,-0.11170000000000001,0.2104,-0.001,-0.059000000000000004,-0.038
2025-11-06 18:34:09.402,56.19,0.116,0.13,-0.556,0.314,-0.355,-0.877,78.57000000000001,13.790000000000001,-81.84,0.9460000000000001,-0.2177,-0.11280000000000001,0.2117,-0.008,-0.008,-0.002
2025-11-06 18:34:09.402,56.195,0.099,0.041,-0.5690000000000001,0.316,-0.425,-0.922,78.22,13.21,-81.43,0.9454,-0.21930000000000002,-0.1125,0.2127,-0.01,0.059000000000000004,0.043000000000000003
2025-11-06 18:34:09.402,56.2,0.055,-0.052000000000000005,-0.588,0.335,-0.439,-0.961,78.22,13.21,-81.43,0.9449000000000001,-0.2205,-0.11230000000000001,0.21380000000000002,-0.029,0.07100000000000001,0.084
2025-11-06 18:34:09.402,56.205,0.008,-0.11800000000000001,-0.61,0.355,-0.427,-0.989,80.09,13.790000000000001,-81.02,0.9445,-0.22080000000000002,-0.1126,0.2152,-0.047,0.058,0.111
2025-11-06 18:34:09.402,56.21,-0.005,-0.171,-0.644,0.34600000000000003,-0.499,-0.98,80.09,13.790000000000001,-81.02,0.9438000000000001,-0.22340000000000002,-0.11180000000000001,0.2162,-0.039,0.128,0.10400000000000001
2025-11-06 18:34:09.402,56.215,-0.003,-0.156,-0.68,0.335,-0.555,-0.9500000000000001,80.09,13.790000000000001,-81.02,0.9427000000000001,-0.228,-0.11030000000000001,0.2167,-0.028,0.17500000000000002,0.078
2025-11-06 18:34:09.402,56.22,-0.013000000000000001,-0.117,-0.71,0.327,-0.493,-0.908,78.39,14.06,-81.05,0.9418000000000001,-0.231,-0.1097,0.21780000000000002,-0.019,0.106,0.039
2025-11-06 18:34:09.402,56.225,-0.003,-0.067,-0.743,0.328,-0.389,-0.865,78.39,14.06,-81.05,0.9412,-0.231,-0.11080000000000001,0.2197,-0.018000000000000002,0.002,-0.002
2025-11-06 18:34:09.402,56.23,0.026000000000000002,-0.037,-0.789,0.336,-0.35000000000000003,-0.835,78.36,14.790000000000001,-81.29,0.9406,-0.2303,-0.11280000000000001,0.2222,-0.022,-0.033,-0.033
2025-11-06 18:34:09.402,56.235,0.052000000000000005,-0.059000000000000004,-0.833,0.325,-0.372,-0.8260000000000001,78.36,14.790000000000001,-81.29,0.9398000000000001,-0.23070000000000002,-0.114,0.22440000000000002,-0.007,-0.01,-0.041
2025-11-06 18:34:09.402,56.24,0.027,-0.089,-0.843,0.322,-0.326,-0.8290000000000001,78.36,14.790000000000001,-81.29,0.9394,-0.2291,-0.1155,0.22710000000000002,-0.002,-0.052000000000000005,-0.038
2025-11-06 18:34:09.402,56.245,0.018000000000000002,-0.15,-0.84,0.33,-0.28500000000000003,-0.84,78.8,14.93,-80.56,0.9391,-0.22590000000000002,-0.11720000000000001,0.23040000000000002,-0.006,-0.08600000000000001,-0.029
2025-11-06 18:34:09.402,56.25,0.038,-0.209,-0.8260000000000001,0.304,-0.332,-0.842,78.8,14.93,-80.56,0.9389000000000001,-0.22460000000000002,-0.11710000000000001,0.2328,0.02,-0.035,-0.028
2025-11-06 18:34:09.402,56.255,0.05,-0.249,-0.8180000000000001,0.264,-0.40800000000000003,-0.881,78.22,15.75,-81.32000000000001,0.9387000000000001,-0.2253,-0.114,0.23420000000000002,0.056,0.039,0.009000000000000001
2025-11-06 18:34:09.403,56.26,0.031,-0.312,-0.8140000000000001,0.261,-0.375,-0.932,78.22,15.75,-81.32000000000001,0.9390000000000001,-0.2238,-0.11080000000000001,0.2361,0.054,0.006,0.058
2025-11-06 18:34:09.403,56.265,0.035,-0.372,-0.8210000000000001,0.262,-0.368,-0.962,78.77,16.07,-82.31,0.9394,-0.22160000000000002,-0.1077,0.23820000000000002,0.047,0.002,0.085
2025-11-06 18:34:09.403,56.27,0.041,-0.41400000000000003,-0.8320000000000001,0.28,-0.354,-0.988,78.77,16.07,-82.31,0.9397000000000001,-0.2189,-0.10540000000000001,0.2404,0.024,-0.007,0.107
2025-11-06 18:34:09.403,56.275,0.037,-0.431,-0.8320000000000001,0.299,-0.277,-0.992,78.77,16.07,-82.31,0.9403,-0.2137,-0.10490000000000001,0.24280000000000002,0.001,-0.076,0.106
2025-11-06 18:34:09.403,56.28,0.069,-0.448,-0.8170000000000001,0.28700000000000003,-0.267,-0.973,78.28,16.16,-81.26,0.9409000000000001,-0.2088,-0.1041,0.2452,0.011,-0.076,0.083
2025-11-06 18:34:09.403,56.285,0.088,-0.442,-0.802,0.266,-0.298,-0.97,78.28,16.16,-81.26,0.9412,-0.20550000000000002,-0.10210000000000001,0.2477,0.029,-0.039,0.076
2025-11-06 18:34:09.403,56.29,0.084,-0.442,-0.79,0.257,-0.246,-0.977,78.07000000000001,16.57,-82.34,0.9419000000000001,-0.2003,-0.1005,0.2501,0.033,-0.082,0.079
2025-11-06 18:34:09.403,56.295,0.089,-0.422,-0.775,0.28500000000000003,-0.21,-0.9550000000000001,78.07000000000001,16.57,-82.34,0.9425,-0.1947,-0.1009,0.2518,0.003,-0.108,0.053
2025-11-06 18:34:09.403,56.3,0.08700000000000001,-0.377,-0.745,0.29,-0.198,-0.918,78.07000000000001,16.57,-82.34,0.9431,-0.1895,-0.10210000000000001,0.25320000000000004,-0.001,-0.11,0.012
2025-11-06 18:34:09.403,56.305,0.065,-0.323,-0.72,0.272,-0.198,-0.892,77.66,16.86,-81.58,0.9435,-0.185,-0.1027,0.2548,0.015,-0.1,-0.016
2025-11-06 18:34:09.403,56.31,0.047,-0.298,-0.706,0.23700000000000002,-0.215,-0.87,77.66,16.86,-81.58,0.9436,-0.1816,-0.1015,0.2574,0.048,-0.076,-0.042
2025-11-06 18:34:09.403,56.315,0.048,-0.275,-0.7000000000000001,0.191,-0.241,-0.854,77.75,17.27,-82.63,0.9433,-0.1796,-0.09770000000000001,0.26130000000000003,0.088,-0.047,-0.061
2025-11-06 18:34:09.403,56.32,0.054,-0.268,-0.707,0.134,-0.28800000000000003,-0.853,77.75,17.27,-82.63,0.9424,-0.17950000000000002,-0.0906,0.2671,0.135,-0.001,-0.064
2025-11-06 18:34:09.403,56.325,0.066,-0.301,-0.717,0.097,-0.336,-0.883,78.92,16.6,-82.25,0.9411,-0.1807,-0.0814,0.2738,0.158,0.042,-0.037
2025-11-06 18:34:09.403,56.33,0.073,-0.34700000000000003,-0.727,0.08700000000000001,-0.353,-0.916,78.92,16.6,-82.25,0.9398000000000001,-0.18180000000000002,-0.0722,0.2801,0.154,0.053,-0.005
2025-11-06 18:34:09.403,56.335,0.07200000000000001,-0.385,-0.733,0.095,-0.34800000000000003,-0.9470000000000001,78.92,16.6,-82.25,0.9388000000000001,-0.182,-0.06430000000000001,0.2851,0.131,0.044,0.022
2025-11-06 18:34:09.403,56.34,0.058,-0.402,-0.737,0.131,-0.311,-0.961,77.78,17.97,-82.16,0.9385,-0.1806,-0.059500000000000004,0.2881,0.08600000000000001,0.005,0.034
2025-11-06 18:34:09.403,56.345,0.033,-0.376,-0.752,0.218,-0.244,-0.9550000000000001,77.78,17.97,-82.16,0.9391,-0.1774,-0.0603,0.2877,-0.003,-0.056,0.026000000000000002
2025-11-06 18:34:09.403,56.35,0.035,-0.309,-0.759,0.258,-0.203,-0.926,77.75,18.47,-82.11,0.9402,-0.17350000000000002,-0.0639,0.2859,-0.04,-0.088,-0.004
2025-11-06 18:34:09.403,56.355,0.049,-0.251,-0.757,0.274,-0.176,-0.885,77.75,18.47,-82.11,0.9413,-0.1696,-0.0689,0.28350000000000003,-0.05,-0.106,-0.047
2025-11-06 18:34:09.403,56.36,0.054,-0.201,-0.742,0.274,-0.164,-0.856,77.75,18.47,-82.11,0.9422,-0.1658,-0.0741,0.28140000000000004,-0.043000000000000003,-0.108,-0.077
2025-11-06 18:34:09.403,56.365,0.049,-0.17200000000000001,-0.719,0.232,-0.146,-0.856,77.17,18.88,-82.02,0.9430000000000001,-0.1612,-0.07690000000000001,0.2806,0.003,-0.117,-0.079
2025-11-06 18:34:09.403,56.37,0.052000000000000005,-0.131,-0.6960000000000001,0.182,-0.139,-0.892,77.17,18.88,-82.02,0.9436,-0.1558,-0.07680000000000001,0.2816,0.05,-0.114,-0.046
2025-11-06 18:34:09.403,56.375,0.085,-0.124,-0.6900000000000001,0.231,-0.14400000000000002,-0.9390000000000001,76.9,18.97,-82.49,0.9443,-0.15130000000000002,-0.0786,0.28140000000000004,0.002,-0.099,-0.001
