System_Time,Timestamp,Gyro_X,Gyro_Y,Gyro_Z,Acc_X,Acc_Y,Acc_Z,Mag_X,Mag_Y,Mag_Z,Quat_W,Quat_X,Quat_Y,Quat_Z,Linear_Acc_X,Linear_Acc_Y,Linear_Acc_Z
2025-11-06 18:32:56.170,38.415,0.544,0.068,-0.458,0.02,-0.998,0.05,70.79,-13.530000000000001,-73.07000000000001,0.6709,-0.7312000000000001,0.0673,0.10300000000000001,0.04,0.003,0.028
2025-11-06 18:32:56.170,38.42,2.64,0.641,-1.713,-0.028,-0.997,0.013000000000000001,70.79,-13.530000000000001,-73.07000000000001,0.6685,-0.7337,0.0664,0.10160000000000001,0.088,0.002,0.069
2025-11-06 18:32:56.170,38.425,8.335,2.711,-5.726,-0.025,-0.997,0.015,70.27,-14.11,-72.75,0.6557000000000001,-0.7459,0.0563,0.1019,0.098,0.005,0.093
2025-11-06 18:32:56.170,38.43,4.2860000000000005,1.6320000000000001,-3.519,-0.026000000000000002,-0.999,0.016,70.27,-14.11,-72.75,0.6515000000000001,-0.7501,0.051300000000000005,0.1008,0.112,0.011,0.115
2025-11-06 18:32:56.170,38.435,0.091,-0.197,0.155,-0.028,-1.0,0.016,69.8,-14.41,-73.01,0.6555000000000001,-0.7467,0.055,0.0979,0.10400000000000001,0.011,0.106
2025-11-06 18:32:56.170,38.44,0.041,-0.039,-0.04,-0.031,-1.0,0.014,69.8,-14.41,-73.01,0.6593,-0.7434000000000001,0.0579,0.0952,0.099,0.009000000000000001,0.099
2025-11-06 18:32:56.170,38.445,0.043000000000000003,-0.048,-0.036000000000000004,-0.03,-1.0,0.011,70.56,-13.91,-72.99,0.6629,-0.7404000000000001,0.0604,0.0927,0.089,0.007,0.093
2025-11-06 18:32:56.170,38.45,0.047,-0.045,-0.031,-0.03,-1.0,0.009000000000000001,70.56,-13.91,-72.99,0.6662,-0.7375,0.06280000000000001,0.09040000000000001,0.081,0.006,0.088
2025-11-06 18:32:56.170,38.455,0.054,-0.048,-0.027,-0.031,-0.999,0.009000000000000001,70.56,-13.91,-72.99,0.6691,-0.7349,0.065,0.0884,0.076,0.004,0.08
2025-11-06 18:32:56.170,38.46,0.062,-0.059000000000000004,-0.024,-0.031,-0.997,0.014,69.33,-13.530000000000001,-72.84,0.6716000000000001,-0.7326,0.0671,0.08650000000000001,0.069,0.001,0.069
2025-11-06 18:32:56.170,38.465,0.066,-0.066,-0.023,-0.031,-0.994,0.021,69.33,-13.530000000000001,-72.84,0.6737000000000001,-0.7308,0.06910000000000001,0.0848,0.063,-0.001,0.057
2025-11-06 18:32:56.170,38.47,0.069,-0.077,-0.021,-0.029,-0.995,0.031,69.16,-13.59,-72.63,0.6752,-0.7293000000000001,0.0711,0.0834,0.056,-0.001,0.042
2025-11-06 18:32:56.170,38.475,0.066,-0.084,-0.019,-0.025,-0.998,0.043000000000000003,69.16,-13.59,-72.63,0.6762,-0.7284,0.0729,0.0823,0.048,0.001,0.028
2025-11-06 18:32:56.170,38.48,0.055,-0.093,-0.019,-0.018000000000000002,-0.998,0.053,69.16,-13.59,-72.63,0.6767000000000001,-0.7278,0.07440000000000001,0.0816,0.037,0.001,0.016
2025-11-06 18:32:56.170,38.485,0.049,-0.089,-0.018000000000000002,-0.01,-1.0010000000000001,0.058,69.33,-13.700000000000001,-73.07000000000001,0.6771,-0.7274,0.0755,0.0811,0.026000000000000002,0.004,0.011
2025-11-06 18:32:56.170,38.49,0.043000000000000003,-0.081,-0.019,-0.004,-1.002,0.059000000000000004,69.33,-13.700000000000001,-73.07000000000001,0.6774,-0.7271000000000001,0.0763,0.08080000000000001,0.019,0.005,0.01
2025-11-06 18:32:56.170,38.495,0.035,-0.065,-0.017,-0.005,-1.0030000000000001,0.052000000000000005,69.59,-13.5,-72.05,0.6779000000000001,-0.7265,0.07690000000000001,0.0804,0.017,0.005,0.015
2025-11-06 18:32:56.170,38.5,0.038,-0.048,-0.015,-0.007,-1.002,0.046,69.59,-13.5,-72.05,0.6786,-0.7259,0.07740000000000001,0.0799,0.018000000000000002,0.004,0.02
2025-11-06 18:32:56.170,38.505,0.049,-0.034,-0.015,-0.016,-1.0030000000000001,0.042,69.36,-13.73,-72.49,0.6794,-0.7252000000000001,0.0782,0.0792,0.025,0.005,0.022
2025-11-06 18:32:56.170,38.51,0.051000000000000004,-0.033,-0.015,-0.023,-1.0,0.041,69.36,-13.73,-72.49,0.6801,-0.7245,0.0792,0.0784,0.03,0.002,0.021
2025-11-06 18:32:56.170,38.515,0.054,-0.035,-0.015,-0.027,-0.998,0.041,69.36,-13.73,-72.49,0.6807000000000001,-0.7238,0.08030000000000001,0.0776,0.031,0.0,0.019
2025-11-06 18:32:56.170,38.52,0.06,-0.041,-0.015,-0.032,-0.995,0.043000000000000003,69.54,-13.56,-72.02,0.6813,-0.7233,0.0815,0.07680000000000001,0.032,-0.002,0.016
2025-11-06 18:32:56.170,38.525,0.062,-0.053,-0.014,-0.034,-0.993,0.046,69.54,-13.56,-72.02,0.6816,-0.7229,0.0828,0.0761,0.032,-0.004,0.012
2025-11-06 18:32:56.170,38.53,0.066,-0.062,-0.012,-0.036000000000000004,-0.991,0.053,69.19,-13.59,-72.46000000000001,0.6818000000000001,-0.7227,0.08420000000000001,0.07540000000000001,0.031,-0.006,0.005
2025-11-06 18:32:56.170,38.535,0.066,-0.069,-0.016,-0.035,-0.992,0.057,69.19,-13.59,-72.46000000000001,0.6817000000000001,-0.7226,0.0855,0.07490000000000001,0.028,-0.005,0.001
2025-11-06 18:32:56.170,38.54,0.066,-0.073,-0.016,-0.034,-0.993,0.058,69.19,-13.59,-72.46000000000001,0.6816,-0.7226,0.08660000000000001,0.0745,0.024,-0.004,0.0
2025-11-06 18:32:56.170,38.545,0.063,-0.082,-0.016,-0.033,-0.993,0.064,68.98,-13.59,-72.75,0.6814,-0.7227,0.0878,0.0741,0.021,-0.005,-0.004
2025-11-06 18:32:56.170,38.55,0.058,-0.089,-0.018000000000000002,-0.03,-0.993,0.066,68.98,-13.59,-72.75,0.6811,-0.7229,0.0887,0.07390000000000001,0.017,-0.004,-0.005
2025-11-06 18:32:56.170,38.555,0.054,-0.08600000000000001,-0.018000000000000002,-0.035,-0.994,0.069,69.27,-13.82,-72.37,0.6807000000000001,-0.7232000000000001,0.0898,0.0736,0.02,-0.003,-0.007
2025-11-06 18:32:56.170,38.56,0.054,-0.085,-0.018000000000000002,-0.035,-0.995,0.067,69.27,-13.82,-72.37,0.6805,-0.7233,0.0908,0.0734,0.018000000000000002,-0.002,-0.004
2025-11-06 18:32:56.170,38.565,0.052000000000000005,-0.081,-0.018000000000000002,-0.036000000000000004,-0.995,0.064,69.19,-13.94,-72.58,0.6804,-0.7233,0.0916,0.0731,0.017,-0.002,-0.001
2025-11-06 18:32:56.170,38.57,0.048,-0.076,-0.018000000000000002,-0.039,-0.991,0.058,69.19,-13.94,-72.58,0.6805,-0.7232000000000001,0.09240000000000001,0.0727,0.019,-0.006,0.005
2025-11-06 18:32:56.170,38.575,0.048,-0.077,-0.017,-0.039,-0.99,0.059000000000000004,69.19,-13.94,-72.58,0.6805,-0.7231000000000001,0.0931,0.0723,0.017,-0.007,0.003
2025-11-06 18:32:56.170,38.58,0.049,-0.08,-0.017,-0.038,-0.988,0.061,69.10000000000001,-14.11,-72.23,0.6805,-0.7230000000000001,0.09380000000000001,0.0721,0.014,-0.008,0.001
2025-11-06 18:32:56.170,38.585,0.046,-0.088,-0.016,-0.038,-0.987,0.065,69.10000000000001,-14.11,-72.23,0.6803,-0.7231000000000001,0.0945,0.0719,0.014,-0.01,-0.002
2025-11-06 18:32:56.170,38.59,0.046,-0.095,-0.017,-0.036000000000000004,-0.987,0.07100000000000001,69.71000000000001,-13.620000000000001,-72.23,0.68,-0.7234,0.0952,0.0718,0.011,-0.01,-0.007
2025-11-06 18:32:56.170,38.595,0.034,-0.10300000000000001,-0.02,-0.031,-0.99,0.077,69.71000000000001,-13.620000000000001,-72.23,0.6795,-0.7237,0.09580000000000001,0.0719,0.005,-0.006,-0.011
2025-11-06 18:32:56.170,38.6,0.027,-0.107,-0.021,-0.026000000000000002,-0.993,0.079,69.71000000000001,-13.620000000000001,-72.23,0.6789000000000001,-0.7242000000000001,0.09620000000000001,0.0722,0.0,-0.003,-0.012
2025-11-06 18:32:56.170,38.605,0.021,-0.111,-0.021,-0.018000000000000002,-0.995,0.078,70.15,-14.38,-72.11,0.6785,-0.7245,0.09620000000000001,0.0727,-0.007,-0.001,-0.01
2025-11-06 18:32:56.170,38.61,0.012,-0.111,-0.018000000000000002,-0.014,-0.996,0.078,70.15,-14.38,-72.11,0.6781,-0.7248,0.09620000000000001,0.0733,-0.009000000000000001,0.0,-0.009000000000000001
2025-11-06 18:32:56.170,38.615,-0.006,-0.11900000000000001,-0.013000000000000001,-0.011,-0.999,0.084,69.51,-14.06,-71.93,0.6776,-0.7253000000000001,0.0961,0.07400000000000001,-0.011,0.002,-0.013000000000000001
2025-11-06 18:32:56.170,38.62,-0.021,-0.11900000000000001,-0.013000000000000001,-0.013000000000000001,-1.002,0.08,69.51,-14.06,-71.93,0.6772,-0.7255,0.0961,0.0745,-0.008,0.004,-0.008
2025-11-06 18:32:56.170,38.625,-0.024,-0.111,-0.01,-0.018000000000000002,-1.002,0.07200000000000001,69.86,-14.200000000000001,-70.88,0.6772,-0.7255,0.09620000000000001,0.07490000000000001,-0.003,0.005,-0.001
2025-11-06 18:32:56.170,38.63,-0.021,-0.101,-0.005,-0.021,-1.0050000000000001,0.061,69.86,-14.200000000000001,-70.88,0.6776,-0.7252000000000001,0.09620000000000001,0.075,0.0,0.008,0.009000000000000001
2025-11-06 18:32:56.170,38.635,-0.013000000000000001,-0.091,-0.005,-0.027,-1.006,0.047,69.86,-14.200000000000001,-70.88,0.6784,-0.7244,0.09630000000000001,0.075,0.005,0.009000000000000001,0.021
2025-11-06 18:32:56.170,38.64,0.003,-0.073,-0.002,-0.03,-1.0070000000000001,0.034,69.48,-13.88,-71.96000000000001,0.6794,-0.7234,0.09630000000000001,0.0748,0.007,0.009000000000000001,0.031
2025-11-06 18:32:56.170,38.645,0.01,-0.058,0.001,-0.029,-1.006,0.026000000000000002,69.48,-13.88,-71.96000000000001,0.6807000000000001,-0.7223,0.09620000000000001,0.0746,0.006,0.008,0.036000000000000004
2025-11-06 18:32:56.170,38.65,0.02,-0.052000000000000005,0.004,-0.031,-1.002,0.019,69.27,-14.200000000000001,-72.4,0.682,-0.7211000000000001,0.0961,0.0743,0.007,0.004,0.039
2025-11-06 18:32:56.170,38.655,0.029,-0.051000000000000004,0.007,-0.033,-1.0,0.018000000000000002,69.27,-14.200000000000001,-72.4,0.6833,-0.7199,0.0961,0.07400000000000001,0.008,0.002,0.037
2025-11-06 18:32:56.170,38.66,0.032,-0.063,0.009000000000000001,-0.035,-0.996,0.021,69.27,-14.200000000000001,-72.4,0.6843,-0.7189,0.09630000000000001,0.0738,0.009000000000000001,-0.001,0.031
2025-11-06 18:32:56.170,38.665,0.03,-0.08600000000000001,0.01,-0.033,-0.994,0.03,69.92,-14.0,-72.34,0.685,-0.7183,0.0965,0.0737,0.007,-0.003,0.02
2025-11-06 18:32:56.170,38.67,0.026000000000000002,-0.112,0.01,-0.034,-0.992,0.04,69.92,-14.0,-72.34,0.6852,-0.7180000000000001,0.0969,0.0736,0.007,-0.005,0.009000000000000001
2025-11-06 18:32:56.170,38.675,0.016,-0.13,0.007,-0.035,-0.992,0.047,71.23,-13.790000000000001,-72.28,0.6853,-0.7179,0.0974,0.0736,0.007,-0.005,0.002
2025-11-06 18:32:56.170,38.68,0.008,-0.139,0.006,-0.032,-0.992,0.059000000000000004,71.23,-13.790000000000001,-72.28,0.6849000000000001,-0.7181000000000001,0.0979,0.0737,0.003,-0.005,-0.009000000000000001
2025-11-06 18:32:56.170,38.685,-0.01,-0.14,0.0,-0.031,-0.993,0.069,69.59,-13.85,-72.11,0.6843,-0.7186,0.0985,0.07400000000000001,0.002,-0.005,-0.017
2025-11-06 18:32:56.170,38.69,-0.022,-0.131,-0.001,-0.03,-0.994,0.076,69.59,-13.85,-72.11,0.6835,-0.7192000000000001,0.099,0.0742,0.001,-0.004,-0.022
2025-11-06 18:32:56.171,38.695,-0.035,-0.116,-0.004,-0.03,-0.994,0.079,69.59,-13.85,-72.11,0.6828000000000001,-0.7199,0.0995,0.07440000000000001,0.002,-0.003,-0.023
2025-11-06 18:32:56.171,38.7,-0.045,-0.1,-0.005,-0.028,-0.993,0.082,69.86,-13.94,-72.72,0.682,-0.7205,0.0999,0.0746,0.0,-0.004,-0.024
2025-11-06 18:32:56.171,38.705,-0.054,-0.081,-0.007,-0.027,-0.996,0.083,69.86,-13.94,-72.72,0.6813,-0.7212000000000001,0.10020000000000001,0.07490000000000001,-0.001,0.0,-0.023
2025-11-06 18:32:56.171,38.71,-0.06,-0.063,-0.005,-0.024,-0.997,0.079,69.16,-14.200000000000001,-72.34,0.6807000000000001,-0.7216,0.1004,0.0752,-0.003,0.0,-0.018000000000000002
2025-11-06 18:32:56.171,38.715,-0.068,-0.048,-0.004,-0.022,-0.998,0.075,69.16,-14.200000000000001,-72.34,0.6804,-0.7219,0.1004,0.07540000000000001,-0.004,0.0,-0.013000000000000001
2025-11-06 18:32:56.171,38.72,-0.073,-0.037,-0.002,-0.022,-0.997,0.069,68.86,-14.200000000000001,-71.61,0.6802,-0.7220000000000001,0.1003,0.0757,-0.004,0.0,-0.006
2025-11-06 18:32:56.171,38.725,-0.077,-0.036000000000000004,0.0,-0.021,-0.997,0.062,68.86,-13.88,-71.61,0.6804,-0.7219,0.10020000000000001,0.07590000000000001,-0.005,0.0,0.0
2025-11-06 18:32:56.171,38.73,-0.076,-0.025,0.001,-0.023,-0.997,0.056,68.86,-13.88,-71.61,0.6807000000000001,-0.7216,0.10010000000000001,0.0761,-0.002,0.0,0.004
2025-11-06 18:32:56.171,38.735,-0.063,-0.023,0.005,-0.026000000000000002,-0.996,0.053,68.92,-13.790000000000001,-72.55,0.681,-0.7213,0.10010000000000001,0.0761,0.0,-0.001,0.007
2025-11-06 18:32:56.171,38.74,-0.052000000000000005,-0.017,0.006,-0.028,-0.996,0.05,68.92,-13.790000000000001,-72.55,0.6814,-0.7209,0.10010000000000001,0.0761,0.001,-0.001,0.009000000000000001
2025-11-06 18:32:56.171,38.745,-0.045,-0.025,0.007,-0.027,-0.995,0.048,69.24,-13.38,-72.93,0.6819000000000001,-0.7205,0.10010000000000001,0.0761,0.0,-0.002,0.01
2025-11-06 18:32:56.171,38.75,-0.035,-0.033,0.007,-0.029,-0.997,0.049,69.24,-13.38,-72.93,0.6822,-0.7201000000000001,0.10020000000000001,0.0761,0.002,0.0,0.008
2025-11-06 18:32:56.171,38.755,-0.023,-0.038,0.006,-0.027,-0.998,0.047,69.24,-13.38,-72.93,0.6826,-0.7198,0.10020000000000001,0.0762,0.0,0.0,0.009000000000000001
2025-11-06 18:32:56.171,38.76,-0.015,-0.037,0.006,-0.026000000000000002,-1.0010000000000001,0.046,68.81,-13.88,-71.87,0.6829000000000001,-0.7195,0.10020000000000001,0.0763,0.0,0.003,0.009000000000000001
2025-11-06 18:32:56.171,38.765,-0.01,-0.031,0.006,-0.025,-1.0010000000000001,0.045,68.81,-13.88,-71.87,0.6832,-0.7192000000000001,0.10010000000000001,0.07640000000000001,-0.001,0.003,0.009000000000000001
2025-11-06 18:32:56.171,38.77,-0.009000000000000001,-0.031,0.006,-0.028,-1.002,0.042,70.62,-13.76,-71.99,0.6836,-0.7188,0.10010000000000001,0.07640000000000001,0.001,0.004,0.011
2025-11-06 18:32:56.171,38.775,-0.008,-0.024,0.007,-0.03,-1.0010000000000001,0.04,70.62,-13.76,-71.99,0.6841,-0.7184,0.10020000000000001,0.07640000000000001,0.003,0.002,0.012
2025-11-06 18:32:56.171,38.78,-0.011,-0.021,0.009000000000000001,-0.031,-0.999,0.04,69.21000000000001,-13.56,-71.9,0.6844,-0.7180000000000001,0.1003,0.0763,0.004,0.001,0.01
2025-11-06 18:32:56.171,38.785,-0.014,-0.027,0.011,-0.034,-0.996,0.045,69.21000000000001,-13.56,-71.9,0.6847000000000001,-0.7178,0.10060000000000001,0.0761,0.006,-0.001,0.005
2025-11-06 18:32:56.171,38.79,-0.013000000000000001,-0.034,0.012,-0.034,-0.994,0.049,69.21000000000001,-13.56,-71.9,0.6847000000000001,-0.7177,0.1008,0.076,0.005,-0.004,0.001
2025-11-06 18:32:56.171,38.795,-0.016,-0.036000000000000004,0.012,-0.033,-0.989,0.055,69.3,-14.290000000000001,-72.4,0.6846,-0.7178,0.10110000000000001,0.07590000000000001,0.004,-0.008,-0.004
2025-11-06 18:32:56.171,38.8,-0.016,-0.053,0.011,-0.031,-0.992,0.062,69.3,-14.290000000000001,-72.4,0.6843,-0.7181000000000001,0.1014,0.07590000000000001,0.001,-0.005,-0.01
2025-11-06 18:32:56.171,38.805,-0.015,-0.069,0.008,-0.03,-0.993,0.067,69.39,-13.97,-73.28,0.6838000000000001,-0.7185,0.10160000000000001,0.07590000000000001,0.001,-0.004,-0.014
2025-11-06 18:32:56.171,38.81,-0.017,-0.073,0.006,-0.029,-0.993,0.069,69.39,-13.97,-73.28,0.6833,-0.7189,0.1019,0.076,0.0,-0.004,-0.015
2025-11-06 18:32:56.171,38.815,-0.021,-0.079,0.005,-0.028,-0.994,0.07200000000000001,69.39,-13.97,-73.28,0.6827000000000001,-0.7194,0.10210000000000001,0.0762,0.0,-0.003,-0.017
2025-11-06 18:32:56.171,38.82,-0.035,-0.08,0.001,-0.026000000000000002,-0.995,0.07200000000000001,69.01,-14.06,-72.55,0.6822,-0.7198,0.1023,0.07640000000000001,-0.003,-0.002,-0.015
2025-11-06 18:32:56.171,38.825,-0.039,-0.07200000000000001,0.001,-0.024,-0.997,0.068,69.01,-14.06,-72.55,0.6819000000000001,-0.7201000000000001,0.1023,0.0767,-0.004,0.0,-0.01
2025-11-06 18:32:56.171,38.83,-0.045,-0.065,0.002,-0.02,-0.999,0.058,68.98,-13.88,-72.34,0.6819000000000001,-0.7201000000000001,0.1022,0.0771,-0.007,0.001,0.0
2025-11-06 18:32:56.171,38.835,-0.05,-0.062,0.001,-0.02,-0.999,0.053,68.98,-13.88,-72.34,0.6821,-0.7199,0.10200000000000001,0.07740000000000001,-0.006,0.001,0.004
2025-11-06 18:32:56.171,38.84,-0.052000000000000005,-0.062,0.004,-0.02,-0.999,0.049,69.04,-13.700000000000001,-72.55,0.6824,-0.7196,0.1019,0.07780000000000001,-0.007,0.001,0.006
2025-11-06 18:32:56.171,38.845,-0.049,-0.062,0.003,-0.023,-0.999,0.045,69.04,-13.700000000000001,-72.55,0.6828000000000001,-0.7192000000000001,0.1018,0.0781,-0.003,0.001,0.01
2025-11-06 18:32:56.171,38.85,-0.049,-0.052000000000000005,0.005,-0.024,-0.998,0.044,69.04,-13.700000000000001,-72.55,0.6832,-0.7188,0.1018,0.07830000000000001,-0.001,0.0,0.01
2025-11-06 18:32:56.171,38.855,-0.045,-0.054,0.006,-0.027,-0.994,0.044,68.92,-13.88,-72.69,0.6835,-0.7184,0.1019,0.0784,0.0,-0.003,0.008
2025-11-06 18:32:56.171,38.86,-0.04,-0.045,0.006,-0.03,-0.993,0.043000000000000003,68.92,-13.88,-72.69,0.6839000000000001,-0.7180000000000001,0.10200000000000001,0.07830000000000001,0.003,-0.005,0.008
2025-11-06 18:32:56.171,38.865,-0.032,-0.04,0.005,-0.033,-0.991,0.045,68.95,-13.76,-73.25,0.6842,-0.7177,0.1023,0.0782,0.006,-0.006,0.006
2025-11-06 18:32:56.171,38.87,-0.026000000000000002,-0.042,0.005,-0.037,-0.991,0.047,68.95,-13.76,-73.25,0.6844,-0.7175,0.10260000000000001,0.078,0.008,-0.006,0.003
2025-11-06 18:32:56.171,38.875,-0.022,-0.037,0.005,-0.037,-0.993,0.051000000000000004,68.95,-13.76,-73.25,0.6844,-0.7175,0.10300000000000001,0.07780000000000001,0.008,-0.004,0.0
2025-11-06 18:32:56.171,38.88,-0.02,-0.037,0.003,-0.038,-0.992,0.052000000000000005,68.60000000000001,-14.11,-72.9,0.6844,-0.7174,0.1034,0.0776,0.008,-0.006,-0.001
2025-11-06 18:32:56.171,38.885,-0.019,-0.036000000000000004,0.002,-0.04,-0.993,0.052000000000000005,68.60000000000001,-14.11,-72.9,0.6844,-0.7174,0.1038,0.07730000000000001,0.009000000000000001,-0.004,-0.001
2025-11-06 18:32:56.171,38.89,-0.022,-0.028,0.001,-0.04,-0.995,0.049,69.45,-14.08,-73.01,0.6845,-0.7173,0.1041,0.0771,0.008,-0.002,0.001
2025-11-06 18:32:56.171,38.895,-0.024,-0.025,0.0,-0.04,-0.994,0.047,69.45,-14.08,-73.01,0.6847000000000001,-0.7171000000000001,0.1044,0.07690000000000001,0.008,-0.003,0.002
2025-11-06 18:32:56.171,38.9,-0.027,-0.025,-0.001,-0.041,-0.994,0.044,68.89,-13.59,-72.66,0.6849000000000001,-0.7169,0.1046,0.0767,0.007,-0.003,0.005
2025-11-06 18:32:56.171,38.905,-0.027,-0.025,-0.001,-0.041,-0.992,0.04,68.89,-13.59,-72.66,0.6853,-0.7165,0.10490000000000001,0.0765,0.007,-0.005,0.008
2025-11-06 18:32:56.173,38.91,-0.026000000000000002,-0.02,0.0,-0.041,-0.994,0.038,68.89,-13.59,-72.66,0.6857000000000001,-0.7161000000000001,0.1051,0.0763,0.007,-0.003,0.009000000000000001
2025-11-06 18:32:56.173,38.915,-0.024,-0.017,-0.002,-0.041,-0.994,0.035,69.24,-13.76,-73.28,0.6861,-0.7157,0.1052,0.0762,0.005,-0.004,0.011
2025-11-06 18:32:56.173,38.92,-0.019,-0.014,-0.002,-0.04,-0.994,0.032,69.24,-13.76,-73.28,0.6866,-0.7152000000000001,0.1053,0.0761,0.004,-0.003,0.012
2025-11-06 18:32:56.173,38.925,-0.016,-0.012,-0.001,-0.04,-0.993,0.03,69.01,-13.94,-72.9,0.6871,-0.7148,0.10540000000000001,0.076,0.004,-0.004,0.013000000000000001
2025-11-06 18:32:56.173,38.93,-0.015,-0.009000000000000001,-0.001,-0.041,-0.993,0.026000000000000002,69.01,-13.94,-72.9,0.6877,-0.7142000000000001,0.10540000000000001,0.07590000000000001,0.004,-0.004,0.016
2025-11-06 18:32:56.173,38.935,-0.007,-0.014,0.0,-0.04,-0.994,0.027,69.01,-13.94,-72.9,0.6882,-0.7137,0.10550000000000001,0.0758,0.003,-0.004,0.013000000000000001
2025-11-06 18:32:56.173,38.94,-0.008,-0.015,-0.002,-0.036000000000000004,-0.997,0.026000000000000002,69.27,-14.17,-73.10000000000001,0.6886,-0.7133,0.10540000000000001,0.07590000000000001,0.0,-0.001,0.013000000000000001
2025-11-06 18:32:56.173,38.945,-0.006,-0.02,-0.001,-0.035,-0.998,0.025,69.27,-14.17,-73.10000000000001,0.6891,-0.7129000000000001,0.1053,0.07590000000000001,-0.001,0.0,0.013000000000000001
2025-11-06 18:32:56.173,38.95,-0.004,-0.025,-0.002,-0.033,-0.996,0.026000000000000002,68.92,-14.0,-73.69,0.6894,-0.7125,0.1052,0.0761,-0.003,-0.001,0.011
2025-11-06 18:32:56.174,38.955,-0.002,-0.03,-0.004,-0.033,-0.996,0.027,68.92,-14.0,-73.69,0.6897,-0.7122,0.10500000000000001,0.0763,-0.002,-0.002,0.009000000000000001
2025-11-06 18:32:56.174,38.96,-0.001,-0.036000000000000004,-0.004,-0.033,-0.995,0.028,68.78,-14.0,-72.08,0.6900000000000001,-0.7120000000000001,0.10500000000000001,0.07640000000000001,-0.002,-0.003,0.007
2025-11-06 18:32:56.174,38.965,0.0,-0.031,-0.004,-0.034,-0.994,0.026000000000000002,68.78,-14.0,-72.08,0.6902,-0.7117,0.10490000000000001,0.0765,-0.001,-0.004,0.008
2025-11-06 18:32:56.174,38.97,0.001,-0.031,-0.005,-0.035,-0.991,0.026000000000000002,68.78,-14.0,-72.08,0.6905,-0.7115,0.10490000000000001,0.0766,0.0,-0.007,0.008
2025-11-06 18:32:56.174,38.975,0.007,-0.025,-0.006,-0.035,-0.992,0.025,69.45,-13.56,-72.02,0.6908000000000001,-0.7112,0.10490000000000001,0.0767,0.0,-0.006,0.008
2025-11-06 18:32:56.174,38.98,0.01,-0.022,-0.007,-0.035,-0.992,0.025,69.45,-13.56,-72.02,0.6910000000000001,-0.7110000000000001,0.1048,0.07680000000000001,0.0,-0.006,0.007
2025-11-06 18:32:56.174,38.985,0.013000000000000001,-0.019,-0.009000000000000001,-0.035,-0.993,0.029,69.74,-13.5,-72.66,0.6911,-0.7109000000000001,0.10490000000000001,0.07680000000000001,0.0,-0.005,0.003
2025-11-06 18:32:56.174,38.99,0.015,-0.016,-0.007,-0.035,-0.993,0.033,69.74,-13.5,-72.66,0.6910000000000001,-0.7109000000000001,0.10490000000000001,0.07690000000000001,0.0,-0.004,0.0
2025-11-06 18:32:56.174,38.995,0.01,-0.012,-0.007,-0.034,-0.994,0.033,69.74,-13.5,-72.66,0.6910000000000001,-0.7110000000000001,0.1048,0.07690000000000001,-0.001,-0.004,0.0
2025-11-06 18:32:56.174,39.0,0.005,-0.015,-0.01,-0.033,-0.995,0.035,68.81,-13.47,-72.28,0.6909000000000001,-0.7111000000000001,0.1048,0.077,-0.001,-0.003,-0.001
2025-11-06 18:32:56.174,39.005,0.004,-0.009000000000000001,-0.005,-0.033,-0.997,0.032,68.81,-13.47,-72.28,0.6909000000000001,-0.7110000000000001,0.1047,0.0771,-0.001,-0.001,0.001
2025-11-06 18:32:56.174,39.01,0.001,-0.012,-0.007,-0.033,-0.996,0.031,69.27,-13.5,-73.13,0.6909000000000001,-0.7110000000000001,0.1047,0.0772,-0.001,-0.002,0.001
2025-11-06 18:32:56.174,39.015,0.002,-0.012,-0.006,-0.031,-0.995,0.03,69.27,-13.5,-73.13,0.6910000000000001,-0.7109000000000001,0.1046,0.07730000000000001,-0.003,-0.003,0.002
2025-11-06 18:32:56.174,39.02,0.0,-0.012,-0.005,-0.031,-0.994,0.028,68.54,-13.56,-72.87,0.6911,-0.7108,0.10450000000000001,0.0775,-0.003,-0.004,0.004
2025-11-06 18:32:56.174,39.025,0.0,-0.015,-0.007,-0.03,-0.994,0.028,68.54,-13.56,-72.87,0.6912,-0.7107,0.1043,0.0776,-0.003,-0.004,0.003
2025-11-06 18:32:56.174,39.03,0.0,-0.014,-0.007,-0.031,-0.996,0.029,68.54,-13.56,-72.87,0.6913,-0.7106,0.1042,0.0777,-0.002,-0.002,0.002
2025-11-06 18:32:56.174,39.035,0.0,-0.012,-0.007,-0.029,-0.995,0.026000000000000002,68.75,-13.35,-72.34,0.6915,-0.7105,0.1041,0.0779,-0.003,-0.003,0.004
2025-11-06 18:32:56.174,39.04,0.0,-0.018000000000000002,-0.007,-0.032,-0.998,0.025,68.75,-13.35,-72.34,0.6916,-0.7103,0.1041,0.078,-0.001,0.0,0.005
2025-11-06 18:32:56.174,39.045,-0.006,-0.02,-0.008,-0.03,-0.998,0.026000000000000002,68.54,-13.56,-73.13,0.6918000000000001,-0.7102,0.10400000000000001,0.0781,-0.002,0.0,0.004
2025-11-06 18:32:56.174,39.05,-0.006,-0.02,-0.009000000000000001,-0.032,-0.999,0.025,68.54,-13.56,-73.13,0.6919000000000001,-0.7100000000000001,0.10400000000000001,0.0782,0.0,0.0,0.004
2025-11-06 18:32:56.174,39.055,-0.008,-0.018000000000000002,-0.006,-0.034,-0.999,0.028,68.54,-13.56,-73.13,0.6920000000000001,-0.7100000000000001,0.10400000000000001,0.0782,0.001,0.0,0.0
2025-11-06 18:32:56.174,39.06,-0.007,-0.018000000000000002,-0.005,-0.036000000000000004,-0.997,0.029,68.75,-13.15,-72.28,0.6920000000000001,-0.7099000000000001,0.1042,0.0782,0.003,-0.001,0.0
2025-11-06 18:32:56.174,39.065,-0.005,-0.014,-0.002,-0.039,-0.995,0.032,68.75,-13.15,-72.28,0.6919000000000001,-0.7100000000000001,0.1044,0.078,0.005,-0.003,-0.002
2025-11-06 18:32:56.174,39.07,-0.005,-0.011,-0.001,-0.039,-0.994,0.033,69.8,-13.27,-72.63,0.6919000000000001,-0.7101000000000001,0.1046,0.0779,0.005,-0.004,-0.003
2025-11-06 18:32:56.174,39.075,-0.004,-0.016,0.0,-0.039,-0.993,0.036000000000000004,69.8,-13.27,-72.63,0.6917,-0.7102,0.10490000000000001,0.0777,0.005,-0.005,-0.005
2025-11-06 18:32:56.174,39.08,-0.002,-0.018000000000000002,0.001,-0.041,-0.994,0.036000000000000004,68.98,-13.5,-71.93,0.6915,-0.7103,0.1051,0.0775,0.006,-0.004,-0.005
2025-11-06 18:32:56.174,39.085,-0.001,-0.018000000000000002,0.003,-0.039,-0.995,0.038,68.98,-13.5,-71.93,0.6913,-0.7105,0.10540000000000001,0.07740000000000001,0.004,-0.003,-0.006
2025-11-06 18:32:56.174,39.09,-0.003,-0.022,0.005,-0.042,-0.992,0.041,68.98,-13.5,-71.93,0.6910000000000001,-0.7108,0.1057,0.0772,0.006,-0.006,-0.008
2025-11-06 18:32:56.174,39.095,-0.002,-0.029,0.002,-0.04,-0.992,0.041,69.19,-13.44,-72.93,0.6907,-0.7110000000000001,0.10590000000000001,0.0771,0.004,-0.006,-0.008
2025-11-06 18:32:56.174,39.1,-0.003,-0.031,0.001,-0.04,-0.992,0.045,69.19,-13.44,-72.93,0.6904,-0.7113,0.1062,0.077,0.003,-0.006,-0.01
2025-11-06 18:32:56.174,39.105,0.0,-0.033,0.001,-0.038,-0.993,0.047,68.48,-13.91,-72.87,0.6900000000000001,-0.7117,0.10640000000000001,0.077,0.001,-0.004,-0.012
2025-11-06 18:32:56.174,39.11,0.004,-0.035,-0.001,-0.034,-0.995,0.05,68.48,-13.91,-72.87,0.6895,-0.7122,0.10640000000000001,0.0771,-0.002,-0.003,-0.013000000000000001
2025-11-06 18:32:56.174,39.115,0.007,-0.033,-0.002,-0.032,-0.995,0.052000000000000005,68.69,-13.700000000000001,-72.81,0.6890000000000001,-0.7127,0.10640000000000001,0.0772,-0.004,-0.002,-0.014
2025-11-06 18:32:56.174,39.12,0.009000000000000001,-0.028,-0.003,-0.031,-0.995,0.053,68.69,-13.700000000000001,-72.81,0.6884,-0.7131000000000001,0.10640000000000001,0.07740000000000001,-0.005,-0.003,-0.014
2025-11-06 18:32:56.174,39.125,0.011,-0.02,-0.002,-0.029,-0.996,0.054,68.69,-13.700000000000001,-72.81,0.6879000000000001,-0.7136,0.1063,0.0776,-0.005,-0.001,-0.013000000000000001
2025-11-06 18:32:56.174,39.13,0.011,-0.014,-0.002,-0.031,-0.996,0.056,69.07000000000001,-13.85,-72.25,0.6874,-0.7141000000000001,0.1063,0.0777,-0.003,-0.001,-0.013000000000000001
2025-11-06 18:32:56.174,39.135,0.013000000000000001,-0.009000000000000001,-0.001,-0.029,-0.995,0.053,69.07000000000001,-13.85,-72.25,0.687,-0.7145,0.1062,0.0779,-0.005,-0.002,-0.01
2025-11-06 18:32:56.174,39.14,0.014,-0.003,0.0,-0.031,-0.995,0.052000000000000005,69.07000000000001,-13.27,-72.11,0.6867000000000001,-0.7148,0.1062,0.078,-0.003,-0.003,-0.008
2025-11-06 18:32:56.174,39.145,0.015,-0.003,0.0,-0.031,-0.996,0.052000000000000005,69.07000000000001,-13.27,-72.11,0.6864,-0.7151000000000001,0.1062,0.078,-0.002,-0.001,-0.007
2025-11-06 18:32:56.174,39.15,0.017,-0.004,0.0,-0.032,-0.995,0.053,69.07000000000001,-13.27,-72.11,0.6861,-0.7154,0.1062,0.0781,-0.001,-0.002,-0.007
2025-11-06 18:32:56.174,39.155,0.015,-0.006,0.003,-0.031,-0.996,0.052000000000000005,68.86,-13.32,-72.43,0.6859000000000001,-0.7156,0.1062,0.0781,-0.002,-0.001,-0.005
2025-11-06 18:32:56.174,39.16,0.013000000000000001,-0.011,0.004,-0.033,-0.996,0.051000000000000004,68.86,-13.32,-72.43,0.6857000000000001,-0.7157,0.1062,0.0781,0.0,-0.002,-0.004
2025-11-06 18:32:56.174,39.165,0.011,-0.011,0.005,-0.032,-0.997,0.05,69.24,-13.35,-72.11,0.6856,-0.7159,0.1062,0.0781,-0.001,0.0,-0.003
2025-11-06 18:32:56.174,39.17,0.009000000000000001,-0.015,0.002,-0.032,-0.996,0.047,69.24,-13.35,-72.11,0.6855,-0.7159,0.1062,0.0782,-0.001,-0.001,0.0
2025-11-06 18:32:56.177,39.175,0.007,-0.017,0.003,-0.032,-0.995,0.045,70.0,-14.06,-72.4,0.6856,-0.7158,0.1062,0.07830000000000001,0.0,-0.002,0.002
2025-11-06 18:32:56.177,39.18,0.003,-0.017,0.0,-0.033,-0.996,0.043000000000000003,70.0,-14.06,-72.4,0.6857000000000001,-0.7157,0.1062,0.07830000000000001,0.0,-0.001,0.003
2025-11-06 18:32:56.177,39.185,0.002,-0.022,0.0,-0.029,-0.996,0.042,70.0,-14.06,-72.4,0.6858000000000001,-0.7156,0.1061,0.0785,-0.003,-0.002,0.004
2025-11-06 18:32:56.177,39.19,0.004,-0.022,0.0,-0.029,-0.995,0.043000000000000003,68.81,-14.030000000000001,-72.49,0.6859000000000001,-0.7155,0.1061,0.0787,-0.003,-0.003,0.003
2025-11-06 18:32:56.177,39.195,0.003,-0.019,0.0,-0.029,-0.995,0.045,68.81,-14.030000000000001,-72.49,0.6859000000000001,-0.7155,0.10600000000000001,0.07880000000000001,-0.003,-0.002,0.001
2025-11-06 18:32:56.177,39.2,0.005,-0.022,0.0,-0.029,-0.998,0.046,68.89,-13.94,-72.96000000000001,0.6859000000000001,-0.7155,0.10600000000000001,0.0789,-0.002,0.0,0.0
2025-11-06 18:32:56.177,39.205,0.005,-0.023,-0.001,-0.027,-0.996,0.047,68.89,-13.94,-72.96000000000001,0.6858000000000001,-0.7156,0.10590000000000001,0.0791,-0.004,-0.001,0.0
2025-11-06 18:32:56.177,39.21,0.005,-0.02,0.0,-0.027,-0.996,0.046,68.89,-13.94,-72.96000000000001,0.6858000000000001,-0.7156,0.1058,0.07930000000000001,-0.004,-0.001,0.0
2025-11-06 18:32:56.177,39.215,0.005,-0.012,0.0,-0.026000000000000002,-0.996,0.048,68.57000000000001,-13.85,-72.49,0.6857000000000001,-0.7157,0.1057,0.0795,-0.004,-0.002,-0.002
2025-11-06 18:32:56.177,39.22,0.009000000000000001,-0.011,0.0,-0.025,-0.997,0.052000000000000005,68.57000000000001,-13.85,-72.49,0.6855,-0.7159,0.1056,0.07970000000000001,-0.004,0.0,-0.004
2025-11-06 18:32:56.177,39.225,0.008,-0.004,0.0,-0.025,-0.997,0.054,69.01,-14.26,-72.78,0.6852,-0.7161000000000001,0.10550000000000001,0.07980000000000001,-0.004,-0.001,-0.006
2025-11-06 18:32:56.177,39.23,0.013000000000000001,0.0,0.001,-0.028,-0.997,0.056,69.01,-14.26,-72.78,0.6849000000000001,-0.7164,0.10540000000000001,0.07980000000000001,-0.001,-0.001,-0.007
2025-11-06 18:32:56.177,39.235,0.015,0.001,0.003,-0.028,-0.997,0.058,68.4,-13.530000000000001,-72.9,0.6846,-0.7167,0.10540000000000001,0.07980000000000001,-0.001,0.0,-0.008
2025-11-06 18:32:56.177,39.24,0.011,0.004,0.002,-0.027,-0.996,0.059000000000000004,68.4,-13.530000000000001,-72.9,0.6843,-0.7170000000000001,0.10540000000000001,0.07980000000000001,-0.002,-0.002,-0.009000000000000001
2025-11-06 18:32:56.177,39.245,0.007,0.0,0.003,-0.029,-0.995,0.059000000000000004,68.4,-13.530000000000001,-72.9,0.684,-0.7173,0.10540000000000001,0.07980000000000001,0.0,-0.002,-0.008
2025-11-06 18:32:56.177,39.25,0.002,-0.001,0.003,-0.029,-0.997,0.059000000000000004,69.33,-13.91,-73.19,0.6837000000000001,-0.7176,0.10550000000000001,0.07980000000000001,0.0,-0.001,-0.007
2025-11-06 18:32:56.177,39.255,0.0,-0.004,0.005,-0.03,-0.997,0.057,69.33,-13.91,-73.19,0.6836,-0.7177,0.10550000000000001,0.07970000000000001,0.0,0.0,-0.005
2025-11-06 18:32:56.177,39.26,-0.005,-0.003,0.002,-0.03,-0.995,0.057,69.77,-13.73,-72.46000000000001,0.6834,-0.7178,0.10550000000000001,0.07970000000000001,0.0,-0.002,-0.004
2025-11-06 18:32:56.177,39.265,-0.004,-0.012,0.005,-0.031,-0.996,0.054,69.77,-13.73,-72.46000000000001,0.6834,-0.7179,0.1056,0.0796,0.001,-0.001,0.0
2025-11-06 18:32:56.177,39.27,-0.003,-0.016,0.003,-0.032,-0.996,0.053,69.77,-13.73,-72.46000000000001,0.6834,-0.7178,0.1057,0.0796,0.002,-0.002,0.0
2025-11-06 18:32:56.177,39.275,-0.008,-0.016,0.0,-0.032,-0.996,0.051000000000000004,68.86,-13.35,-73.01,0.6835,-0.7178,0.1058,0.0795,0.001,-0.001,0.001
2025-11-06 18:32:56.177,39.28,-0.008,-0.015,0.001,-0.034,-0.996,0.05,68.86,-13.35,-73.01,0.6836,-0.7176,0.10590000000000001,0.0794,0.003,-0.001,0.002
2025-11-06 18:32:56.177,39.285,-0.006,-0.02,0.0,-0.033,-0.997,0.048,68.43,-14.55,-72.66,0.6837000000000001,-0.7175,0.10600000000000001,0.0794,0.002,0.0,0.003
2025-11-06 18:32:56.177,39.29,-0.006,-0.017,-0.001,-0.033,-0.997,0.051000000000000004,68.43,-14.55,-72.66,0.6838000000000001,-0.7174,0.1061,0.0794,0.002,0.0,0.0
2025-11-06 18:32:56.177,39.295,-0.007,-0.028,-0.002,-0.034,-0.997,0.053,68.86,-13.700000000000001,-71.76,0.6837000000000001,-0.7175,0.1063,0.07930000000000001,0.002,0.0,-0.001
2025-11-06 18:32:56.177,39.3,-0.008,-0.028,-0.001,-0.033,-0.997,0.054,68.86,-13.700000000000001,-71.76,0.6837000000000001,-0.7175,0.10640000000000001,0.07930000000000001,0.002,0.0,-0.002
2025-11-06 18:32:56.177,39.305,-0.007,-0.034,-0.001,-0.033,-0.997,0.055,68.86,-13.700000000000001,-71.76,0.6836,-0.7176,0.10650000000000001,0.07930000000000001,0.002,0.0,-0.003
2025-11-06 18:32:56.177,39.31,-0.008,-0.03,0.0,-0.034,-0.999,0.055,68.75,-13.73,-71.79,0.6835,-0.7176,0.1067,0.0792,0.002,0.001,-0.002
2025-11-06 18:32:56.177,39.315,-0.01,-0.031,0.0,-0.033,-0.996,0.054,68.75,-13.73,-71.79,0.6835,-0.7177,0.1068,0.0792,0.0,-0.001,-0.001
2025-11-06 18:32:56.177,39.32,-0.006,-0.027,0.001,-0.034,-0.994,0.056,68.48,-13.65,-72.34,0.6834,-0.7177,0.10690000000000001,0.0792,0.001,-0.003,-0.003
2025-11-06 18:32:56.177,39.325,0.0,-0.025,0.0,-0.034,-0.996,0.06,68.48,-13.65,-72.34,0.6832,-0.7179,0.10700000000000001,0.0792,0.001,-0.001,-0.006
2025-11-06 18:32:56.177,39.33,0.0,-0.015,0.002,-0.035,-0.996,0.062,68.48,-13.65,-72.34,0.6829000000000001,-0.7182000000000001,0.1072,0.0791,0.002,-0.001,-0.007
2025-11-06 18:32:56.177,39.335,0.005,-0.01,0.005,-0.037,-0.993,0.064,68.60000000000001,-13.94,-72.34,0.6826,-0.7185,0.10740000000000001,0.0789,0.004,-0.004,-0.009000000000000001
2025-11-06 18:32:56.177,39.34,0.004,-0.014,0.006,-0.036000000000000004,-0.993,0.066,68.60000000000001,-13.94,-72.34,0.6822,-0.7188,0.1075,0.0787,0.003,-0.004,-0.009000000000000001
2025-11-06 18:32:56.177,39.345,0.003,-0.014,0.006,-0.035,-0.994,0.068,68.48,-13.56,-71.96000000000001,0.6819000000000001,-0.7191000000000001,0.1077,0.0786,0.002,-0.003,-0.011
2025-11-06 18:32:56.177,39.35,0.0,-0.012,0.005,-0.033,-0.995,0.068,68.48,-13.56,-71.96000000000001,0.6815,-0.7194,0.1078,0.0786,0.0,-0.002,-0.01
2025-11-06 18:32:56.177,39.355,-0.001,-0.009000000000000001,0.005,-0.034,-0.996,0.069,68.63,-13.41,-72.14,0.6812,-0.7197,0.10790000000000001,0.0786,0.0,-0.001,-0.01
2025-11-06 18:32:56.177,39.36,-0.004,-0.004,0.008,-0.031,-0.995,0.066,68.63,-13.41,-72.14,0.6809000000000001,-0.7200000000000001,0.10790000000000001,0.0786,-0.002,-0.001,-0.006
2025-11-06 18:32:56.177,39.365,-0.006,0.0,0.008,-0.031,-0.995,0.068,68.63,-13.41,-72.14,0.6807000000000001,-0.7202000000000001,0.10790000000000001,0.0787,-0.001,-0.001,-0.007
2025-11-06 18:32:56.177,39.37,-0.006,0.003,0.009000000000000001,-0.03,-0.994,0.068,68.51,-13.620000000000001,-72.81,0.6804,-0.7204,0.1078,0.0787,-0.003,-0.002,-0.007
2025-11-06 18:32:56.177,39.375,-0.007,0.0,0.009000000000000001,-0.03,-0.994,0.068,68.51,-13.620000000000001,-72.81,0.6802,-0.7206,0.1078,0.07880000000000001,-0.003,-0.003,-0.006
2025-11-06 18:32:56.177,39.38,-0.006,-0.005,0.011,-0.03,-0.995,0.067,69.19,-13.59,-72.17,0.68,-0.7208,0.1078,0.0789,-0.002,-0.001,-0.005
2025-11-06 18:32:56.177,39.385,-0.006,-0.006,0.009000000000000001,-0.028,-0.997,0.067,69.19,-13.59,-72.17,0.6799000000000001,-0.7209,0.1077,0.079,-0.004,0.0,-0.004
2025-11-06 18:32:56.177,39.39,-0.006,-0.012,0.011,-0.028,-0.994,0.065,69.19,-13.59,-72.17,0.6798000000000001,-0.7210000000000001,0.1077,0.0791,-0.003,-0.002,-0.002
2025-11-06 18:32:56.179,39.395,-0.008,-0.013000000000000001,0.009000000000000001,-0.027,-0.996,0.061,68.72,-13.27,-72.43,0.6798000000000001,-0.7210000000000001,0.1076,0.07930000000000001,-0.004,-0.001,0.001
2025-11-06 18:32:56.179,39.4,-0.005,-0.016,0.011,-0.029,-0.998,0.054,68.72,-13.27,-72.43,0.6801,-0.7207,0.1075,0.0794,-0.002,0.0,0.008
2025-11-06 18:32:56.179,39.405,-0.005,-0.02,0.01,-0.03,-0.996,0.052000000000000005,69.59,-13.56,-72.05,0.6804,-0.7204,0.1075,0.0795,0.0,-0.001,0.009000000000000001
2025-11-06 18:32:56.179,39.41,-0.006,-0.018000000000000002,0.009000000000000001,-0.031,-0.996,0.049,69.59,-13.56,-72.05,0.6808000000000001,-0.7201000000000001,0.1075,0.0796,0.0,0.0,0.01
2025-11-06 18:32:56.179,39.415,-0.011,-0.016,0.009000000000000001,-0.032,-0.998,0.048,68.89,-13.91,-72.4,0.6812,-0.7197,0.1075,0.07970000000000001,0.0,0.0,0.011
2025-11-06 18:32:56.179,39.42,-0.009000000000000001,-0.014,0.011,-0.034,-0.998,0.047,68.89,-13.91,-72.4,0.6816,-0.7193,0.1076,0.0796,0.002,0.0,0.01
2025-11-06 18:32:56.179,39.425,-0.007,-0.014,0.011,-0.034,-1.0,0.047,68.89,-13.91,-72.4,0.6819000000000001,-0.7190000000000001,0.1076,0.0796,0.002,0.002,0.009000000000000001
2025-11-06 18:32:56.179,39.43,-0.009000000000000001,-0.015,0.012,-0.034,-0.999,0.049,70.09,-13.38,-72.08,0.6822,-0.7187,0.1077,0.0796,0.002,0.001,0.007
2025-11-06 18:32:56.179,39.435,-0.011,-0.012,0.012,-0.033,-0.999,0.049,70.09,-13.38,-72.08,0.6824,-0.7185,0.1078,0.0796,0.001,0.001,0.006
2025-11-06 18:32:56.179,39.44,-0.009000000000000001,-0.014,0.013000000000000001,-0.035,-0.998,0.048,69.19,-13.59,-71.7,0.6826,-0.7182000000000001,0.10790000000000001,0.0795,0.002,0.0,0.006
2025-11-06 18:32:56.179,39.445,-0.013000000000000001,-0.014,0.012,-0.035,-0.999,0.05,69.19,-13.59,-71.7,0.6828000000000001,-0.7181000000000001,0.10790000000000001,0.0795,0.002,0.001,0.004
2025-11-06 18:32:56.179,39.45,-0.017,-0.009000000000000001,0.011,-0.035,-0.998,0.047,69.19,-13.59,-71.7,0.6831,-0.7178,0.108,0.0794,0.002,0.0,0.006
2025-11-06 18:32:56.179,39.455,-0.02,0.0,0.009000000000000001,-0.036000000000000004,-0.998,0.043000000000000003,69.01,-13.18,-72.08,0.6835,-0.7174,0.1081,0.0794,0.002,0.0,0.01
2025-11-06 18:32:56.179,39.46,-0.024,0.007,0.009000000000000001,-0.037,-1.0,0.039,69.01,-13.18,-72.08,0.684,-0.7170000000000001,0.1081,0.07930000000000001,0.003,0.002,0.012
2025-11-06 18:32:56.179,39.465,-0.027,0.017,0.007,-0.037,-0.999,0.036000000000000004,68.95,-13.32,-72.02,0.6845,-0.7165,0.1081,0.0792,0.003,0.001,0.013000000000000001
2025-11-06 18:32:56.179,39.47,-0.03,0.04,0.005,-0.037,-0.998,0.034,68.95,-13.32,-72.02,0.6851,-0.7160000000000001,0.1081,0.0791,0.002,0.0,0.014
2025-11-06 18:32:56.179,39.475,-0.032,0.05,0.003,-0.035,-0.999,0.03,69.13,-13.65,-71.29,0.6857000000000001,-0.7154,0.10790000000000001,0.079,0.0,0.0,0.017
2025-11-06 18:32:56.179,39.48,-0.036000000000000004,0.061,-0.001,-0.034,-0.997,0.03,69.13,-13.65,-71.29,0.6863,-0.7148,0.1077,0.079,0.0,0.0,0.015
2025-11-06 18:32:56.179,39.485,-0.039,0.067,-0.002,-0.035,-0.995,0.029,69.13,-13.65,-71.29,0.6869000000000001,-0.7143,0.1075,0.0789,0.0,-0.002,0.014
2025-11-06 18:32:56.179,39.49,-0.04,0.07,-0.004,-0.035,-0.995,0.032,69.19,-13.030000000000001,-72.99,0.6873,-0.7139,0.10740000000000001,0.07880000000000001,0.0,-0.002,0.009000000000000001
2025-11-06 18:32:56.179,39.495,-0.043000000000000003,0.068,-0.004,-0.033,-0.995,0.036000000000000004,69.19,-13.030000000000001,-72.99,0.6876,-0.7137,0.1071,0.07880000000000001,-0.001,-0.002,0.005
2025-11-06 18:32:56.182,39.5,-0.044,0.07,-0.006,-0.031,-0.997,0.036000000000000004,68.60000000000001,-12.97,-71.96000000000001,0.6878000000000001,-0.7135,0.10690000000000001,0.07880000000000001,-0.002,-0.001,0.004
2025-11-06 18:32:56.182,39.505,-0.045,0.067,-0.006,-0.032,-0.998,0.039,68.60000000000001,-12.97,-71.96000000000001,0.6880000000000001,-0.7134,0.1067,0.07880000000000001,-0.001,0.0,0.001
2025-11-06 18:32:56.182,39.51,-0.044,0.069,-0.005,-0.032,-0.999,0.038,68.86,-13.47,-72.84,0.6881,-0.7133,0.10650000000000001,0.0787,-0.001,0.001,0.001
2025-11-06 18:32:56.182,39.515,-0.043000000000000003,0.077,-0.002,-0.036000000000000004,-0.998,0.039,68.86,-13.47,-72.84,0.6882,-0.7132000000000001,0.10640000000000001,0.0785,0.001,0.0,0.0
2025-11-06 18:32:56.182,39.52,-0.043000000000000003,0.083,-0.001,-0.036000000000000004,-0.998,0.039,68.86,-13.47,-72.84,0.6884,-0.7131000000000001,0.1063,0.07830000000000001,0.001,0.0,0.0
2025-11-06 18:32:56.182,39.525,-0.039,0.083,0.002,-0.035,-0.997,0.039,68.66,-13.44,-71.67,0.6885,-0.7130000000000001,0.1062,0.0782,0.0,0.0,0.0
2025-11-06 18:32:56.182,39.53,-0.039,0.085,0.003,-0.035,-0.994,0.039,68.66,-13.44,-71.67,0.6886,-0.7130000000000001,0.1061,0.078,0.0,-0.003,0.0
2025-11-06 18:32:56.182,39.535,-0.041,0.08700000000000001,0.006,-0.037,-0.994,0.037,68.92,-13.15,-72.23,0.6887,-0.7129000000000001,0.10600000000000001,0.07780000000000001,0.002,-0.003,0.001
2025-11-06 18:32:56.182,39.54,-0.045,0.083,0.005,-0.037,-0.993,0.036000000000000004,68.92,-13.15,-72.23,0.6889000000000001,-0.7127,0.10590000000000001,0.0776,0.002,-0.004,0.002
2025-11-06 18:32:56.182,39.545,-0.049,0.079,0.005,-0.039,-0.995,0.033,68.92,-13.15,-72.23,0.6892,-0.7125,0.10590000000000001,0.07730000000000001,0.003,-0.003,0.004
2025-11-06 18:32:56.182,39.55,-0.049,0.076,0.005,-0.037,-0.995,0.032,68.72,-14.11,-72.37,0.6894,-0.7123,0.1058,0.0772,0.001,-0.002,0.004
2025-11-06 18:32:56.182,39.555,-0.05,0.07200000000000001,0.006,-0.038,-0.995,0.033,68.72,-14.11,-72.37,0.6897,-0.7121000000000001,0.1057,0.077,0.001,-0.002,0.003
2025-11-06 18:32:56.182,39.56,-0.052000000000000005,0.062,0.005,-0.036000000000000004,-0.994,0.033,68.57000000000001,-13.3,-72.43,0.6899000000000001,-0.7119000000000001,0.1056,0.07690000000000001,0.0,-0.003,0.002
2025-11-06 18:32:56.182,39.565,-0.049,0.057,0.007,-0.036000000000000004,-0.996,0.032,68.57000000000001,-13.3,-72.43,0.6901,-0.7118,0.10550000000000001,0.07680000000000001,0.0,-0.002,0.003
2025-11-06 18:32:56.182,39.57,-0.051000000000000004,0.053,0.007,-0.034,-0.996,0.033,68.83,-13.32,-72.61,0.6902,-0.7116,0.10540000000000001,0.0767,-0.001,-0.002,0.002
2025-11-06 18:32:56.182,39.575,-0.052000000000000005,0.048,0.009000000000000001,-0.032,-0.996,0.031,68.83,-13.32,-72.61,0.6904,-0.7115,0.1051,0.07680000000000001,-0.003,-0.002,0.003
2025-11-06 18:32:56.182,39.58,-0.054,0.043000000000000003,0.005,-0.03,-0.997,0.029,68.83,-13.32,-72.61,0.6907,-0.7112,0.10490000000000001,0.07690000000000001,-0.005,0.0,0.004
2025-11-06 18:32:56.182,39.585,-0.055,0.04,0.006,-0.03,-0.998,0.028,69.04,-13.59,-73.01,0.6909000000000001,-0.7110000000000001,0.1046,0.077,-0.005,0.0,0.004
2025-11-06 18:32:56.182,39.59,-0.057,0.044,0.005,-0.03,-1.0,0.025,69.04,-13.59,-73.01,0.6913,-0.7107,0.1044,0.077,-0.003,0.001,0.007
2025-11-06 18:32:56.182,39.595,-0.055,0.053,0.007,-0.03,-1.0,0.022,68.92,-13.65,-72.37,0.6917,-0.7104,0.1041,0.0771,-0.004,0.001,0.008
2025-11-06 18:32:56.184,39.6,-0.06,0.054,0.005,-0.03,-0.997,0.021,68.92,-13.65,-72.37,0.6921,-0.7100000000000001,0.1038,0.0771,-0.003,-0.001,0.008
2025-11-06 18:32:56.184,39.605,-0.06,0.06,0.008,-0.028,-0.994,0.02,68.92,-13.65,-72.37,0.6925,-0.7097,0.10350000000000001,0.0772,-0.004,-0.004,0.008
2025-11-06 18:32:56.184,39.61,-0.058,0.058,0.008,-0.03,-0.993,0.02,69.3,-13.15,-73.8,0.6928000000000001,-0.7094,0.1033,0.0772,-0.003,-0.005,0.007
2025-11-06 18:32:56.184,39.615,-0.055,0.056,0.009000000000000001,-0.029,-0.992,0.022,69.3,-13.15,-73.8,0.6931,-0.7091000000000001,0.10310000000000001,0.07730000000000001,-0.003,-0.006,0.004
2025-11-06 18:32:56.184,39.62,-0.052000000000000005,0.055,0.009000000000000001,-0.028,-0.991,0.024,68.45,-12.89,-72.78,0.6933,-0.7090000000000001,0.1028,0.07730000000000001,-0.004,-0.007,0.002
2025-11-06 18:32:56.184,39.625,-0.05,0.054,0.006,-0.027,-0.993,0.032,68.45,-12.89,-72.78,0.6932,-0.7091000000000001,0.10260000000000001,0.07730000000000001,-0.004,-0.005,-0.005
2025-11-06 18:32:56.184,39.63,-0.048,0.048,0.004,-0.028,-0.994,0.034,68.75,-12.97,-72.78,0.6930000000000001,-0.7093,0.1024,0.07730000000000001,-0.003,-0.004,-0.007
2025-11-06 18:32:56.184,39.635,-0.046,0.051000000000000004,0.002,-0.028,-0.994,0.039,68.75,-12.97,-72.78,0.6927,-0.7096,0.1022,0.07730000000000001,-0.003,-0.004,-0.011
2025-11-06 18:32:56.184,39.64,-0.046,0.057,0.003,-0.029,-0.992,0.042,68.75,-12.97,-72.78,0.6923,-0.7100000000000001,0.10210000000000001,0.0772,-0.002,-0.006,-0.013000000000000001
2025-11-06 18:32:56.184,39.645,-0.046,0.053,0.003,-0.031,-0.991,0.045,68.86,-13.120000000000001,-73.51,0.6919000000000001,-0.7105,0.10200000000000001,0.077,0.0,-0.007,-0.015
2025-11-06 18:32:56.184,39.65,-0.043000000000000003,0.055,0.002,-0.031,-0.99,0.045,68.86,-13.120000000000001,-73.51,0.6915,-0.7109000000000001,0.10200000000000001,0.07690000000000001,0.0,-0.008,-0.014
2025-11-06 18:32:56.184,39.655,-0.04,0.058,0.003,-0.032,-0.989,0.043000000000000003,68.45,-12.77,-72.87,0.6912,-0.7112,0.1019,0.0767,0.0,-0.009000000000000001,-0.011
2025-11-06 18:32:56.184,39.66,-0.036000000000000004,0.061,0.003,-0.03,-0.99,0.041,68.45,-12.77,-72.87,0.6910000000000001,-0.7114,0.1018,0.0765,-0.001,-0.008,-0.008
2025-11-06 18:32:56.184,39.665,-0.03,0.053,0.001,-0.033,-0.991,0.041,68.45,-12.77,-72.87,0.6908000000000001,-0.7116,0.1018,0.07640000000000001,0.001,-0.007,-0.007
2025-11-06 18:32:56.184,39.67,-0.026000000000000002,0.051000000000000004,0.002,-0.036000000000000004,-0.995,0.037,68.4,-12.86,-73.19,0.6908000000000001,-0.7117,0.1019,0.0761,0.003,-0.003,-0.003
2025-11-06 18:32:56.184,39.675,-0.024,0.053,0.002,-0.038,-0.996,0.034,68.4,-12.86,-73.19,0.6908000000000001,-0.7116,0.10200000000000001,0.0758,0.005,-0.002,0.0
2025-11-06 18:32:56.184,39.68,-0.025,0.043000000000000003,0.003,-0.039,-0.996,0.033,68.34,-13.76,-72.55,0.6909000000000001,-0.7116,0.10210000000000001,0.0756,0.006,-0.002,0.0
2025-11-06 18:32:56.184,39.685,-0.025,0.04,0.003,-0.038,-0.995,0.029,68.34,-13.76,-72.55,0.6911,-0.7114,0.10210000000000001,0.0753,0.004,-0.003,0.003
2025-11-06 18:32:56.184,39.69,-0.027,0.032,0.002,-0.039,-0.994,0.026000000000000002,68.54,-13.5,-72.37,0.6914,-0.7111000000000001,0.1022,0.0751,0.005,-0.004,0.005
2025-11-06 18:32:56.184,39.695,-0.027,0.017,0.002,-0.039,-0.993,0.021,68.54,-13.5,-72.37,0.6918000000000001,-0.7108,0.1023,0.07490000000000001,0.004,-0.005,0.009000000000000001
2025-11-06 18:32:56.184,39.7,-0.025,0.009000000000000001,0.005,-0.039,-0.994,0.019,68.54,-13.5,-72.37,0.6922,-0.7103,0.1024,0.0748,0.004,-0.004,0.011
2025-11-06 18:32:56.184,39.705,-0.025,-0.001,0.003,-0.041,-0.995,0.016,69.10000000000001,-13.35,-73.25,0.6927,-0.7099000000000001,0.10250000000000001,0.0747,0.005,-0.003,0.012
2025-11-06 18:32:56.184,39.71,-0.022,-0.004,0.005,-0.041,-0.994,0.015,69.10000000000001,-13.35,-73.25,0.6932,-0.7094,0.10260000000000001,0.0745,0.005,-0.004,0.012
2025-11-06 18:32:56.184,39.715,-0.019,-0.008,0.004,-0.04,-0.995,0.011,69.04,-13.18,-73.37,0.6938000000000001,-0.7088,0.1027,0.0745,0.003,-0.003,0.015
2025-11-06 18:32:56.184,39.72,-0.019,-0.007,0.004,-0.039,-0.993,0.01,69.04,-13.18,-73.37,0.6943,-0.7083,0.1027,0.07440000000000001,0.002,-0.005,0.014
2025-11-06 18:32:56.184,39.725,-0.016,-0.007,0.004,-0.039,-0.994,0.008,69.04,-13.18,-73.37,0.6948000000000001,-0.7078,0.1028,0.07440000000000001,0.002,-0.005,0.015
2025-11-06 18:32:56.184,39.73,-0.011,-0.009000000000000001,0.001,-0.038,-0.994,0.009000000000000001,68.66,-12.83,-73.22,0.6953,-0.7074,0.1027,0.07440000000000001,0.0,-0.004,0.012
2025-11-06 18:32:56.184,39.735,-0.01,-0.014,0.002,-0.037,-0.994,0.011,68.66,-12.83,-73.22,0.6956,-0.7070000000000001,0.1027,0.0745,0.0,-0.004,0.009000000000000001
2025-11-06 18:32:56.184,39.74,-0.006,-0.013000000000000001,0.003,-0.035,-0.993,0.016,68.92,-13.44,-72.72,0.6958000000000001,-0.7069000000000001,0.10260000000000001,0.0746,-0.001,-0.005,0.004
2025-11-06 18:32:56.184,39.745,-0.008,-0.016,0.0,-0.037,-0.993,0.018000000000000002,68.92,-13.44,-72.72,0.6958000000000001,-0.7068,0.1027,0.0746,0.0,-0.006,0.002
2025-11-06 18:32:56.184,39.75,-0.01,-0.013000000000000001,0.0,-0.035,-0.993,0.017,70.06,-13.24,-73.86,0.6959000000000001,-0.7067,0.10260000000000001,0.0747,-0.002,-0.005,0.002
2025-11-06 18:32:56.184,39.755,-0.01,-0.017,0.0,-0.035,-0.993,0.02,70.06,-13.24,-73.86,0.6959000000000001,-0.7067,0.10260000000000001,0.0747,-0.001,-0.005,0.0
2025-11-06 18:32:56.184,39.76,-0.008,-0.014,0.003,-0.034,-0.993,0.023,70.06,-13.24,-73.86,0.6958000000000001,-0.7068,0.10260000000000001,0.0748,-0.002,-0.005,-0.002
2025-11-06 18:32:56.184,39.765,-0.01,-0.015,0.001,-0.034,-0.992,0.024,68.60000000000001,-13.5,-73.16,0.6957,-0.7069000000000001,0.10250000000000001,0.07490000000000001,-0.002,-0.006,-0.004
2025-11-06 18:32:56.184,39.77,-0.013000000000000001,-0.011,0.005,-0.033,-0.994,0.025,68.60000000000001,-13.5,-73.16,0.6955,-0.7071000000000001,0.10250000000000001,0.075,-0.002,-0.004,-0.004
2025-11-06 18:32:56.184,39.775,-0.014,-0.006,0.003,-0.034,-0.995,0.025,68.81,-13.15,-73.75,0.6954,-0.7072,0.10250000000000001,0.075,-0.001,-0.003,-0.003
2025-11-06 18:32:56.184,39.78,-0.015,0.001,0.004,-0.036000000000000004,-0.997,0.022,68.81,-13.15,-73.75,0.6954,-0.7072,0.10250000000000001,0.075,0.0,-0.002,-0.001
2025-11-06 18:32:56.184,39.785,-0.016,0.002,0.006,-0.036000000000000004,-0.997,0.021,68.81,-13.15,-73.75,0.6954,-0.7072,0.10250000000000001,0.075,0.0,-0.001,0.0
2025-11-06 18:32:56.184,39.79,-0.017,0.006,0.006,-0.038,-0.994,0.017,68.78,-13.47,-73.60000000000001,0.6956,-0.7070000000000001,0.10250000000000001,0.07490000000000001,0.001,-0.004,0.003
2025-11-06 18:32:56.184,39.795,-0.016,0.009000000000000001,0.008,-0.037,-0.994,0.013000000000000001,68.78,-13.47,-73.60000000000001,0.6959000000000001,-0.7067,0.10260000000000001,0.07490000000000001,0.001,-0.004,0.007
2025-11-06 18:32:56.184,39.8,-0.014,0.008,0.008,-0.038,-0.995,0.009000000000000001,68.63,-13.41,-73.39,0.6962,-0.7064,0.10260000000000001,0.0748,0.001,-0.003,0.009000000000000001
2025-11-06 18:32:56.184,39.805,-0.014,0.01,0.006,-0.038,-0.996,0.01,68.63,-13.41,-73.39,0.6965,-0.7061000000000001,0.10260000000000001,0.0748,0.001,-0.002,0.008
2025-11-06 18:32:56.184,39.81,-0.012,0.012,0.006,-0.04,-0.996,0.01,68.60000000000001,-13.0,-73.45,0.6968000000000001,-0.7058,0.10260000000000001,0.0747,0.003,-0.002,0.007
2025-11-06 18:32:56.184,39.815,-0.01,0.011,0.008,-0.042,-0.996,0.011,68.60000000000001,-13.0,-73.45,0.6970000000000001,-0.7056,0.1027,0.0745,0.004,-0.002,0.005
2025-11-06 18:32:56.184,39.82,-0.011,0.01,0.006,-0.042,-0.997,0.012,68.60000000000001,-13.0,-73.45,0.6972,-0.7054,0.1029,0.07440000000000001,0.003,-0.001,0.003
2025-11-06 18:32:56.184,39.825,-0.01,0.004,0.006,-0.041,-0.997,0.017,68.48,-14.200000000000001,-73.45,0.6972,-0.7054,0.1029,0.0743,0.002,-0.001,0.0
2025-11-06 18:32:56.184,39.83,-0.011,0.0,0.005,-0.04,-0.997,0.02,68.48,-14.200000000000001,-73.45,0.6971,-0.7055,0.10300000000000001,0.0742,0.001,-0.001,-0.003
2025-11-06 18:32:56.184,39.835,-0.011,-0.004,0.006,-0.04,-0.997,0.022,69.04,-13.59,-73.16,0.6970000000000001,-0.7057,0.10310000000000001,0.0742,0.001,-0.001,-0.005
2025-11-06 18:32:56.187,39.84,-0.016,-0.009000000000000001,0.001,-0.039,-0.998,0.023,69.04,-13.59,-73.16,0.6968000000000001,-0.7058,0.1032,0.0742,0.0,0.0,-0.006
2025-11-06 18:32:56.187,39.845,-0.018000000000000002,-0.008,0.002,-0.037,-0.999,0.027,69.04,-13.59,-72.99,0.6965,-0.7061000000000001,0.1032,0.0742,-0.001,0.0,-0.008
2025-11-06 18:32:56.187,39.85,-0.021,-0.015,0.003,-0.035,-0.997,0.029,68.72,-13.120000000000001,-72.99,0.6962,-0.7064,0.1032,0.0743,-0.003,-0.001,-0.01
2025-11-06 18:32:56.187,39.855,-0.022,-0.015,0.005,-0.033,-0.996,0.029,68.72,-13.120000000000001,-72.99,0.6959000000000001,-0.7067,0.10310000000000001,0.0745,-0.004,-0.002,-0.009000000000000001
2025-11-06 18:32:56.187,39.86,-0.025,-0.015,0.005,-0.031,-0.996,0.029,68.60000000000001,-13.68,-73.01,0.6956,-0.7070000000000001,0.10300000000000001,0.0747,-0.006,-0.002,-0.009000000000000001
2025-11-06 18:32:56.187,39.865,-0.024,-0.017,0.005,-0.03,-0.996,0.028,68.60000000000001,-13.68,-73.01,0.6954,-0.7072,0.1028,0.07490000000000001,-0.006,-0.002,-0.007
2025-11-06 18:32:56.187,39.87,-0.026000000000000002,-0.02,0.004,-0.031,-0.999,0.026000000000000002,68.86,-13.09,-73.13,0.6953,-0.7073,0.1027,0.0751,-0.005,0.0,-0.004
2025-11-06 18:32:56.187,39.875,-0.027,-0.014,0.008,-0.031,-0.997,0.023,68.86,-13.09,-73.13,0.6952,-0.7073,0.10260000000000001,0.0752,-0.004,-0.001,-0.001
2025-11-06 18:32:56.187,39.88,-0.025,-0.011,0.006,-0.033,-0.997,0.022,68.86,-13.09,-73.13,0.6952,-0.7073,0.10260000000000001,0.0753,-0.002,-0.001,-0.001
2025-11-06 18:32:56.187,39.885,-0.021,-0.006,0.009000000000000001,-0.033,-0.994,0.021,68.78,-12.92,-73.25,0.6953,-0.7073,0.10250000000000001,0.07540000000000001,-0.002,-0.004,0.0
2025-11-06 18:32:56.187,39.89,-0.017,-0.007,0.008,-0.034,-0.993,0.022,68.78,-12.92,-73.25,0.6952,-0.7073,0.10250000000000001,0.07540000000000001,0.0,-0.005,-0.001
2025-11-06 18:32:56.187,39.895,-0.009000000000000001,-0.006,0.009000000000000001,-0.036000000000000004,-0.989,0.024,69.07000000000001,-13.3,-73.42,0.6952,-0.7074,0.10260000000000001,0.07540000000000001,0.0,-0.009000000000000001,-0.002
2025-11-06 18:32:56.187,39.9,-0.005,-0.006,0.008,-0.037,-0.991,0.026000000000000002,69.07000000000001,-13.3,-73.42,0.6950000000000001,-0.7075,0.1027,0.0753,0.001,-0.007,-0.004
2025-11-06 18:32:56.187,39.905,-0.001,-0.004,0.006,-0.037,-0.99,0.028,69.59,-13.530000000000001,-72.49,0.6948000000000001,-0.7077,0.1028,0.0753,0.001,-0.008,-0.005
2025-11-06 18:32:56.187,39.91,-0.001,-0.008,0.004,-0.038,-0.992,0.027,69.59,-13.530000000000001,-72.49,0.6947,-0.7078,0.1029,0.0752,0.001,-0.006,-0.004
2025-11-06 18:32:56.187,39.915,-0.002,-0.007,0.002,-0.04,-0.992,0.03,69.59,-13.530000000000001,-72.49,0.6945,-0.7080000000000001,0.10300000000000001,0.075,0.003,-0.006,-0.006
2025-11-06 18:32:56.187,39.92,-0.003,-0.018000000000000002,0.001,-0.039,-0.993,0.03,69.10000000000001,-13.700000000000001,-72.99,0.6943,-0.7082,0.1032,0.075,0.002,-0.005,-0.006
2025-11-06 18:32:56.187,39.925,-0.003,-0.019,0.0,-0.041,-0.996,0.032,69.10000000000001,-13.700000000000001,-72.99,0.6941,-0.7084,0.1034,0.0748,0.003,-0.002,-0.007
2025-11-06 18:32:56.187,39.93,0.0,-0.022,-0.002,-0.038,-0.995,0.03,69.39,-13.24,-73.13,0.6939000000000001,-0.7085,0.10350000000000001,0.0748,0.001,-0.003,-0.004
2025-11-06 18:32:56.187,39.935,0.0,-0.02,-0.002,-0.036000000000000004,-0.997,0.032,69.39,-13.24,-73.13,0.6937,-0.7087,0.10350000000000001,0.07490000000000001,0.0,-0.001,-0.006
2025-11-06 18:32:56.187,39.94,-0.002,-0.023,-0.001,-0.035,-0.996,0.031,69.39,-13.24,-73.13,0.6935,-0.7089000000000001,0.10350000000000001,0.07490000000000001,-0.001,-0.002,-0.005
2025-11-06 18:32:56.187,39.945,-0.006,-0.022,-0.002,-0.034,-0.997,0.031,68.75,-13.21,-72.75,0.6933,-0.7091000000000001,0.10350000000000001,0.075,-0.002,-0.001,-0.004
2025-11-06 18:32:56.187,39.95,-0.002,-0.023,0.0,-0.034,-0.995,0.029,68.75,-13.21,-72.75,0.6933,-0.7091000000000001,0.10350000000000001,0.0752,-0.002,-0.003,-0.002
2025-11-06 18:32:56.187,39.955,0.0,-0.022,0.0,-0.034,-0.995,0.028,69.21000000000001,-13.88,-73.01,0.6932,-0.7092,0.10350000000000001,0.0753,-0.002,-0.003,-0.001
2025-11-06 18:32:56.187,39.96,0.001,-0.024,0.001,-0.037,-0.992,0.025,69.21000000000001,-13.88,-73.01,0.6932,-0.7091000000000001,0.10350000000000001,0.0753,0.0,-0.006,0.001
2025-11-06 18:32:56.187,39.965,0.004,-0.025,0.0,-0.037,-0.993,0.025,69.16,-13.32,-73.22,0.6933,-0.7091000000000001,0.10360000000000001,0.0753,0.0,-0.005,0.001
2025-11-06 18:32:56.187,39.97,0.007,-0.029,0.002,-0.04,-0.992,0.025,69.16,-13.32,-73.22,0.6933,-0.7090000000000001,0.1037,0.0753,0.003,-0.006,0.001
2025-11-06 18:32:56.187,39.975,0.01,-0.029,0.002,-0.039,-0.993,0.027,69.16,-13.32,-73.22,0.6933,-0.7090000000000001,0.1039,0.0752,0.001,-0.005,0.0
2025-11-06 18:32:56.188,39.98,0.011,-0.03,0.0,-0.04,-0.995,0.029,68.57000000000001,-13.32,-72.81,0.6932,-0.7091000000000001,0.10400000000000001,0.0752,0.002,-0.002,-0.002
2025-11-06 18:32:56.188,39.985,0.012,-0.029,0.002,-0.041,-0.995,0.03,68.57000000000001,-13.32,-72.81,0.6931,-0.7092,0.1042,0.0751,0.003,-0.003,-0.002
2025-11-06 18:32:56.188,39.99,0.011,-0.029,0.001,-0.04,-0.993,0.032,69.13,-13.620000000000001,-72.99,0.6929000000000001,-0.7093,0.1044,0.075,0.002,-0.004,-0.004
2025-11-06 18:32:56.188,39.995,0.01,-0.025,0.0,-0.04,-0.994,0.034,69.13,-13.620000000000001,-72.99,0.6927,-0.7095,0.10450000000000001,0.075,0.002,-0.004,-0.005
2025-11-06 18:32:56.188,40.0,0.009000000000000001,-0.022,-0.002,-0.038,-0.995,0.032,69.13,-13.620000000000001,-72.99,0.6926,-0.7096,0.1046,0.075,0.0,-0.003,-0.003
2025-11-06 18:32:56.188,40.005,0.01,-0.022,-0.001,-0.038,-0.995,0.03,68.45,-13.5,-73.25,0.6925,-0.7097,0.1046,0.075,0.0,-0.003,0.0
2025-11-06 18:32:56.188,40.01,0.009000000000000001,-0.014,-0.001,-0.038,-0.993,0.03,68.45,-13.5,-73.25,0.6925,-0.7097,0.1046,0.075,0.0,-0.005,0.0
2025-11-06 18:32:56.188,40.015,0.008,-0.013000000000000001,0.0,-0.037,-0.996,0.03,68.75,-13.59,-72.87,0.6924,-0.7098,0.1046,0.0751,-0.001,-0.002,0.0
2025-11-06 18:32:56.188,40.02,0.008,-0.011,-0.001,-0.035,-0.995,0.03,68.75,-13.59,-72.87,0.6924,-0.7098,0.1046,0.0752,-0.002,-0.003,0.0
2025-11-06 18:32:56.188,40.025,0.007,-0.014,-0.001,-0.035,-0.996,0.032,68.60000000000001,-12.89,-73.13,0.6923,-0.7099000000000001,0.1046,0.0753,-0.002,-0.002,-0.002
2025-11-06 18:32:56.188,40.03,0.01,-0.012,0.0,-0.035,-0.996,0.031,68.60000000000001,-12.89,-73.13,0.6922,-0.7100000000000001,0.10450000000000001,0.07540000000000001,-0.002,-0.001,-0.001
2025-11-06 18:32:56.188,40.035,0.011,-0.013000000000000001,0.0,-0.034,-0.995,0.031,68.60000000000001,-12.89,-73.13,0.6921,-0.7101000000000001,0.10450000000000001,0.0755,-0.002,-0.003,0.0
2025-11-06 18:32:56.188,40.04,0.011,-0.016,-0.001,-0.036000000000000004,-0.994,0.03,69.65,-13.030000000000001,-72.61,0.6921,-0.7101000000000001,0.10450000000000001,0.0755,-0.001,-0.004,0.0
2025-11-06 18:32:56.188,40.045,0.013000000000000001,-0.017,0.0,-0.036000000000000004,-0.995,0.03,69.65,-13.030000000000001,-72.61,0.6920000000000001,-0.7101000000000001,0.10450000000000001,0.0756,0.0,-0.003,0.0
2025-11-06 18:32:56.188,40.05,0.016,-0.013000000000000001,-0.002,-0.036000000000000004,-0.994,0.031,68.37,-13.09,-73.89,0.6920000000000001,-0.7102,0.10450000000000001,0.0756,0.0,-0.004,0.0
2025-11-06 18:32:56.188,40.055,0.018000000000000002,-0.01,-0.003,-0.036000000000000004,-0.995,0.033,68.37,-13.09,-73.89,0.6918000000000001,-0.7103,0.10450000000000001,0.0756,0.0,-0.003,-0.002
2025-11-06 18:32:56.188,40.06,0.021,-0.015,-0.003,-0.034,-0.994,0.034,68.37,-13.09,-73.89,0.6917,-0.7105,0.10450000000000001,0.0757,-0.002,-0.004,-0.003
2025-11-06 18:32:56.188,40.065,0.021,-0.012,-0.004,-0.033,-0.995,0.036000000000000004,68.57000000000001,-13.21,-72.87,0.6915,-0.7107,0.1044,0.07590000000000001,-0.003,-0.003,-0.004
2025-11-06 18:32:56.188,40.07,0.018000000000000002,-0.014,-0.004,-0.031,-0.996,0.036000000000000004,68.57000000000001,-13.21,-72.87,0.6913,-0.7109000000000001,0.1044,0.076,-0.004,-0.002,-0.003
2025-11-06 18:32:56.188,40.075,0.018000000000000002,-0.019,-0.003,-0.03,-0.998,0.034,68.19,-13.18,-73.19,0.6912,-0.7110000000000001,0.1042,0.0762,-0.005,0.0,-0.001
2025-11-06 18:32:56.189,40.08,0.011,-0.02,-0.005,-0.029,-0.998,0.031,68.19,-13.18,-73.19,0.6911,-0.7110000000000001,0.1041,0.0765,-0.005,0.0,0.0
2025-11-06 18:32:56.189,40.085,0.008,-0.016,-0.003,-0.028,-0.997,0.028,68.34,-13.06,-72.43,0.6912,-0.7109000000000001,0.1039,0.0767,-0.005,-0.001,0.003
2025-11-06 18:32:56.189,40.09,0.006,-0.018000000000000002,-0.001,-0.029,-0.996,0.026000000000000002,68.34,-13.06,-72.43,0.6914,-0.7107,0.1038,0.077,-0.004,-0.002,0.006
2025-11-06 18:32:56.189,40.095,0.008,-0.014,0.0,-0.03,-0.997,0.023,68.34,-13.06,-72.43,0.6916,-0.7105,0.1037,0.0771,-0.003,0.0,0.007
2025-11-06 18:32:56.189,40.1,0.008,-0.012,0.0,-0.032,-0.996,0.025,68.34,-13.18,-73.57000000000001,0.6918000000000001,-0.7104,0.1037,0.0772,-0.001,-0.002,0.005
2025-11-06 18:32:56.189,40.105,0.008,-0.005,0.0,-0.035,-0.995,0.025,68.34,-13.18,-73.57000000000001,0.6919000000000001,-0.7102,0.1037,0.0772,0.001,-0.002,0.005
2025-11-06 18:32:56.189,40.11,0.014,-0.001,0.002,-0.035,-0.994,0.025,68.78,-13.41,-72.81,0.6920000000000001,-0.7101000000000001,0.1037,0.0772,0.001,-0.003,0.004
2025-11-06 18:32:56.189,40.115,0.015,0.002,0.003,-0.037,-0.996,0.027,68.78,-13.41,-72.81,0.6921,-0.7100000000000001,0.1039,0.077,0.003,-0.002,0.002
2025-11-06 18:32:56.189,40.12,0.013000000000000001,0.003,0.001,-0.04,-0.994,0.028,68.78,-13.41,-72.81,0.6922,-0.7099000000000001,0.10400000000000001,0.07690000000000001,0.005,-0.004,0.001
2025-11-06 18:32:56.189,40.125,0.014,-0.003,0.001,-0.039,-0.993,0.031,68.78,-12.89,-72.55,0.6921,-0.7100000000000001,0.1042,0.0767,0.004,-0.005,-0.001
2025-11-06 18:32:56.189,40.13,0.012,-0.004,0.0,-0.038,-0.996,0.033,68.78,-12.89,-72.55,0.6920000000000001,-0.7101000000000001,0.1043,0.0766,0.003,-0.002,-0.002
2025-11-06 18:32:56.189,40.135,0.007,-0.007,0.0,-0.037,-0.998,0.035,67.93,-14.08,-72.58,0.6918000000000001,-0.7103,0.1044,0.0765,0.001,0.0,-0.004
2025-11-06 18:32:56.189,40.14,0.003,-0.012,0.0,-0.032,-1.0,0.034,67.93,-14.08,-72.58,0.6917,-0.7104,0.1044,0.0766,-0.002,0.001,-0.003
2025-11-06 18:32:56.189,40.145,-0.002,-0.015,0.0,-0.031,-1.0,0.034,68.45,-13.5,-73.37,0.6915,-0.7105,0.1043,0.07680000000000001,-0.004,0.001,-0.003
2025-11-06 18:32:56.189,40.15,-0.004,-0.02,0.0,-0.031,-0.999,0.033,68.45,-13.5,-73.37,0.6915,-0.7106,0.1042,0.07690000000000001,-0.003,0.0,-0.002
2025-11-06 18:32:56.190,40.155,-0.003,-0.025,0.001,-0.031,-0.998,0.033,68.45,-13.5,-73.37,0.6914,-0.7106,0.1042,0.0771,-0.003,0.0,-0.001
2025-11-06 18:32:56.190,40.16,-0.001,-0.02,0.002,-0.03,-0.998,0.032,68.72,-13.35,-72.75,0.6914,-0.7107,0.1041,0.0772,-0.004,0.0,0.0
2025-11-06 18:32:56.190,40.165,0.0,-0.02,0.001,-0.031,-0.997,0.03,68.72,-13.35,-72.75,0.6914,-0.7106,0.10400000000000001,0.07740000000000001,-0.002,-0.001,0.001
2025-11-06 18:32:56.190,40.17,0.003,-0.019,0.001,-0.03,-0.997,0.03,68.4,-13.32,-72.93,0.6914,-0.7106,0.10400000000000001,0.0775,-0.003,0.0,0.001
2025-11-06 18:32:56.190,40.175,0.005,-0.016,0.002,-0.032,-0.995,0.031,68.4,-13.32,-72.93,0.6914,-0.7106,0.1039,0.0776,-0.001,-0.003,0.0
2025-11-06 18:32:56.190,40.18,0.008,-0.016,0.003,-0.03,-0.994,0.034,68.4,-13.32,-72.93,0.6913,-0.7107,0.1039,0.0777,-0.002,-0.004,-0.002
2025-11-06 18:32:56.190,40.185,0.01,-0.02,0.003,-0.031,-0.992,0.037,68.51,-12.71,-73.01,0.6911,-0.7109000000000001,0.1039,0.0777,-0.001,-0.006,-0.005
2025-11-06 18:32:56.190,40.19,0.011,-0.022,0.004,-0.033,-0.993,0.038,68.51,-12.71,-73.01,0.6909000000000001,-0.7111000000000001,0.10400000000000001,0.0777,0.0,-0.005,-0.005
2025-11-06 18:32:56.190,40.195,0.01,-0.027,0.002,-0.034,-0.993,0.039,69.71000000000001,-13.030000000000001,-72.75,0.6906,-0.7113,0.1041,0.0777,0.0,-0.005,-0.006
2025-11-06 18:32:56.190,40.2,0.008,-0.029,0.003,-0.033,-0.996,0.04,69.71000000000001,-13.030000000000001,-72.75,0.6904,-0.7116,0.1042,0.0777,0.0,-0.002,-0.006
2025-11-06 18:32:56.190,40.205,0.002,-0.026000000000000002,0.004,-0.033,-0.996,0.038,68.51,-13.32,-72.52,0.6903,-0.7117,0.1043,0.0777,0.0,-0.001,-0.003
2025-11-06 18:32:56.190,40.21,-0.002,-0.027,0.003,-0.032,-0.997,0.04,68.51,-13.32,-72.52,0.6901,-0.7118,0.1044,0.0777,0.0,-0.001,-0.004
2025-11-06 18:32:56.190,40.215,-0.003,-0.023,0.004,-0.035,-0.997,0.04,68.51,-13.32,-72.52,0.6899000000000001,-0.7119000000000001,0.10450000000000001,0.0777,0.001,-0.001,-0.004
2025-11-06 18:32:56.190,40.22,-0.006,-0.023,0.003,-0.034,-0.998,0.038,68.81,-13.68,-73.13,0.6899000000000001,-0.7120000000000001,0.1046,0.0777,0.0,0.0,-0.002
2025-11-06 18:32:56.190,40.225,-0.006,-0.017,0.003,-0.033,-0.999,0.037,68.81,-13.68,-73.13,0.6898000000000001,-0.7120000000000001,0.1046,0.0777,0.0,0.0,-0.001
2025-11-06 18:32:56.190,40.23,-0.002,-0.011,0.004,-0.034,-0.999,0.037,68.34,-13.700000000000001,-73.51,0.6898000000000001,-0.7121000000000001,0.1047,0.0777,0.0,0.0,-0.001
2025-11-06 18:32:56.190,40.235,-0.001,-0.01,0.004,-0.034,-0.997,0.036000000000000004,68.34,-13.700000000000001,-73.51,0.6898000000000001,-0.7121000000000001,0.1047,0.0777,0.0,0.0,0.0
2025-11-06 18:32:56.190,40.24,0.002,-0.006,0.006,-0.035,-0.997,0.035,68.48,-13.700000000000001,-72.96000000000001,0.6898000000000001,-0.7120000000000001,0.1048,0.0776,0.001,-0.001,0.0
2025-11-06 18:32:56.190,40.245,0.004,-0.011,0.006,-0.034,-0.996,0.033,68.48,-13.91,-72.96000000000001,0.6899000000000001,-0.7120000000000001,0.1048,0.0776,0.0,-0.002,0.002
2025-11-06 18:32:56.190,40.25,0.007,-0.013000000000000001,0.005,-0.033,-0.996,0.033,68.48,-13.91,-72.96000000000001,0.6899000000000001,-0.7119000000000001,0.1048,0.0777,0.0,-0.002,0.002
2025-11-06 18:32:56.190,40.255,0.007,-0.021,0.004,-0.034,-0.995,0.035,68.57000000000001,-13.790000000000001,-73.04,0.6899000000000001,-0.7119000000000001,0.10490000000000001,0.0777,0.0,-0.002,0.0
2025-11-06 18:32:56.190,40.26,0.008,-0.022,0.005,-0.034,-0.995,0.036000000000000004,68.57000000000001,-13.790000000000001,-73.04,0.6899000000000001,-0.7119000000000001,0.10490000000000001,0.0777,0.0,-0.003,0.0
2025-11-06 18:32:56.190,40.265,0.009000000000000001,-0.031,0.005,-0.033,-0.995,0.038,68.31,-13.38,-73.31,0.6898000000000001,-0.7120000000000001,0.10500000000000001,0.07780000000000001,0.0,-0.003,-0.002
2025-11-06 18:32:56.190,40.27,0.005,-0.034,0.003,-0.032,-0.997,0.039,68.31,-13.38,-73.31,0.6896,-0.7122,0.10500000000000001,0.07780000000000001,-0.001,-0.001,-0.003
2025-11-06 18:32:56.190,40.275,0.005,-0.043000000000000003,0.003,-0.032,-0.997,0.042,68.31,-13.38,-73.31,0.6894,-0.7123,0.1051,0.0779,-0.001,-0.001,-0.005
2025-11-06 18:32:56.190,40.28,0.004,-0.044,0.006,-0.032,-0.997,0.043000000000000003,68.92,-13.59,-72.99,0.6892,-0.7125,0.1052,0.078,-0.001,-0.001,-0.006
2025-11-06 18:32:56.190,40.285,0.005,-0.048,0.006,-0.032,-0.995,0.043000000000000003,68.92,-13.59,-72.99,0.6890000000000001,-0.7127,0.1053,0.0781,0.0,-0.002,-0.005
2025-11-06 18:32:56.190,40.29,0.004,-0.048,0.008,-0.032,-0.996,0.044,68.66,-13.06,-72.9,0.6888000000000001,-0.7129000000000001,0.10540000000000001,0.0782,0.0,-0.002,-0.005
2025-11-06 18:32:56.190,40.295,0.002,-0.042,0.008,-0.034,-0.996,0.041,68.66,-13.06,-72.9,0.6887,-0.7130000000000001,0.10550000000000001,0.0782,0.001,-0.001,-0.002
2025-11-06 18:32:56.190,40.3,0.0,-0.039,0.008,-0.034,-0.996,0.039,68.37,-12.97,-73.31,0.6886,-0.7130000000000001,0.1056,0.0782,0.0,-0.001,0.0
2025-11-06 18:32:56.190,40.305,0.001,-0.038,0.009000000000000001,-0.035,-0.995,0.037,68.37,-12.97,-73.31,0.6887,-0.7129000000000001,0.1057,0.0782,0.001,-0.003,0.001
2025-11-06 18:32:56.190,40.31,0.0,-0.037,0.008,-0.037,-0.993,0.035,68.37,-12.97,-73.31,0.6888000000000001,-0.7128,0.10590000000000001,0.0782,0.003,-0.005,0.003
2025-11-06 18:32:56.190,40.315,0.0,-0.039,0.008,-0.037,-0.995,0.034,68.69,-13.32,-72.4,0.6889000000000001,-0.7127,0.10600000000000001,0.0781,0.002,-0.003,0.003
2025-11-06 18:32:56.190,40.32,0.0,-0.04,0.009000000000000001,-0.037,-0.994,0.032,68.69,-13.32,-72.4,0.6891,-0.7124,0.1062,0.0781,0.002,-0.003,0.005
2025-11-06 18:32:56.190,40.325,0.0,-0.037,0.009000000000000001,-0.037,-0.995,0.03,68.37,-13.35,-72.93,0.6894,-0.7122,0.1063,0.0781,0.002,-0.002,0.007
2025-11-06 18:32:56.190,40.33,0.0,-0.036000000000000004,0.008,-0.038,-0.995,0.026000000000000002,68.37,-13.35,-72.93,0.6897,-0.7119000000000001,0.10640000000000001,0.0781,0.002,-0.003,0.009000000000000001
2025-11-06 18:32:56.192,40.335,0.001,-0.038,0.007,-0.036000000000000004,-0.996,0.027,68.37,-13.35,-72.93,0.6900000000000001,-0.7116,0.10650000000000001,0.0781,0.001,-0.002,0.008
2025-11-06 18:32:56.192,40.34,0.0,-0.047,0.007,-0.036000000000000004,-0.996,0.028,68.51,-13.530000000000001,-73.19,0.6902,-0.7114,0.1066,0.0782,0.001,-0.002,0.006
2025-11-06 18:32:56.192,40.345,0.004,-0.053,0.005,-0.038,-0.996,0.031,68.51,-13.530000000000001,-73.19,0.6903,-0.7112,0.1068,0.0782,0.001,-0.002,0.003
2025-11-06 18:32:56.192,40.35,0.004,-0.05,0.005,-0.039,-0.995,0.032,68.37,-12.83,-73.57000000000001,0.6903,-0.7112,0.10690000000000001,0.0782,0.002,-0.003,0.001
2025-11-06 18:32:56.192,40.355,0.005,-0.055,0.005,-0.041,-0.996,0.035,68.37,-12.83,-73.57000000000001,0.6903,-0.7112,0.1072,0.0782,0.004,-0.002,0.0
2025-11-06 18:32:56.192,40.36,0.008,-0.05,0.006,-0.041,-0.994,0.034,68.69,-13.3,-72.9,0.6903,-0.7111000000000001,0.10740000000000001,0.0781,0.003,-0.004,0.0
2025-11-06 18:32:56.192,40.365,0.011,-0.045,0.005,-0.042,-0.993,0.034,68.69,-13.3,-72.9,0.6903,-0.7111000000000001,0.1077,0.078,0.005,-0.005,0.0
2025-11-06 18:32:56.192,40.37,0.011,-0.041,0.006,-0.041,-0.993,0.037,68.69,-13.3,-72.9,0.6902,-0.7112,0.10790000000000001,0.0779,0.003,-0.004,-0.002
2025-11-06 18:32:56.193,40.375,0.012,-0.045,0.006,-0.04,-0.994,0.04,68.86,-13.15,-72.23,0.6900000000000001,-0.7113,0.1081,0.0779,0.002,-0.003,-0.005
2025-11-06 18:32:56.193,40.38,0.016,-0.047,0.005,-0.039,-0.993,0.042,68.86,-13.15,-72.23,0.6897,-0.7115,0.10830000000000001,0.0779,0.001,-0.005,-0.006
2025-11-06 18:32:56.193,40.385,0.015,-0.045,0.005,-0.04,-0.993,0.044,68.45,-13.35,-73.25,0.6895,-0.7118,0.1085,0.0779,0.002,-0.005,-0.007
2025-11-06 18:32:56.193,40.39,0.012,-0.044,0.006,-0.038,-0.992,0.045,68.45,-13.35,-73.25,0.6891,-0.7121000000000001,0.1086,0.0779,0.0,-0.006,-0.007
2025-11-06 18:32:56.193,40.395,0.009000000000000001,-0.048,0.005,-0.036000000000000004,-0.992,0.042,68.45,-13.35,-73.25,0.6890000000000001,-0.7122,0.1087,0.0781,-0.002,-0.005,-0.004
2025-11-06 18:32:56.193,40.4,0.006,-0.048,0.006,-0.035,-0.994,0.041,68.19,-13.530000000000001,-72.78,0.6888000000000001,-0.7123,0.1087,0.0782,-0.002,-0.003,-0.003
2025-11-06 18:32:56.193,40.405,0.002,-0.051000000000000004,0.006,-0.033,-0.996,0.04,68.19,-13.530000000000001,-72.78,0.6887,-0.7124,0.1087,0.0784,-0.004,-0.001,-0.001
2025-11-06 18:32:56.193,40.41,0.0,-0.054,0.006,-0.034,-0.998,0.038,68.13,-13.0,-72.52,0.6887,-0.7124,0.1087,0.0786,-0.003,0.0,0.0
2025-11-06 18:32:56.193,40.415,0.0,-0.054,0.006,-0.035,-0.997,0.036000000000000004,68.13,-13.0,-72.52,0.6887,-0.7123,0.10880000000000001,0.07880000000000001,-0.001,0.0,0.001
2025-11-06 18:32:56.193,40.42,0.0,-0.048,0.009000000000000001,-0.036000000000000004,-0.996,0.037,68.95,-13.85,-72.05,0.6888000000000001,-0.7123,0.10880000000000001,0.0789,-0.001,-0.001,0.001
2025-11-06 18:32:56.193,40.425,0.005,-0.051000000000000004,0.008,-0.036000000000000004,-0.995,0.034,68.95,-13.85,-72.05,0.6889000000000001,-0.7122,0.10890000000000001,0.079,0.0,-0.002,0.003
2025-11-06 18:32:56.193,40.43,0.007,-0.05,0.009000000000000001,-0.037,-0.995,0.033,68.95,-13.85,-72.05,0.6890000000000001,-0.7120000000000001,0.109,0.0791,0.0,-0.003,0.004
2025-11-06 18:32:56.193,40.435,0.011,-0.048,0.01,-0.038,-0.995,0.032,69.39,-13.3,-71.96000000000001,0.6891,-0.7119000000000001,0.1091,0.0791,0.001,-0.003,0.005
2025-11-06 18:32:56.193,40.44,0.011,-0.045,0.011,-0.04,-0.994,0.031,69.39,-13.3,-71.96000000000001,0.6893,-0.7117,0.10930000000000001,0.0791,0.002,-0.004,0.005
2025-11-06 18:32:56.193,40.445,0.013000000000000001,-0.047,0.008,-0.042,-0.994,0.032,68.54,-13.030000000000001,-72.63,0.6894,-0.7116,0.1095,0.0791,0.003,-0.004,0.004
2025-11-06 18:32:56.193,40.45,0.012,-0.043000000000000003,0.008,-0.044,-0.994,0.032,68.54,-13.030000000000001,-72.63,0.6895,-0.7114,0.1097,0.0789,0.005,-0.004,0.003
2025-11-06 18:32:56.193,40.455,0.013000000000000001,-0.041,0.006,-0.045,-0.996,0.037,68.54,-13.030000000000001,-72.63,0.6895,-0.7115,0.11,0.07880000000000001,0.005,-0.002,-0.001
2025-11-06 18:32:56.193,40.46,0.013000000000000001,-0.038,0.005,-0.044,-0.997,0.037,68.22,-13.68,-72.87,0.6894,-0.7115,0.1102,0.0787,0.004,-0.001,0.0
2025-11-06 18:32:56.193,40.465,0.008,-0.04,0.004,-0.045,-0.997,0.038,68.22,-13.68,-72.87,0.6894,-0.7115,0.1105,0.0786,0.004,-0.001,-0.001
2025-11-06 18:32:56.193,40.47,0.007,-0.028,0.001,-0.043000000000000003,-0.998,0.04,68.19,-13.32,-73.45,0.6892,-0.7116,0.1106,0.0785,0.002,0.0,-0.002
2025-11-06 18:32:56.193,40.475,0.0,-0.023,0.0,-0.042,-0.999,0.037,68.19,-13.32,-73.45,0.6892,-0.7116,0.1107,0.0785,0.001,0.001,0.0
2025-11-06 18:32:56.194,40.48,-0.003,-0.012,0.0,-0.042,-1.0,0.034,68.13,-13.47,-73.22,0.6893,-0.7115,0.11080000000000001,0.0785,0.001,0.001,0.002
2025-11-06 18:32:56.194,40.485,-0.002,-0.004,0.0,-0.042,-0.999,0.03,68.13,-13.47,-73.22,0.6896,-0.7113,0.11080000000000001,0.0785,0.001,0.001,0.006
2025-11-06 18:32:56.194,40.49,-0.003,0.002,0.0,-0.041,-0.997,0.029,68.13,-13.47,-73.22,0.6898000000000001,-0.7111000000000001,0.1107,0.0785,0.0,0.0,0.006
2025-11-06 18:32:56.194,40.495,-0.003,0.004,0.001,-0.041,-0.996,0.025,68.22,-13.21,-73.19,0.6901,-0.7107,0.1107,0.0785,0.0,-0.001,0.009000000000000001
2025-11-06 18:32:56.194,40.5,-0.002,0.007,0.0,-0.04,-0.996,0.023,68.22,-13.21,-73.19,0.6905,-0.7104,0.1106,0.0785,0.0,-0.002,0.01
2025-11-06 18:32:56.194,40.505,-0.001,0.015,0.001,-0.041,-0.994,0.024,68.92,-13.09,-73.66,0.6908000000000001,-0.7101000000000001,0.1105,0.0785,0.0,-0.003,0.008
2025-11-06 18:32:56.194,40.51,-0.003,0.01,0.0,-0.042,-0.995,0.026000000000000002,68.92,-13.09,-73.66,0.6910000000000001,-0.7099000000000001,0.1105,0.0785,0.0,-0.002,0.006
2025-11-06 18:32:56.194,40.515,-0.002,0.01,-0.001,-0.041,-0.995,0.027,68.92,-13.09,-73.66,0.6911,-0.7098,0.1105,0.0784,0.0,-0.002,0.004
2025-11-06 18:32:56.194,40.52,-0.002,0.012,0.0,-0.041,-0.995,0.031,68.45,-12.86,-72.99,0.6912,-0.7098,0.1105,0.0784,0.0,-0.002,0.0
2025-11-06 18:32:56.194,40.525,-0.002,0.01,0.002,-0.041,-0.996,0.034,68.45,-12.86,-72.99,0.6911,-0.7098,0.1105,0.0784,0.0,-0.002,-0.002
2025-11-06 18:32:56.194,40.53,-0.002,0.008,0.002,-0.039,-0.996,0.036000000000000004,68.72,-13.06,-73.51,0.6910000000000001,-0.7100000000000001,0.11040000000000001,0.0784,-0.001,-0.002,-0.003
2025-11-06 18:32:56.194,40.535,-0.004,0.003,0.003,-0.041,-0.995,0.037,68.72,-13.06,-73.51,0.6908000000000001,-0.7101000000000001,0.1105,0.0784,0.0,-0.002,-0.004
2025-11-06 18:32:56.194,40.54,-0.005,0.003,0.003,-0.041,-0.996,0.036000000000000004,69.71000000000001,-13.97,-73.22,0.6907,-0.7102,0.1105,0.07830000000000001,0.0,-0.002,-0.003
2025-11-06 18:32:56.194,40.545,-0.008,-0.001,0.005,-0.04,-0.995,0.033,69.71000000000001,-13.97,-73.22,0.6907,-0.7102,0.1105,0.07830000000000001,-0.001,-0.002,0.0
2025-11-06 18:32:56.194,40.55,-0.008,-0.006,0.005,-0.038,-0.994,0.032,69.71000000000001,-13.97,-73.22,0.6907,-0.7102,0.1105,0.0784,-0.002,-0.003,0.0
2025-11-06 18:32:56.194,40.555,-0.01,-0.004,0.001,-0.04,-0.994,0.028,68.1,-13.44,-72.66,0.6909000000000001,-0.7101000000000001,0.11040000000000001,0.0785,0.0,-0.003,0.004
2025-11-06 18:32:56.194,40.56,-0.007,-0.003,0.003,-0.04,-0.994,0.029,68.1,-13.44,-72.66,0.6910000000000001,-0.7099000000000001,0.11040000000000001,0.0785,0.0,-0.003,0.003
2025-11-06 18:32:56.194,40.565,-0.009000000000000001,-0.005,0.001,-0.037,-0.993,0.027,68.83,-13.88,-73.01,0.6911,-0.7098,0.11030000000000001,0.0786,-0.003,-0.005,0.004
2025-11-06 18:32:56.194,40.57,-0.008,0.0,-0.001,-0.038,-0.995,0.025,68.83,-13.88,-73.01,0.6913,-0.7096,0.1102,0.0787,-0.001,-0.002,0.005
2025-11-06 18:32:56.194,40.575,-0.01,0.003,-0.001,-0.038,-0.994,0.027,68.83,-13.88,-73.01,0.6915,-0.7095,0.1101,0.07880000000000001,-0.002,-0.003,0.004
2025-11-06 18:32:56.194,40.58,-0.008,0.004,0.0,-0.038,-0.995,0.027,68.43,-13.41,-72.9,0.6916,-0.7094,0.11,0.07880000000000001,-0.001,-0.003,0.003
2025-11-06 18:32:56.194,40.585,-0.008,0.006,0.0,-0.038,-0.994,0.03,68.43,-13.41,-72.9,0.6916,-0.7094,0.10990000000000001,0.0789,-0.001,-0.004,0.0
2025-11-06 18:32:56.194,40.59,-0.007,0.009000000000000001,0.0,-0.04,-0.996,0.029,68.43,-13.18,-72.81,0.6917,-0.7093,0.10990000000000001,0.07880000000000001,0.0,-0.002,0.0
2025-11-06 18:32:56.194,40.595,-0.009000000000000001,0.01,0.0,-0.04,-0.996,0.029,68.43,-13.18,-72.81,0.6917,-0.7093,0.10990000000000001,0.07880000000000001,0.0,-0.002,0.0
2025-11-06 18:32:56.194,40.6,-0.005,0.009000000000000001,0.001,-0.042,-0.994,0.029,68.95,-13.06,-73.34,0.6917,-0.7093,0.11,0.0787,0.001,-0.003,0.0
2025-11-06 18:32:56.194,40.605,-0.003,0.012,0.0,-0.042,-0.996,0.028,68.95,-13.06,-73.34,0.6918000000000001,-0.7092,0.11,0.0787,0.001,-0.002,0.001
2025-11-06 18:32:56.194,40.61,0.0,0.011,0.0,-0.042,-0.995,0.028,68.95,-13.06,-73.34,0.6919000000000001,-0.7091000000000001,0.11,0.0786,0.001,-0.003,0.001
2025-11-06 18:32:56.194,40.615,0.002,0.013000000000000001,0.0,-0.04,-0.994,0.032,68.16,-13.09,-73.66,0.6918000000000001,-0.7092,0.11,0.0786,0.0,-0.003,-0.002
2025-11-06 18:32:56.194,40.62,0.0,0.013000000000000001,-0.001,-0.039,-0.995,0.032,68.16,-13.09,-73.66,0.6917,-0.7093,0.11,0.0786,0.0,-0.003,-0.002
2025-11-06 18:32:56.194,40.625,0.002,0.014,-0.001,-0.039,-0.994,0.032,68.54,-13.06,-73.42,0.6916,-0.7094,0.10990000000000001,0.0785,0.0,-0.004,-0.001
2025-11-06 18:32:56.194,40.63,0.0,0.013000000000000001,-0.001,-0.038,-0.994,0.033,68.54,-13.06,-73.42,0.6915,-0.7095,0.10990000000000001,0.0786,-0.001,-0.004,-0.002
2025-11-06 18:32:56.194,40.635,0.002,0.01,0.0,-0.039,-0.996,0.032,68.19,-13.32,-72.69,0.6915,-0.7095,0.10980000000000001,0.0786,-0.001,-0.002,-0.001
2025-11-06 18:32:56.194,40.64,0.0,0.011,-0.002,-0.04,-0.996,0.031,68.19,-13.32,-72.69,0.6915,-0.7095,0.10980000000000001,0.0786,0.0,-0.002,0.0
2025-11-06 18:32:56.194,40.645,0.001,0.015,0.0,-0.04,-0.994,0.031,68.19,-13.32,-72.69,0.6915,-0.7096,0.10980000000000001,0.0785,0.0,-0.003,0.0
2025-11-06 18:32:56.194,40.65,0.0,0.011,-0.001,-0.041,-0.994,0.03,68.63,-13.97,-72.99,0.6915,-0.7095,0.10980000000000001,0.0785,0.001,-0.004,0.0
2025-11-06 18:32:56.194,40.655,0.0,0.014,-0.003,-0.042,-0.995,0.03,68.63,-13.97,-72.99,0.6915,-0.7095,0.10980000000000001,0.0784,0.001,-0.003,0.0
2025-11-06 18:32:56.194,40.66,-0.003,0.016,-0.002,-0.04,-0.995,0.029,68.63,-13.38,-73.10000000000001,0.6916,-0.7095,0.10980000000000001,0.07830000000000001,0.0,-0.003,0.001
2025-11-06 18:32:56.194,40.665,-0.002,0.016,-0.002,-0.041,-0.995,0.027,68.63,-13.38,-73.10000000000001,0.6917,-0.7094,0.10980000000000001,0.07830000000000001,0.001,-0.003,0.003
2025-11-06 18:32:56.194,40.67,0.0,0.015,-0.004,-0.042,-0.995,0.027,68.63,-13.38,-73.10000000000001,0.6918000000000001,-0.7093,0.10980000000000001,0.0782,0.001,-0.003,0.003
2025-11-06 18:32:56.194,40.675,-0.001,0.015,-0.002,-0.043000000000000003,-0.994,0.027,68.81,-13.88,-73.19,0.6919000000000001,-0.7091000000000001,0.10990000000000001,0.0781,0.002,-0.004,0.003
2025-11-06 18:32:56.194,40.68,0.0,0.014,-0.003,-0.042,-0.993,0.029,68.81,-13.88,-73.19,0.6920000000000001,-0.7091000000000001,0.10990000000000001,0.0781,0.001,-0.005,0.0
2025-11-06 18:32:56.194,40.685,0.0,0.01,-0.001,-0.042,-0.994,0.025,68.48,-13.24,-73.39,0.6921,-0.7090000000000001,0.10990000000000001,0.078,0.001,-0.004,0.004
2025-11-06 18:32:56.194,40.69,0.0,0.006,0.0,-0.042,-0.996,0.024,68.48,-13.24,-73.39,0.6923,-0.7088,0.10990000000000001,0.078,0.0,-0.002,0.004
2025-11-06 18:32:56.194,40.695,0.0,0.009000000000000001,-0.001,-0.041,-0.997,0.022,68.86,-13.3,-72.87,0.6925,-0.7087,0.10980000000000001,0.078,0.0,-0.001,0.005
2025-11-06 18:32:56.194,40.7,0.0,0.0,-0.002,-0.04,-0.996,0.023,68.86,-13.3,-72.87,0.6926,-0.7085,0.10980000000000001,0.078,0.0,-0.001,0.005
2025-11-06 18:32:56.194,40.705,0.001,-0.002,-0.003,-0.039,-0.995,0.022,68.86,-13.3,-72.87,0.6928000000000001,-0.7083,0.1097,0.0781,-0.001,-0.003,0.005
2025-11-06 18:32:56.194,40.71,0.001,-0.001,-0.002,-0.037,-0.996,0.024,68.22,-13.620000000000001,-73.04,0.6929000000000001,-0.7083,0.1095,0.0782,-0.003,-0.002,0.003
2025-11-06 18:32:56.194,40.715,0.003,0.0,-0.002,-0.036000000000000004,-0.995,0.023,68.22,-13.620000000000001,-73.04,0.6930000000000001,-0.7082,0.10940000000000001,0.0784,-0.004,-0.002,0.003
2025-11-06 18:32:56.194,40.72,0.005,0.0,-0.003,-0.037,-0.994,0.025,68.37,-13.73,-74.15,0.6930000000000001,-0.7081000000000001,0.10930000000000001,0.0785,-0.003,-0.004,0.001
2025-11-06 18:32:56.194,40.725,0.006,0.002,-0.002,-0.037,-0.995,0.028,68.37,-13.73,-74.15,0.6929000000000001,-0.7082,0.1092,0.0785,-0.002,-0.003,-0.001
2025-11-06 18:32:56.194,40.73,0.008,0.004,-0.001,-0.037,-0.993,0.029,68.37,-13.73,-74.15,0.6928000000000001,-0.7083,0.1091,0.0786,-0.002,-0.005,-0.002
2025-11-06 18:32:56.194,40.735,0.012,0.009000000000000001,-0.002,-0.039,-0.994,0.033,69.13,-14.08,-72.93,0.6926,-0.7086,0.1091,0.0786,0.0,-0.004,-0.005
2025-11-06 18:32:56.194,40.74,0.01,0.004,-0.004,-0.037,-0.996,0.035,69.13,-14.08,-72.93,0.6924,-0.7088,0.1091,0.0786,-0.001,-0.002,-0.007
2025-11-06 18:32:56.194,40.745,0.01,0.004,-0.001,-0.039,-0.995,0.037,68.19,-13.68,-73.57000000000001,0.6921,-0.7091000000000001,0.1091,0.0785,0.0,-0.003,-0.008
2025-11-06 18:32:56.194,40.75,0.005,0.002,-0.001,-0.038,-0.996,0.039,68.19,-13.68,-73.57000000000001,0.6917,-0.7094,0.1091,0.0785,0.0,-0.001,-0.009000000000000001
2025-11-06 18:32:56.194,40.755,0.004,0.002,-0.004,-0.038,-0.996,0.038,68.22,-13.68,-73.34,0.6915,-0.7097,0.1091,0.0785,-0.001,-0.002,-0.007
2025-11-06 18:32:56.194,40.76,0.0,0.003,-0.002,-0.038,-0.997,0.035,68.22,-13.68,-73.34,0.6913,-0.7098,0.1091,0.0785,0.0,-0.001,-0.003
2025-11-06 18:32:56.194,40.765,-0.003,0.007,-0.001,-0.037,-0.996,0.032,68.22,-13.68,-73.34,0.6913,-0.7098,0.109,0.0786,-0.001,-0.002,0.0
2025-11-06 18:32:56.194,40.77,-0.003,0.002,-0.002,-0.036000000000000004,-0.994,0.031,68.48,-13.76,-73.34,0.6913,-0.7098,0.109,0.0786,-0.002,-0.004,0.0
2025-11-06 18:32:56.195,40.775,-0.005,0.003,-0.001,-0.038,-0.995,0.029,68.48,-13.76,-73.34,0.6914,-0.7098,0.10890000000000001,0.0786,0.0,-0.003,0.002
2025-11-06 18:32:56.195,40.78,-0.005,0.006,-0.002,-0.039,-0.995,0.028,68.16,-13.700000000000001,-73.10000000000001,0.6915,-0.7097,0.10890000000000001,0.0786,0.0,-0.003,0.002
2025-11-06 18:32:56.195,40.785,0.002,-0.001,-0.002,-0.039,-0.995,0.029,68.16,-13.700000000000001,-73.10000000000001,0.6916,-0.7096,0.10890000000000001,0.0786,0.0,-0.002,0.001
2025-11-06 18:32:56.195,40.79,0.001,0.001,-0.002,-0.041,-0.995,0.03,68.16,-13.700000000000001,-73.10000000000001,0.6916,-0.7096,0.109,0.0785,0.002,-0.003,0.0
2025-11-06 18:32:56.195,40.795,0.0,-0.002,-0.003,-0.041,-0.995,0.03,68.48,-13.68,-72.58,0.6916,-0.7095,0.1091,0.0785,0.002,-0.002,0.0
2025-11-06 18:32:56.195,40.8,0.005,0.0,0.0,-0.043000000000000003,-0.997,0.032,68.48,-13.68,-72.58,0.6916,-0.7096,0.1092,0.07830000000000001,0.003,-0.001,-0.001
2025-11-06 18:32:56.195,40.805,0.005,-0.004,-0.001,-0.041,-0.997,0.032,68.1,-13.5,-73.54,0.6915,-0.7096,0.10930000000000001,0.07830000000000001,0.001,-0.001,-0.001
2025-11-06 18:32:56.195,40.81,0.007,-0.003,-0.001,-0.043000000000000003,-0.995,0.036000000000000004,68.1,-13.5,-73.54,0.6914,-0.7098,0.10940000000000001,0.0782,0.003,-0.003,-0.004
2025-11-06 18:32:56.195,40.815,0.008,-0.002,-0.001,-0.042,-0.994,0.036000000000000004,68.75,-14.06,-73.54,0.6912,-0.7099000000000001,0.1095,0.0781,0.001,-0.004,-0.004
2025-11-06 18:32:56.195,40.82,0.01,-0.002,-0.001,-0.042,-0.994,0.037,68.75,-14.06,-73.54,0.6910000000000001,-0.7101000000000001,0.1096,0.078,0.002,-0.004,-0.005
2025-11-06 18:32:56.195,40.825,0.009000000000000001,-0.004,-0.002,-0.042,-0.995,0.038,68.75,-14.06,-73.54,0.6908000000000001,-0.7103,0.1097,0.0779,0.001,-0.003,-0.005
2025-11-06 18:32:56.195,40.83,0.008,-0.001,-0.002,-0.04,-0.995,0.04,68.4,-13.32,-73.39,0.6906,-0.7105,0.1097,0.0779,0.0,-0.002,-0.006
2025-11-06 18:32:56.195,40.835,0.006,-0.002,-0.001,-0.039,-0.997,0.041,68.4,-13.32,-73.39,0.6903,-0.7108,0.1097,0.078,-0.001,-0.001,-0.006
2025-11-06 18:32:56.195,40.84,0.005,-0.009000000000000001,-0.004,-0.037,-0.996,0.041,68.60000000000001,-14.06,-73.45,0.6901,-0.7110000000000001,0.1097,0.0781,-0.003,-0.001,-0.006
2025-11-06 18:32:56.196,40.845,0.0,-0.005,-0.001,-0.036000000000000004,-0.995,0.04,68.60000000000001,-14.06,-73.45,0.6899000000000001,-0.7112,0.1096,0.0782,-0.004,-0.002,-0.004
2025-11-06 18:32:56.196,40.85,0.0,-0.006,-0.005,-0.034,-0.995,0.039,68.60000000000001,-14.06,-73.45,0.6897,-0.7113,0.1095,0.0784,-0.004,-0.003,-0.003
2025-11-06 18:32:56.196,40.855,0.003,-0.004,-0.002,-0.035,-0.996,0.037,69.07000000000001,-13.5,-72.69,0.6897,-0.7114,0.10940000000000001,0.0785,-0.004,-0.002,-0.001
2025-11-06 18:32:56.197,40.86,0.002,0.0,-0.003,-0.034,-0.994,0.034,69.07000000000001,-13.5,-72.69,0.6897,-0.7114,0.1092,0.0787,-0.004,-0.004,0.001
2025-11-06 18:32:56.197,40.865,0.003,0.0,-0.003,-0.033,-0.995,0.033,68.51,-14.11,-73.04,0.6897,-0.7113,0.1091,0.0789,-0.005,-0.003,0.002
2025-11-06 18:32:56.197,40.87,0.003,0.0,-0.004,-0.034,-0.995,0.033,68.51,-14.11,-73.04,0.6898000000000001,-0.7113,0.10890000000000001,0.079,-0.003,-0.002,0.002
2025-11-06 18:32:56.197,40.875,0.005,0.004,-0.004,-0.035,-0.997,0.032,68.63,-14.290000000000001,-72.96000000000001,0.6899000000000001,-0.7112,0.10880000000000001,0.0791,-0.002,-0.001,0.003
2025-11-06 18:32:56.197,40.88,0.006,0.003,-0.004,-0.034,-0.998,0.035,68.63,-14.290000000000001,-72.96000000000001,0.6898000000000001,-0.7112,0.1087,0.0792,-0.003,0.0,0.0
2025-11-06 18:32:56.197,40.885,0.005,0.007,-0.002,-0.034,-0.997,0.035,68.63,-14.290000000000001,-72.96000000000001,0.6898000000000001,-0.7113,0.1086,0.07930000000000001,-0.002,0.0,0.0
2025-11-06 18:32:56.197,40.89,0.004,0.008,0.0,-0.034,-0.996,0.035,68.95,-13.44,-73.92,0.6898000000000001,-0.7113,0.1085,0.0794,-0.002,-0.001,0.0
2025-11-06 18:32:56.197,40.895,0.002,0.001,0.0,-0.033,-0.997,0.033,68.95,-13.44,-73.92,0.6898000000000001,-0.7113,0.10840000000000001,0.0795,-0.003,-0.001,0.001
2025-11-06 18:32:56.197,40.9,0.0,0.001,0.0,-0.034,-0.997,0.031,68.4,-13.68,-74.18,0.6899000000000001,-0.7112,0.10840000000000001,0.0796,-0.001,-0.001,0.003
2025-11-06 18:32:56.197,40.905,0.0,0.0,0.001,-0.035,-0.996,0.034,68.4,-13.68,-74.18,0.6900000000000001,-0.7111000000000001,0.10840000000000001,0.0796,0.0,-0.002,0.0
2025-11-06 18:32:56.197,40.91,0.003,-0.002,0.0,-0.036000000000000004,-0.995,0.033,68.4,-13.68,-74.18,0.6900000000000001,-0.7111000000000001,0.10840000000000001,0.0796,0.0,-0.002,0.001
2025-11-06 18:32:56.197,40.915,0.001,-0.003,0.003,-0.037,-0.996,0.033,68.69,-13.35,-73.01,0.6901,-0.7110000000000001,0.10840000000000001,0.0796,0.0,-0.002,0.001
2025-11-06 18:32:56.197,40.92,0.002,-0.001,0.003,-0.035,-0.996,0.035,68.69,-13.35,-73.01,0.6900000000000001,-0.7111000000000001,0.10840000000000001,0.0796,0.0,-0.002,0.0
2025-11-06 18:32:56.197,40.925,0.001,0.001,0.003,-0.034,-0.995,0.039,68.45,-13.44,-73.04,0.6899000000000001,-0.7112,0.10830000000000001,0.0796,-0.001,-0.003,-0.003
2025-11-06 18:32:56.197,40.93,-0.004,0.002,0.001,-0.035,-0.997,0.041,68.45,-13.44,-73.04,0.6897,-0.7114,0.10830000000000001,0.0796,0.0,0.0,-0.005
2025-11-06 18:32:56.197,40.935,-0.006,0.002,0.004,-0.034,-0.997,0.041,69.16,-13.47,-73.77,0.6895,-0.7116,0.10830000000000001,0.0796,-0.001,-0.001,-0.005
2025-11-06 18:32:56.197,40.94,-0.01,0.001,0.005,-0.033,-0.996,0.041,69.16,-13.47,-73.77,0.6894,-0.7117,0.10830000000000001,0.07970000000000001,-0.002,-0.001,-0.004
2025-11-06 18:32:56.197,40.945,-0.013000000000000001,-0.001,0.001,-0.032,-0.999,0.04,69.16,-13.47,-73.77,0.6892,-0.7118,0.1082,0.07970000000000001,-0.002,0.0,-0.004
2025-11-06 18:32:56.197,40.95,-0.018000000000000002,0.0,0.003,-0.031,-0.998,0.039,68.75,-13.44,-73.25,0.6892,-0.7119000000000001,0.1081,0.0799,-0.004,0.0,-0.002
2025-11-06 18:32:56.197,40.955,-0.017,0.0,0.003,-0.032,-0.999,0.04,68.75,-13.44,-73.25,0.6891,-0.7120000000000001,0.108,0.0799,-0.002,0.0,-0.003
2025-11-06 18:32:56.197,40.96,-0.021,0.003,0.004,-0.031,-0.998,0.038,68.83,-13.620000000000001,-73.16,0.6891,-0.7120000000000001,0.10790000000000001,0.08,-0.002,0.0,-0.001
2025-11-06 18:32:56.197,40.965,-0.02,0.006,0.004,-0.032,-0.999,0.04,68.83,-13.620000000000001,-73.16,0.6890000000000001,-0.7120000000000001,0.10790000000000001,0.0801,-0.001,0.0,-0.002
2025-11-06 18:32:56.197,40.97,-0.017,0.009000000000000001,0.004,-0.03,-0.998,0.037,68.83,-13.620000000000001,-73.8,0.6891,-0.7120000000000001,0.1078,0.08020000000000001,-0.003,0.0,0.0
2025-11-06 18:32:56.197,40.975,-0.017,0.01,0.004,-0.033,-0.997,0.037,68.78,-13.41,-73.8,0.6891,-0.7120000000000001,0.1077,0.08020000000000001,0.0,-0.001,0.0
2025-11-06 18:32:56.197,40.98,-0.015,0.014,0.004,-0.032,-0.998,0.039,68.78,-13.41,-73.8,0.6891,-0.7121000000000001,0.1077,0.08020000000000001,-0.001,0.0,-0.002
2025-11-06 18:32:56.197,40.985,-0.014,0.014,0.005,-0.032,-0.998,0.041,68.69,-13.47,-73.69,0.6890000000000001,-0.7122,0.1076,0.08020000000000001,-0.001,0.0,-0.003
2025-11-06 18:32:56.197,40.99,-0.013000000000000001,0.013000000000000001,0.003,-0.033,-0.997,0.043000000000000003,68.69,-13.47,-73.69,0.6888000000000001,-0.7123,0.1076,0.08020000000000001,0.0,0.0,-0.005
2025-11-06 18:32:56.197,40.995,-0.012,0.018000000000000002,0.002,-0.032,-0.997,0.046,68.92,-12.83,-73.13,0.6886,-0.7125,0.1076,0.0801,-0.001,-0.001,-0.007
2025-11-06 18:32:56.197,41.0,-0.016,0.018000000000000002,0.002,-0.033,-0.997,0.046,68.92,-12.83,-73.13,0.6884,-0.7128,0.1075,0.08,0.0,-0.001,-0.007
2025-11-06 18:32:56.199,41.005,-0.014,0.021,0.003,-0.034,-0.994,0.047,68.92,-12.83,-73.13,0.6881,-0.7130000000000001,0.1076,0.0799,0.0,-0.003,-0.007
2025-11-06 18:32:56.199,41.01,-0.013000000000000001,0.02,0.005,-0.037,-0.994,0.048,68.72,-13.35,-73.54,0.6879000000000001,-0.7132000000000001,0.1077,0.07970000000000001,0.003,-0.004,-0.008
2025-11-06 18:32:56.199,41.015,-0.016,0.023,0.003,-0.04,-0.995,0.051000000000000004,68.72,-13.35,-73.54,0.6876,-0.7135,0.1078,0.0794,0.005,-0.003,-0.01
2025-11-06 18:32:56.199,41.02,-0.016,0.031,0.001,-0.039,-0.994,0.051000000000000004,69.13,-13.620000000000001,-72.96000000000001,0.6874,-0.7138,0.10790000000000001,0.0792,0.003,-0.003,-0.009000000000000001
2025-11-06 18:32:56.199,41.025,-0.016,0.03,0.003,-0.039,-0.995,0.052000000000000005,69.13,-13.620000000000001,-72.96000000000001,0.6871,-0.7140000000000001,0.108,0.0789,0.003,-0.002,-0.009000000000000001
2025-11-06 18:32:56.199,41.03,-0.018000000000000002,0.029,0.0,-0.039,-0.995,0.051000000000000004,68.81,-13.82,-74.18,0.6869000000000001,-0.7142000000000001,0.1081,0.0787,0.003,-0.002,-0.008
2025-11-06 18:32:56.199,41.035,-0.019,0.029,0.001,-0.041,-0.994,0.05,68.81,-13.82,-74.18,0.6867000000000001,-0.7144,0.1082,0.0784,0.004,-0.003,-0.006
2025-11-06 18:32:56.199,41.04,-0.022,0.03,0.001,-0.04,-0.993,0.048,68.81,-13.82,-74.18,0.6867000000000001,-0.7145,0.10830000000000001,0.0782,0.003,-0.004,-0.004
2025-11-06 18:32:56.199,41.045,-0.021,0.025,0.001,-0.038,-0.996,0.046,68.63,-13.68,-73.92,0.6867000000000001,-0.7145,0.10830000000000001,0.0781,0.001,-0.002,-0.001
2025-11-06 18:32:56.199,41.05,-0.021,0.023,0.001,-0.038,-0.994,0.044,68.63,-13.68,-73.92,0.6867000000000001,-0.7145,0.10830000000000001,0.078,0.001,-0.003,0.0
2025-11-06 18:32:56.199,41.055,-0.022,0.02,0.0,-0.038,-0.997,0.042,69.8,-13.73,-73.66,0.6868000000000001,-0.7144,0.10830000000000001,0.0779,0.001,-0.001,0.002
2025-11-06 18:32:56.199,41.06,-0.021,0.027,0.001,-0.037,-0.998,0.042,69.8,-13.73,-73.66,0.6869000000000001,-0.7143,0.1082,0.0779,0.0,0.0,0.001
2025-11-06 18:32:56.199,41.065,-0.023,0.025,0.0,-0.035,-0.997,0.041,69.8,-13.73,-73.66,0.687,-0.7142000000000001,0.1081,0.0779,-0.001,-0.001,0.002
2025-11-06 18:32:56.199,41.07,-0.021,0.03,-0.001,-0.034,-0.998,0.041,68.51,-13.32,-73.42,0.6871,-0.7141000000000001,0.108,0.078,-0.002,0.0,0.002
2025-11-06 18:32:56.199,41.075,-0.019,0.031,-0.001,-0.035,-0.996,0.041,68.51,-13.32,-73.42,0.6872,-0.7140000000000001,0.10790000000000001,0.078,-0.001,-0.001,0.001
2025-11-06 18:32:56.199,41.08,-0.018000000000000002,0.031,-0.002,-0.032,-0.996,0.039,69.97,-13.41,-74.18,0.6874,-0.7139,0.1077,0.0781,-0.004,-0.001,0.003
2025-11-06 18:32:56.199,41.085,-0.016,0.032,-0.004,-0.033,-0.997,0.04,69.97,-13.41,-74.18,0.6874,-0.7139,0.1075,0.0782,-0.003,-0.001,0.002
2025-11-06 18:32:56.199,41.09,-0.015,0.034,-0.001,-0.034,-0.996,0.037,68.69,-13.56,-73.83,0.6876,-0.7137,0.10740000000000001,0.0782,-0.001,-0.002,0.004
2025-11-06 18:32:56.199,41.095,-0.014,0.034,-0.002,-0.034,-0.994,0.037,68.69,-13.56,-73.83,0.6878000000000001,-0.7136,0.1072,0.0782,-0.001,-0.004,0.004
2025-11-06 18:32:56.199,41.1,-0.013000000000000001,0.035,-0.003,-0.035,-0.993,0.034,68.69,-13.56,-73.83,0.6880000000000001,-0.7133,0.1071,0.0782,0.0,-0.004,0.006
2025-11-06 18:32:56.199,41.105,-0.012,0.039,-0.001,-0.038,-0.994,0.032,68.75,-13.18,-73.83,0.6883,-0.7131000000000001,0.1071,0.0781,0.002,-0.004,0.008
2025-11-06 18:32:56.199,41.11,-0.013000000000000001,0.039,-0.002,-0.038,-0.995,0.03,68.75,-13.18,-73.83,0.6887,-0.7128,0.1071,0.0779,0.002,-0.003,0.008
2025-11-06 18:32:56.199,41.115,-0.014,0.037,-0.004,-0.039,-0.993,0.028,68.75,-13.47,-72.72,0.6890000000000001,-0.7124,0.1071,0.07780000000000001,0.002,-0.005,0.009000000000000001
2025-11-06 18:32:56.199,41.12,-0.012,0.033,-0.005,-0.041,-0.993,0.028,68.75,-13.47,-72.72,0.6894,-0.7121000000000001,0.1071,0.0776,0.004,-0.004,0.009000000000000001
2025-11-06 18:32:56.199,41.125,-0.015,0.035,-0.005,-0.042,-0.994,0.024,68.75,-13.47,-72.72,0.6898000000000001,-0.7117,0.1072,0.07740000000000001,0.005,-0.004,0.011
2025-11-06 18:32:56.199,41.13,-0.018000000000000002,0.039,-0.004,-0.042,-0.994,0.023,69.10000000000001,-13.41,-73.8,0.6903,-0.7113,0.1072,0.07730000000000001,0.004,-0.004,0.012
2025-11-06 18:32:56.200,41.135,-0.018000000000000002,0.034,-0.008,-0.042,-0.994,0.021,69.10000000000001,-13.41,-73.8,0.6908000000000001,-0.7108,0.1072,0.0771,0.004,-0.004,0.012
2025-11-06 18:32:56.200,41.14,-0.019,0.04,-0.006,-0.041,-0.994,0.02,69.10000000000001,-13.530000000000001,-74.3,0.6912,-0.7104,0.1071,0.077,0.003,-0.004,0.012
2025-11-06 18:32:56.200,41.145,-0.017,0.037,-0.005,-0.04,-0.994,0.019,69.10000000000001,-13.530000000000001,-74.3,0.6916,-0.7100000000000001,0.10700000000000001,0.07690000000000001,0.001,-0.004,0.011
2025-11-06 18:32:56.200,41.15,-0.016,0.04,-0.009000000000000001,-0.039,-0.995,0.019,70.56,-13.620000000000001,-73.89,0.6921,-0.7096,0.10690000000000001,0.07690000000000001,0.0,-0.003,0.011
2025-11-06 18:32:56.200,41.155,-0.014,0.041,-0.01,-0.041,-0.995,0.017,70.56,-13.620000000000001,-73.89,0.6925,-0.7092,0.1068,0.07680000000000001,0.002,-0.003,0.011
2025-11-06 18:32:56.200,41.16,-0.013000000000000001,0.046,-0.01,-0.041,-0.993,0.018000000000000002,70.56,-13.620000000000001,-73.89,0.6929000000000001,-0.7089000000000001,0.1068,0.0767,0.002,-0.005,0.01
2025-11-06 18:32:56.200,41.165,-0.01,0.048,-0.012,-0.04,-0.995,0.018000000000000002,68.78,-14.030000000000001,-72.78,0.6932,-0.7086,0.1066,0.0766,0.0,-0.003,0.009000000000000001
2025-11-06 18:32:56.200,41.17,-0.01,0.057,-0.011,-0.039,-0.995,0.016,68.78,-14.030000000000001,-72.78,0.6935,-0.7083,0.10650000000000001,0.0765,0.0,-0.003,0.009000000000000001
2025-11-06 18:32:56.200,41.175,-0.009000000000000001,0.059000000000000004,-0.009000000000000001,-0.041,-0.995,0.015,68.66,-13.88,-73.48,0.6939000000000001,-0.7079000000000001,0.10640000000000001,0.07640000000000001,0.001,-0.003,0.01
2025-11-06 18:32:56.200,41.18,-0.011,0.061,-0.008,-0.042,-0.995,0.015,68.66,-13.88,-73.48,0.6943,-0.7076,0.1063,0.0763,0.002,-0.003,0.008
2025-11-06 18:32:56.200,41.185,-0.011,0.059000000000000004,-0.006,-0.042,-0.995,0.014,68.66,-13.88,-73.48,0.6946,-0.7073,0.1062,0.0761,0.002,-0.003,0.009000000000000001
2025-11-06 18:32:56.200,41.19,-0.011,0.057,-0.005,-0.042,-0.994,0.013000000000000001,68.63,-13.73,-73.8,0.6949000000000001,-0.7070000000000001,0.1062,0.076,0.002,-0.004,0.008
2025-11-06 18:32:56.200,41.195,-0.011,0.05,-0.004,-0.043000000000000003,-0.994,0.012,68.63,-13.73,-73.8,0.6953,-0.7067,0.1061,0.0758,0.002,-0.004,0.009000000000000001
2025-11-06 18:32:56.200,41.2,-0.013000000000000001,0.046,-0.004,-0.041,-0.995,0.012,68.54,-13.790000000000001,-72.96000000000001,0.6956,-0.7064,0.10600000000000001,0.0757,0.001,-0.003,0.008
2025-11-06 18:32:56.200,41.205,-0.01,0.041,-0.005,-0.041,-0.994,0.012,68.54,-13.790000000000001,-72.96000000000001,0.6959000000000001,-0.7061000000000001,0.10590000000000001,0.0757,0.0,-0.004,0.007
2025-11-06 18:32:56.200,41.21,-0.011,0.037,-0.002,-0.039,-0.992,0.013000000000000001,68.81,-13.94,-74.18,0.6961,-0.7060000000000001,0.1058,0.0756,0.0,-0.006,0.005
2025-11-06 18:32:56.200,41.215,-0.013000000000000001,0.033,-0.002,-0.039,-0.993,0.014,68.81,-13.94,-74.18,0.6963,-0.7058,0.1057,0.0756,-0.001,-0.005,0.004
2025-11-06 18:32:56.200,41.22,-0.01,0.027,-0.004,-0.037,-0.994,0.016,68.81,-13.94,-74.18,0.6963,-0.7058,0.10550000000000001,0.0756,-0.002,-0.004,0.002
2025-11-06 18:32:56.200,41.225,-0.012,0.025,-0.002,-0.037,-0.996,0.018000000000000002,69.19,-14.17,-72.87,0.6964,-0.7058,0.10540000000000001,0.0757,-0.002,-0.002,0.0
2025-11-06 18:32:56.200,41.23,-0.01,0.023,-0.003,-0.036000000000000004,-0.995,0.019,69.19,-14.17,-72.87,0.6963,-0.7058,0.1052,0.0757,-0.003,-0.003,0.0
2025-11-06 18:32:56.200,41.235,-0.01,0.02,-0.004,-0.034,-0.995,0.019,68.72,-13.44,-73.98,0.6963,-0.7059000000000001,0.10500000000000001,0.0758,-0.004,-0.003,-0.001
2025-11-06 18:32:56.200,41.24,-0.011,0.021,-0.004,-0.035,-0.995,0.019,68.72,-13.44,-73.98,0.6963,-0.7059000000000001,0.1048,0.07590000000000001,-0.003,-0.003,0.0
2025-11-06 18:32:56.201,41.245,-0.009000000000000001,0.025,-0.002,-0.033,-0.995,0.019,68.72,-13.44,-73.98,0.6963,-0.7059000000000001,0.1046,0.076,-0.004,-0.003,0.0
2025-11-06 18:32:56.201,41.25,-0.012,0.019,-0.004,-0.034,-0.996,0.019,69.57000000000001,-14.08,-73.10000000000001,0.6963,-0.7060000000000001,0.1044,0.076,-0.004,-0.002,-0.001
2025-11-06 18:32:56.201,41.255,-0.013000000000000001,0.022,-0.002,-0.035,-0.996,0.018000000000000002,69.57000000000001,-14.08,-73.10000000000001,0.6963,-0.7060000000000001,0.1043,0.0761,-0.002,-0.002,0.0
2025-11-06 18:32:56.201,41.26,-0.011,0.024,-0.002,-0.034,-0.996,0.018000000000000002,68.66,-13.620000000000001,-73.75,0.6963,-0.7060000000000001,0.1041,0.0761,-0.002,-0.002,0.0
2025-11-06 18:32:56.201,41.265,-0.01,0.028,-0.001,-0.036000000000000004,-0.996,0.018000000000000002,68.66,-13.620000000000001,-73.75,0.6963,-0.7060000000000001,0.10400000000000001,0.0761,0.0,-0.002,0.0
2025-11-06 18:32:56.201,41.27,-0.006,0.024,-0.001,-0.035,-0.995,0.018000000000000002,68.69,-13.91,-73.60000000000001,0.6963,-0.7060000000000001,0.1039,0.0761,-0.001,-0.003,0.0
2025-11-06 18:32:56.201,41.275,-0.004,0.022,0.0,-0.036000000000000004,-0.995,0.018000000000000002,68.69,-13.91,-73.60000000000001,0.6963,-0.7060000000000001,0.1039,0.0761,0.0,-0.003,0.0
2025-11-06 18:32:56.201,41.28,-0.001,0.024,-0.002,-0.038,-0.995,0.019,68.69,-13.91,-73.60000000000001,0.6963,-0.7060000000000001,0.1039,0.076,0.001,-0.003,-0.001
2025-11-06 18:32:56.201,41.285,0.002,0.02,-0.002,-0.038,-0.995,0.02,68.57000000000001,-13.68,-73.37,0.6962,-0.7061000000000001,0.1039,0.07590000000000001,0.001,-0.003,-0.002
2025-11-06 18:32:56.201,41.29,0.004,0.021,-0.004,-0.039,-0.994,0.02,68.57000000000001,-13.68,-73.37,0.6962,-0.7061000000000001,0.1039,0.0758,0.001,-0.004,-0.001
2025-11-06 18:32:56.201,41.295,0.005,0.015,-0.005,-0.038,-0.993,0.021,68.78,-13.41,-72.9,0.6961,-0.7062,0.1039,0.0757,0.0,-0.005,-0.002
2025-11-06 18:32:56.201,41.3,0.007,0.012,-0.005,-0.04,-0.995,0.02,68.78,-13.41,-72.9,0.6961,-0.7062,0.10400000000000001,0.0757,0.002,-0.003,-0.001
2025-11-06 18:32:56.201,41.305,0.004,0.007,-0.007,-0.038,-0.994,0.019,68.78,-13.41,-72.9,0.6960000000000001,-0.7063,0.10400000000000001,0.0756,0.0,-0.004,0.0
2025-11-06 18:32:56.201,41.31,-0.001,0.005,-0.006,-0.037,-0.995,0.021,68.75,-13.27,-73.13,0.6960000000000001,-0.7063,0.10400000000000001,0.0756,0.0,-0.003,-0.001
2025-11-06 18:32:56.201,41.315,0.0,0.003,-0.007,-0.039,-0.995,0.022,68.75,-13.27,-73.13,0.6959000000000001,-0.7064,0.10400000000000001,0.0756,0.001,-0.004,-0.002
2025-11-06 18:32:56.201,41.32,0.0,0.003,-0.006,-0.038,-0.995,0.022,68.37,-13.3,-73.16,0.6958000000000001,-0.7065,0.1041,0.0755,0.0,-0.003,-0.002
2025-11-06 18:32:56.201,41.325,0.0,0.0,-0.006,-0.039,-0.995,0.023,68.37,-13.3,-73.16,0.6957,-0.7066,0.1041,0.0755,0.001,-0.003,-0.003
2025-11-06 18:32:56.201,41.33,0.001,0.003,-0.005,-0.039,-0.995,0.026000000000000002,68.98,-13.790000000000001,-73.42,0.6955,-0.7068,0.1042,0.07540000000000001,0.001,-0.003,-0.005
2025-11-06 18:32:56.201,41.335,0.001,0.001,-0.004,-0.039,-0.995,0.027,68.98,-13.790000000000001,-73.42,0.6953,-0.7070000000000001,0.1043,0.07540000000000001,0.0,-0.003,-0.006
2025-11-06 18:32:56.201,41.34,0.002,0.002,-0.004,-0.039,-0.995,0.029,68.98,-13.790000000000001,-73.42,0.6951,-0.7072,0.1043,0.0753,0.0,-0.003,-0.007
2025-11-06 18:32:56.201,41.345,0.002,0.003,-0.004,-0.04,-0.995,0.028,68.89,-12.94,-73.19,0.6949000000000001,-0.7074,0.1044,0.0753,0.001,-0.003,-0.006
2025-11-06 18:32:56.202,41.35,0.002,0.0,-0.003,-0.039,-0.995,0.029,68.89,-12.94,-73.19,0.6947,-0.7076,0.1044,0.0752,0.0,-0.003,-0.006
2025-11-06 18:32:56.202,41.355,0.003,0.0,-0.004,-0.04,-0.995,0.026000000000000002,68.92,-13.24,-73.51,0.6946,-0.7077,0.10450000000000001,0.0752,0.001,-0.003,-0.002
2025-11-06 18:32:56.202,41.36,0.002,-0.001,-0.004,-0.037,-0.995,0.027,68.92,-13.24,-73.51,0.6944,-0.7078,0.10450000000000001,0.0752,-0.001,-0.003,-0.003
2025-11-06 18:32:56.202,41.365,0.0,0.001,-0.004,-0.039,-0.995,0.026000000000000002,68.92,-13.24,-73.86,0.6944,-0.7079000000000001,0.10450000000000001,0.0752,0.0,-0.003,-0.002
2025-11-06 18:32:56.202,41.37,0.0,-0.005,-0.005,-0.038,-0.996,0.028,69.21000000000001,-13.44,-73.86,0.6942,-0.7080000000000001,0.10450000000000001,0.0752,0.0,-0.002,-0.003
2025-11-06 18:32:56.202,41.375,-0.003,-0.003,-0.005,-0.037,-0.997,0.029,69.21000000000001,-13.44,-73.86,0.6941,-0.7082,0.10450000000000001,0.0752,-0.001,-0.001,-0.004
2025-11-06 18:32:56.202,41.38,-0.005,0.003,-0.006,-0.037,-0.996,0.029,68.66,-13.27,-73.95,0.6939000000000001,-0.7083,0.10450000000000001,0.0752,0.0,-0.002,-0.004
2025-11-06 18:32:56.202,41.385,-0.006,0.0,-0.007,-0.037,-0.998,0.029,68.66,-13.27,-73.95,0.6938000000000001,-0.7084,0.10450000000000001,0.0753,-0.001,0.0,-0.003
2025-11-06 18:32:56.202,41.39,-0.007,0.001,-0.009000000000000001,-0.036000000000000004,-0.997,0.029,69.24,-12.89,-74.07000000000001,0.6937,-0.7086,0.1044,0.0753,-0.001,-0.001,-0.003
2025-11-06 18:32:56.202,41.395,-0.008,0.001,-0.008,-0.037,-0.997,0.031,69.24,-12.89,-74.07000000000001,0.6935,-0.7087,0.1044,0.07540000000000001,0.0,-0.001,-0.005
2025-11-06 18:32:56.202,41.4,-0.004,0.002,-0.007,-0.038,-0.997,0.032,69.24,-12.89,-74.07000000000001,0.6934,-0.7089000000000001,0.1044,0.0753,0.0,-0.001,-0.005
2025-11-06 18:32:56.202,41.405,-0.002,0.005,-0.007,-0.038,-0.996,0.034,68.95,-13.44,-73.83,0.6931,-0.7091000000000001,0.10450000000000001,0.0753,0.0,-0.002,-0.007
2025-11-06 18:32:56.202,41.41,0.0,0.002,-0.007,-0.039,-0.996,0.034,68.95,-13.44,-73.83,0.6929000000000001,-0.7093,0.10450000000000001,0.0752,0.001,-0.002,-0.006
2025-11-06 18:32:56.202,41.415,0.005,0.008,-0.005,-0.041,-0.995,0.033,68.89,-13.88,-74.15,0.6927,-0.7095,0.1046,0.0751,0.002,-0.002,-0.004
2025-11-06 18:32:56.202,41.42,0.01,0.006,-0.005,-0.041,-0.993,0.036000000000000004,68.89,-13.88,-74.15,0.6925,-0.7097,0.1047,0.075,0.002,-0.005,-0.006
2025-11-06 18:32:56.202,41.425,0.013000000000000001,0.006,-0.004,-0.042,-0.992,0.037,69.71000000000001,-13.97,-73.04,0.6922,-0.7100000000000001,0.1048,0.0748,0.003,-0.005,-0.007
2025-11-06 18:32:56.202,41.43,0.013000000000000001,0.004,-0.004,-0.042,-0.993,0.035,69.71000000000001,-13.97,-73.04,0.6921,-0.7102,0.10490000000000001,0.0746,0.003,-0.005,-0.005
2025-11-06 18:32:56.202,41.435,0.011,-0.003,-0.006,-0.042,-0.993,0.036000000000000004,69.71000000000001,-13.97,-73.04,0.6918000000000001,-0.7103,0.1051,0.0745,0.002,-0.005,-0.005
2025-11-06 18:32:56.202,41.44,0.01,-0.003,-0.009000000000000001,-0.04,-0.994,0.036000000000000004,68.95,-13.73,-72.84,0.6917,-0.7105,0.1051,0.0745,0.001,-0.004,-0.005
2025-11-06 18:32:56.202,41.445,0.011,-0.004,-0.005,-0.038,-0.994,0.035,68.95,-13.73,-72.84,0.6915,-0.7107,0.1051,0.0745,0.0,-0.003,-0.003
2025-11-06 18:32:56.202,41.45,0.011,-0.005,-0.005,-0.037,-0.996,0.034,68.54,-13.82,-73.77,0.6914,-0.7108,0.1051,0.0746,-0.001,-0.001,-0.002
2025-11-06 18:32:56.202,41.455,0.01,-0.004,-0.007,-0.038,-0.996,0.033,68.54,-13.82,-73.77,0.6914,-0.7108,0.1051,0.0746,0.0,-0.001,-0.001
2025-11-06 18:32:56.202,41.46,0.01,-0.006,-0.005,-0.038,-0.996,0.032,68.54,-13.82,-73.77,0.6913,-0.7108,0.1051,0.0747,-0.001,-0.001,0.0
2025-11-06 18:32:56.203,41.465,0.01,-0.005,-0.007,-0.038,-0.997,0.029,68.4,-13.24,-73.34,0.6914,-0.7108,0.10500000000000001,0.0747,0.0,0.0,0.003
2025-11-06 18:32:56.203,41.47,0.013000000000000001,-0.001,-0.008,-0.037,-0.997,0.03,68.4,-13.24,-73.34,0.6914,-0.7107,0.10500000000000001,0.0748,-0.001,0.0,0.002
2025-11-06 18:32:56.203,41.475,0.015,-0.006,-0.007,-0.037,-0.996,0.029,69.04,-13.24,-73.66,0.6915,-0.7107,0.10490000000000001,0.0748,-0.001,-0.002,0.002
2025-11-06 18:32:56.203,41.48,0.019,-0.004,-0.008,-0.036000000000000004,-0.993,0.029,69.04,-13.24,-73.66,0.6915,-0.7107,0.10490000000000001,0.07490000000000001,-0.002,-0.004,0.002
2025-11-06 18:32:56.203,41.485,0.021,0.004,-0.008,-0.035,-0.994,0.026000000000000002,69.19,-13.47,-72.9,0.6916,-0.7105,0.1047,0.0751,-0.002,-0.004,0.005
2025-11-06 18:32:56.204,41.49,0.021,0.002,-0.008,-0.034,-0.993,0.025,69.19,-13.47,-72.9,0.6918000000000001,-0.7104,0.1046,0.0752,-0.003,-0.005,0.006
2025-11-06 18:32:56.204,41.495,0.019,0.004,-0.009000000000000001,-0.034,-0.993,0.023,69.19,-13.47,-72.9,0.6920000000000001,-0.7102,0.10450000000000001,0.0753,-0.002,-0.004,0.007
2025-11-06 18:32:56.204,41.5,0.016,0.0,-0.009000000000000001,-0.036000000000000004,-0.994,0.021,70.53,-13.530000000000001,-73.19,0.6922,-0.7100000000000001,0.1044,0.07540000000000001,-0.001,-0.004,0.008
2025-11-06 18:32:56.204,41.505,0.014,-0.007,-0.008,-0.036000000000000004,-0.994,0.022,70.53,-13.530000000000001,-73.19,0.6924,-0.7098,0.1043,0.0755,0.0,-0.003,0.006
2025-11-06 18:32:56.204,41.51,0.009000000000000001,-0.014,-0.009000000000000001,-0.035,-0.997,0.023,68.89,-13.88,-73.60000000000001,0.6926,-0.7096,0.1043,0.0756,-0.001,-0.001,0.005
2025-11-06 18:32:56.204,41.515,0.005,-0.015,-0.009000000000000001,-0.033,-0.996,0.024,68.89,-13.88,-73.60000000000001,0.6927,-0.7095,0.1042,0.0757,-0.003,-0.002,0.004
2025-11-06 18:32:56.204,41.52,0.003,-0.013000000000000001,-0.009000000000000001,-0.032,-0.999,0.025,68.89,-13.88,-73.60000000000001,0.6928000000000001,-0.7094,0.10400000000000001,0.07590000000000001,-0.004,0.0,0.003
2025-11-06 18:32:56.204,41.525,-0.003,-0.006,-0.007,-0.029,-0.999,0.027,69.10000000000001,-13.15,-73.48,0.6928000000000001,-0.7094,0.1038,0.0762,-0.006,0.0,0.001
2025-11-06 18:32:56.204,41.53,-0.005,-0.003,-0.005,-0.028,-0.998,0.024,69.10000000000001,-13.15,-73.48,0.6929000000000001,-0.7093,0.10360000000000001,0.07640000000000001,-0.006,0.0,0.003
2025-11-06 18:32:56.204,41.535,-0.003,0.0,-0.004,-0.028,-0.997,0.022,68.83,-13.09,-73.66,0.6931,-0.7092,0.1033,0.0767,-0.006,-0.001,0.005
2025-11-06 18:32:56.204,41.54,-0.002,0.0,-0.002,-0.028,-0.998,0.022,68.83,-13.09,-73.66,0.6932,-0.7091000000000001,0.10310000000000001,0.07690000000000001,-0.006,0.0,0.004
2025-11-06 18:32:56.204,41.545,0.001,0.002,-0.001,-0.027,-0.997,0.02,69.07000000000001,-13.21,-74.39,0.6934,-0.7089000000000001,0.1029,0.0771,-0.006,-0.001,0.005
2025-11-06 18:32:56.204,41.55,0.006,0.004,-0.001,-0.03,-0.996,0.02,69.07000000000001,-13.21,-74.39,0.6935,-0.7087,0.1028,0.0772,-0.002,-0.002,0.006
2025-11-06 18:32:56.204,41.555,0.009000000000000001,0.003,-0.001,-0.028,-0.995,0.022,69.07000000000001,-13.21,-74.39,0.6936,-0.7087,0.10260000000000001,0.07740000000000001,-0.003,-0.003,0.003
2025-11-06 18:32:56.204,41.56,0.011,0.0,-0.002,-0.028,-0.994,0.026000000000000002,69.27,-13.0,-73.75,0.6936,-0.7087,0.10250000000000001,0.0775,-0.003,-0.004,0.0
2025-11-06 18:32:56.204,41.565,0.013000000000000001,-0.003,-0.002,-0.028,-0.995,0.027,69.27,-13.0,-73.75,0.6935,-0.7088,0.1024,0.0776,-0.003,-0.003,-0.001
2025-11-06 18:32:56.204,41.57,0.015,-0.008,-0.002,-0.028,-0.994,0.032,68.66,-13.700000000000001,-73.63,0.6932,-0.7091000000000001,0.1023,0.0777,-0.003,-0.004,-0.005
2025-11-06 18:32:56.204,41.575,0.009000000000000001,-0.021,-0.001,-0.027,-0.996,0.035,68.66,-13.700000000000001,-73.63,0.6929000000000001,-0.7093,0.1022,0.07780000000000001,-0.004,-0.002,-0.008
2025-11-06 18:32:56.204,41.58,0.005,-0.026000000000000002,-0.003,-0.026000000000000002,-0.996,0.038,68.66,-13.700000000000001,-73.63,0.6926,-0.7097,0.10210000000000001,0.0779,-0.004,-0.002,-0.009000000000000001
2025-11-06 18:32:56.204,41.585,0.0,-0.029,-0.002,-0.025,-0.997,0.041,69.77,-13.68,-73.07000000000001,0.6922,-0.7101000000000001,0.10200000000000001,0.078,-0.005,-0.001,-0.012
2025-11-06 18:32:56.204,41.59,0.0,-0.034,-0.002,-0.025,-0.998,0.04,69.77,-13.68,-73.07000000000001,0.6918000000000001,-0.7105,0.10200000000000001,0.0782,-0.004,0.0,-0.01
2025-11-06 18:32:56.204,41.595,-0.004,-0.037,-0.003,-0.024,-0.998,0.041,69.36,-13.41,-73.22,0.6914,-0.7108,0.1019,0.0784,-0.004,0.0,-0.01
2025-11-06 18:32:56.204,41.6,-0.007,-0.035,-0.001,-0.025,-0.998,0.039,69.36,-13.41,-73.22,0.6912,-0.7111000000000001,0.1018,0.0785,-0.003,0.0,-0.007
2025-11-06 18:32:56.204,41.605,-0.008,-0.037,-0.001,-0.024,-0.997,0.035,68.86,-13.88,-73.34,0.6910000000000001,-0.7112,0.1018,0.0787,-0.004,-0.001,-0.003
2025-11-06 18:32:56.204,41.61,-0.006,-0.042,0.0,-0.025,-0.997,0.034,68.86,-13.88,-73.34,0.6910000000000001,-0.7112,0.1018,0.0789,-0.002,-0.001,-0.001
2025-11-06 18:32:56.204,41.615,-0.005,-0.044,-0.001,-0.026000000000000002,-0.996,0.032,68.86,-13.88,-73.34,0.6910000000000001,-0.7112,0.1018,0.079,-0.001,-0.002,0.0
2025-11-06 18:32:56.204,41.62,0.002,-0.047,0.001,-0.029,-0.997,0.03,69.24,-13.21,-72.72,0.6910000000000001,-0.7111000000000001,0.1019,0.0791,0.0,-0.001,0.001
2025-11-06 18:32:56.204,41.625,0.005,-0.049,0.001,-0.029,-0.997,0.03,69.24,-13.21,-72.72,0.6910000000000001,-0.7111000000000001,0.10200000000000001,0.0791,0.001,-0.002,0.001
2025-11-06 18:32:56.204,41.63,0.011,-0.05,0.002,-0.03,-0.994,0.031,68.72,-13.620000000000001,-73.25,0.6910000000000001,-0.7111000000000001,0.1022,0.0791,0.002,-0.004,0.0
2025-11-06 18:32:56.204,41.635,0.011,-0.057,0.002,-0.031,-0.994,0.032,68.72,-13.620000000000001,-73.25,0.6910000000000001,-0.7111000000000001,0.1024,0.0791,0.002,-0.004,0.0
2025-11-06 18:32:56.204,41.64,0.011,-0.059000000000000004,0.002,-0.031,-0.995,0.032,68.72,-13.620000000000001,-73.25,0.6909000000000001,-0.7111000000000001,0.10260000000000001,0.0791,0.002,-0.003,0.0
2025-11-06 18:32:56.204,41.645,0.008,-0.066,0.003,-0.032,-0.996,0.029,68.89,-13.530000000000001,-73.45,0.6910000000000001,-0.7110000000000001,0.1028,0.0791,0.002,-0.002,0.002
2025-11-06 18:32:56.204,41.65,0.01,-0.066,0.001,-0.031,-0.995,0.029,68.89,-13.530000000000001,-73.45,0.6911,-0.7109000000000001,0.10300000000000001,0.0792,0.001,-0.003,0.003
2025-11-06 18:32:56.204,41.655,0.009000000000000001,-0.069,0.003,-0.031,-0.995,0.03,68.60000000000001,-13.21,-72.99,0.6911,-0.7108,0.10310000000000001,0.07930000000000001,0.001,-0.003,0.001
2025-11-06 18:32:56.204,41.66,0.01,-0.065,0.005,-0.032,-0.995,0.029,68.60000000000001,-13.21,-72.99,0.6912,-0.7107,0.1033,0.07930000000000001,0.002,-0.003,0.002
2025-11-06 18:32:56.204,41.665,0.008,-0.066,0.003,-0.031,-0.995,0.025,69.48,-13.88,-73.22,0.6913,-0.7106,0.10350000000000001,0.0794,0.001,-0.003,0.005
2025-11-06 18:32:56.204,41.67,0.007,-0.064,0.005,-0.033,-0.994,0.024,69.48,-13.88,-73.22,0.6915,-0.7103,0.1037,0.0794,0.002,-0.004,0.006
2025-11-06 18:32:56.204,41.675,0.005,-0.066,0.006,-0.033,-0.996,0.023,69.48,-13.88,-73.22,0.6917,-0.7101000000000001,0.1039,0.0795,0.002,-0.002,0.006
2025-11-06 18:32:56.204,41.68,0.005,-0.066,0.005,-0.033,-0.993,0.023,68.89,-13.620000000000001,-73.37,0.6919000000000001,-0.7099000000000001,0.10400000000000001,0.0795,0.002,-0.005,0.006
2025-11-06 18:32:56.204,41.685,0.002,-0.064,0.006,-0.033,-0.994,0.022,68.89,-13.620000000000001,-73.37,0.6921,-0.7097,0.1042,0.0796,0.002,-0.004,0.006
2025-11-06 18:32:56.204,41.69,0.001,-0.069,0.006,-0.032,-0.995,0.021,68.81,-13.41,-73.10000000000001,0.6923,-0.7094,0.1044,0.07970000000000001,0.001,-0.003,0.007
2025-11-06 18:32:56.204,41.695,0.0,-0.069,0.006,-0.034,-0.996,0.021,68.81,-13.41,-73.10000000000001,0.6925,-0.7092,0.1046,0.07970000000000001,0.002,-0.002,0.006
2025-11-06 18:32:56.204,41.7,0.0,-0.069,0.005,-0.032,-0.996,0.023,68.81,-13.41,-73.10000000000001,0.6927,-0.7090000000000001,0.1047,0.07980000000000001,0.001,-0.002,0.004
2025-11-06 18:32:56.204,41.705,0.0,-0.063,0.006,-0.033,-0.997,0.024,69.83,-13.35,-73.25,0.6928000000000001,-0.7089000000000001,0.10490000000000001,0.0799,0.001,-0.001,0.002
2025-11-06 18:32:56.204,41.71,-0.001,-0.061,0.007,-0.031,-0.997,0.027,69.83,-13.35,-73.25,0.6927,-0.7089000000000001,0.10500000000000001,0.08,0.0,-0.001,0.0
2025-11-06 18:32:56.204,41.715,-0.002,-0.053,0.008,-0.033,-0.994,0.025,68.81,-13.35,-73.60000000000001,0.6928000000000001,-0.7088,0.1051,0.08,0.0,-0.004,0.002
2025-11-06 18:32:56.204,41.72,0.0,-0.054,0.01,-0.031,-0.995,0.026000000000000002,68.81,-13.35,-73.60000000000001,0.6928000000000001,-0.7088,0.1052,0.0801,0.0,-0.003,0.0
2025-11-06 18:32:56.204,41.725,0.0,-0.052000000000000005,0.009000000000000001,-0.029,-0.995,0.027,68.43,-13.15,-73.28,0.6927,-0.7088,0.1053,0.08030000000000001,-0.002,-0.003,0.0
2025-11-06 18:32:56.204,41.73,0.0,-0.05,0.011,-0.031,-0.995,0.029,68.43,-13.15,-73.28,0.6927,-0.7089000000000001,0.10540000000000001,0.0804,0.0,-0.003,-0.001
2025-11-06 18:32:56.204,41.735,-0.002,-0.048,0.01,-0.031,-0.997,0.031,68.43,-13.15,-73.28,0.6925,-0.7090000000000001,0.10550000000000001,0.0804,0.0,-0.002,-0.003
2025-11-06 18:32:56.204,41.74,0.0,-0.048,0.009000000000000001,-0.032,-0.997,0.03,68.34,-13.47,-73.72,0.6924,-0.7090000000000001,0.1056,0.0804,0.0,-0.001,-0.002
2025-11-06 18:32:56.204,41.745,-0.001,-0.05,0.009000000000000001,-0.031,-0.997,0.031,68.34,-13.47,-73.72,0.6923,-0.7091000000000001,0.1057,0.0805,0.0,-0.001,-0.003
2025-11-06 18:32:56.204,41.75,-0.002,-0.045,0.011,-0.029,-0.998,0.029,68.19,-13.85,-73.01,0.6923,-0.7092,0.1057,0.08070000000000001,-0.002,0.0,-0.001
2025-11-06 18:32:56.204,41.755,-0.007,-0.05,0.009000000000000001,-0.029,-0.997,0.028,68.19,-13.85,-73.01,0.6922,-0.7092,0.1057,0.08080000000000001,-0.002,-0.001,0.0
2025-11-06 18:32:56.204,41.76,-0.01,-0.051000000000000004,0.009000000000000001,-0.028,-0.998,0.027,68.19,-13.85,-72.96000000000001,0.6923,-0.7091000000000001,0.1057,0.081,-0.003,0.0,0.001
2025-11-06 18:32:56.204,41.765,-0.012,-0.053,0.011,-0.029,-0.996,0.024,68.81,-13.27,-72.96000000000001,0.6924,-0.7090000000000001,0.1058,0.08120000000000001,-0.002,-0.002,0.003
2025-11-06 18:32:56.204,41.77,-0.01,-0.057,0.011,-0.029,-0.997,0.025,68.81,-13.27,-72.96000000000001,0.6924,-0.7089000000000001,0.1058,0.0813,-0.001,-0.001,0.001
2025-11-06 18:32:56.204,41.775,-0.01,-0.056,0.012,-0.029,-0.997,0.025,68.72,-13.35,-73.48,0.6925,-0.7088,0.10590000000000001,0.0815,-0.001,-0.001,0.001
2025-11-06 18:32:56.206,41.78,-0.005,-0.057,0.011,-0.031,-0.996,0.024,68.72,-13.35,-73.48,0.6926,-0.7087,0.10600000000000001,0.0816,0.0,-0.002,0.002
2025-11-06 18:32:56.206,41.785,-0.002,-0.062,0.012,-0.031,-0.998,0.025,68.69,-13.27,-73.10000000000001,0.6926,-0.7087,0.1061,0.0816,0.0,0.0,0.001
2025-11-06 18:32:56.206,41.79,0.0,-0.067,0.011,-0.031,-0.996,0.028,68.69,-13.27,-73.10000000000001,0.6925,-0.7087,0.1063,0.08170000000000001,0.0,-0.002,-0.001
2025-11-06 18:32:56.206,41.795,0.002,-0.066,0.01,-0.031,-0.997,0.03,68.69,-13.27,-73.10000000000001,0.6924,-0.7088,0.10640000000000001,0.0818,0.0,-0.002,-0.003
2025-11-06 18:32:56.206,41.8,0.002,-0.069,0.011,-0.03,-0.996,0.034,68.43,-13.530000000000001,-73.28,0.6922,-0.7090000000000001,0.1066,0.0819,0.0,-0.002,-0.006
2025-11-06 18:32:56.206,41.805,0.005,-0.07,0.011,-0.032,-0.996,0.033,68.43,-13.530000000000001,-73.28,0.6920000000000001,-0.7091000000000001,0.1068,0.0819,0.001,-0.002,-0.004
2025-11-06 18:32:56.206,41.81,0.005,-0.066,0.011,-0.031,-0.996,0.033,68.69,-13.09,-73.19,0.6918000000000001,-0.7093,0.10690000000000001,0.082,0.0,-0.002,-0.004
2025-11-06 18:32:56.206,41.815,0.007,-0.067,0.014,-0.031,-0.995,0.032,68.69,-13.09,-73.19,0.6917,-0.7094,0.1071,0.0821,0.0,-0.003,-0.003
2025-11-06 18:32:56.206,41.82,0.005,-0.066,0.014,-0.034,-0.994,0.035,68.31,-13.27,-73.77,0.6915,-0.7095,0.1073,0.0821,0.002,-0.005,-0.005
2025-11-06 18:32:56.207,41.825,0.005,-0.068,0.01,-0.032,-0.997,0.036000000000000004,68.31,-13.27,-73.77,0.6913,-0.7097,0.1075,0.0821,0.0,-0.001,-0.006
2025-11-06 18:32:56.207,41.83,0.006,-0.065,0.013000000000000001,-0.031,-0.998,0.035,68.31,-13.27,-73.77,0.6911,-0.7098,0.1077,0.08220000000000001,0.0,0.0,-0.004
2025-11-06 18:32:56.207,41.835,0.004,-0.07,0.013000000000000001,-0.032,-0.995,0.037,69.19,-13.56,-73.77,0.6909000000000001,-0.7100000000000001,0.10790000000000001,0.0823,0.0,-0.003,-0.006
2025-11-06 18:32:56.207,41.84,0.007,-0.069,0.012,-0.032,-0.996,0.036000000000000004,69.19,-13.56,-73.77,0.6907,-0.7102,0.108,0.0823,0.0,-0.002,-0.004
2025-11-06 18:32:56.207,41.845,0.003,-0.062,0.012,-0.033,-0.994,0.037,70.0,-13.24,-73.69,0.6905,-0.7103,0.1082,0.0824,0.001,-0.004,-0.004
2025-11-06 18:32:56.207,41.85,0.004,-0.063,0.015,-0.033,-0.996,0.037,70.0,-13.24,-73.69,0.6903,-0.7104,0.10840000000000001,0.0824,0.001,-0.002,-0.004
2025-11-06 18:32:56.207,41.855,0.004,-0.064,0.012,-0.033,-0.995,0.036000000000000004,70.0,-13.24,-73.69,0.6902,-0.7105,0.1086,0.0824,0.0,-0.003,-0.002
2025-11-06 18:32:56.207,41.86,0.005,-0.066,0.014,-0.035,-0.995,0.034,69.51,-12.86,-73.39,0.6902,-0.7105,0.10880000000000001,0.0824,0.002,-0.002,0.0
2025-11-06 18:32:56.207,41.865,0.004,-0.064,0.016,-0.033,-0.997,0.032,69.51,-12.86,-73.39,0.6902,-0.7105,0.109,0.0825,0.0,0.0,0.001
2025-11-06 18:32:56.207,41.87,0.004,-0.062,0.018000000000000002,-0.033,-0.998,0.03,68.95,-12.68,-73.60000000000001,0.6903,-0.7104,0.1091,0.0826,0.0,0.0,0.002
2025-11-06 18:32:56.207,41.875,0.005,-0.068,0.016,-0.033,-0.997,0.029,68.95,-12.68,-73.60000000000001,0.6904,-0.7102,0.10930000000000001,0.08270000000000001,0.0,-0.001,0.003
2025-11-06 18:32:56.207,41.88,0.007,-0.07,0.017,-0.03,-0.997,0.026000000000000002,68.69,-13.09,-73.48,0.6905,-0.7101000000000001,0.10930000000000001,0.0829,-0.002,-0.001,0.005
2025-11-06 18:32:56.207,41.885,0.009000000000000001,-0.07200000000000001,0.016,-0.03,-0.998,0.025,68.69,-13.09,-73.48,0.6907,-0.7099000000000001,0.10940000000000001,0.08310000000000001,-0.002,0.0,0.006
2025-11-06 18:32:56.207,41.89,0.008,-0.075,0.017,-0.031,-0.998,0.025,68.69,-13.09,-73.48,0.6909000000000001,-0.7097,0.10940000000000001,0.0833,-0.001,0.0,0.006
2025-11-06 18:32:56.207,41.895,0.007,-0.076,0.015,-0.032,-0.997,0.024,68.43,-13.56,-74.07000000000001,0.6910000000000001,-0.7095,0.1096,0.0834,0.0,-0.001,0.006
2025-11-06 18:32:56.208,41.9,0.006,-0.075,0.016,-0.031,-0.997,0.024,68.43,-13.56,-74.07000000000001,0.6912,-0.7093,0.1097,0.08360000000000001,-0.001,-0.001,0.005
2025-11-06 18:32:56.208,41.905,0.006,-0.076,0.016,-0.033,-0.997,0.024,68.02,-13.120000000000001,-73.89,0.6913,-0.7091000000000001,0.10980000000000001,0.08370000000000001,0.0,-0.001,0.005
2025-11-06 18:32:56.208,41.91,0.008,-0.07,0.016,-0.033,-0.995,0.027,68.02,-13.120000000000001,-73.89,0.6914,-0.7090000000000001,0.11,0.0838,0.0,-0.003,0.002
2025-11-06 18:32:56.208,41.915,0.01,-0.07200000000000001,0.016,-0.036000000000000004,-0.996,0.03,68.02,-13.120000000000001,-73.89,0.6913,-0.7090000000000001,0.1102,0.0838,0.002,-0.002,0.0
2025-11-06 18:32:56.208,41.92,0.016,-0.07200000000000001,0.017,-0.036000000000000004,-0.994,0.032,68.4,-13.120000000000001,-73.57000000000001,0.6912,-0.7091000000000001,0.1105,0.0838,0.002,-0.004,-0.002
2025-11-06 18:32:56.208,41.925,0.013000000000000001,-0.073,0.016,-0.036000000000000004,-0.995,0.035,68.4,-13.120000000000001,-73.57000000000001,0.6910000000000001,-0.7093,0.1107,0.0838,0.002,-0.003,-0.004
2025-11-06 18:32:56.208,41.93,0.011,-0.066,0.016,-0.039,-0.995,0.037,68.16,-13.59,-73.19,0.6908000000000001,-0.7094,0.1111,0.08370000000000001,0.005,-0.003,-0.006
2025-11-06 18:32:56.208,41.935,0.008,-0.06,0.017,-0.039,-0.995,0.038,68.16,-13.59,-73.19,0.6906,-0.7096,0.1114,0.08360000000000001,0.004,-0.003,-0.006
2025-11-06 18:32:56.208,41.94,0.008,-0.055,0.017,-0.041,-0.996,0.036000000000000004,68.19,-13.65,-73.45,0.6904,-0.7097,0.11180000000000001,0.0834,0.005,-0.002,-0.004
2025-11-06 18:32:56.208,41.945,0.004,-0.056,0.016,-0.044,-0.995,0.036000000000000004,68.19,-13.65,-73.45,0.6903,-0.7098,0.1121,0.08320000000000001,0.007,-0.003,-0.003
2025-11-06 18:32:56.208,41.95,0.003,-0.054,0.015,-0.045,-0.993,0.034,68.19,-13.65,-73.45,0.6903,-0.7098,0.1125,0.083,0.008,-0.005,-0.001
2025-11-06 18:32:56.208,41.955,0.0,-0.05,0.016,-0.045,-0.995,0.034,68.31,-14.14,-73.34,0.6902,-0.7098,0.1129,0.0828,0.007,-0.003,-0.001
2025-11-06 18:32:56.208,41.96,0.001,-0.042,0.016,-0.047,-0.994,0.035,68.31,-14.14,-73.34,0.6902,-0.7098,0.11330000000000001,0.0825,0.008,-0.004,-0.001
2025-11-06 18:32:56.208,41.965,0.0,-0.04,0.015,-0.048,-0.996,0.032,68.37,-13.68,-74.21000000000001,0.6902,-0.7097,0.1136,0.0823,0.008,-0.002,0.0
2025-11-06 18:32:56.208,41.97,0.0,-0.032,0.015,-0.049,-0.994,0.031,68.37,-13.68,-74.21000000000001,0.6903,-0.7096,0.114,0.082,0.009000000000000001,-0.003,0.001
2025-11-06 18:32:56.208,41.975,0.0,-0.032,0.013000000000000001,-0.049,-0.993,0.031,68.37,-13.68,-74.21000000000001,0.6904,-0.7095,0.1143,0.0818,0.007,-0.004,0.001
2025-11-06 18:32:56.208,41.98,0.002,-0.027,0.013000000000000001,-0.05,-0.995,0.032,68.81,-14.14,-73.86,0.6904,-0.7095,0.11460000000000001,0.0815,0.007,-0.002,0.0
2025-11-06 18:32:56.208,41.985,0.003,-0.029,0.009000000000000001,-0.05,-0.995,0.033,68.81,-14.14,-73.86,0.6904,-0.7095,0.1149,0.0813,0.007,-0.003,0.0
2025-11-06 18:32:56.208,41.99,0.002,-0.023,0.009000000000000001,-0.048,-0.995,0.034,69.62,-13.76,-73.60000000000001,0.6904,-0.7095,0.11510000000000001,0.08120000000000001,0.004,-0.002,-0.001
2025-11-06 18:32:56.208,41.995,0.002,-0.023,0.006,-0.048,-0.996,0.035,69.62,-13.76,-73.60000000000001,0.6903,-0.7095,0.1153,0.0811,0.004,-0.002,-0.001
2025-11-06 18:32:56.208,42.0,0.003,-0.011,0.005,-0.047,-0.994,0.036000000000000004,68.4,-13.47,-73.60000000000001,0.6902,-0.7096,0.1155,0.081,0.003,-0.003,-0.002
2025-11-06 18:32:56.208,42.005,0.003,-0.007,0.003,-0.045,-0.994,0.036000000000000004,68.4,-13.47,-73.60000000000001,0.6902,-0.7097,0.1155,0.081,0.0,-0.003,-0.002
2025-11-06 18:32:56.208,42.01,0.004,-0.004,0.003,-0.045,-0.993,0.037,68.4,-13.47,-73.60000000000001,0.6900000000000001,-0.7098,0.11560000000000001,0.081,0.0,-0.004,-0.003
2025-11-06 18:32:56.208,42.015,0.002,-0.006,0.0,-0.044,-0.995,0.038,68.07000000000001,-13.56,-73.8,0.6899000000000001,-0.7099000000000001,0.11570000000000001,0.081,0.0,-0.002,-0.004
2025-11-06 18:32:56.208,42.02,0.002,-0.001,0.003,-0.044,-0.995,0.036000000000000004,68.07000000000001,-13.56,-73.8,0.6898000000000001,-0.7100000000000001,0.11570000000000001,0.081,0.0,-0.003,-0.001
