System_Time,Timestamp,Gyro_X,Gyro_Y,Gyro_Z,Acc_X,Acc_Y,Acc_Z,Mag_X,Mag_Y,Mag_Z,Quat_W,Quat_X,Quat_Y,Quat_Z,Linear_Acc_X,Linear_Acc_Y,Linear_Acc_Z
2025-11-06 18:34:30.444,124.435,-0.006,-0.012,0.006,-0.157,-0.986,0.099,64.04,-16.19,-65.94,0.35550000000000004,-0.2828,0.6819000000000001,0.5732,-0.003,0.003,-0.009000000000000001
2025-11-06 18:34:30.444,124.44,-0.01,-0.002,0.008,-0.156,-0.986,0.1,65.71000000000001,-16.48,-65.71000000000001,0.3552,-0.28300000000000003,0.6821,0.5730000000000001,-0.003,0.003,-0.009000000000000001
2025-11-06 18:34:30.444,124.445,-0.011,0.006,0.01,-0.159,-0.985,0.099,65.71000000000001,-16.48,-65.71000000000001,0.35500000000000004,-0.2831,0.6823,0.5728,-0.001,0.002,-0.007
2025-11-06 18:34:30.444,124.45,-0.016,0.006,0.011,-0.16,-0.984,0.093,64.22,-15.93,-65.59,0.35500000000000004,-0.2831,0.6823,0.5728,0.0,0.001,-0.002
2025-11-06 18:34:30.444,124.455,-0.019,0.005,0.014,-0.161,-0.985,0.088,64.22,-15.93,-65.59,0.3552,-0.28300000000000003,0.6822,0.5729000000000001,0.001,0.002,0.002
2025-11-06 18:34:30.444,124.46,-0.023,0.003,0.016,-0.162,-0.984,0.083,64.22,-15.93,-65.59,0.3554,-0.2828,0.682,0.5731,0.002,0.001,0.006
2025-11-06 18:34:30.444,124.465,-0.02,0.003,0.016,-0.165,-0.982,0.083,64.54,-15.780000000000001,-65.47,0.3557,-0.2826,0.6818000000000001,0.5732,0.004,0.0,0.006
2025-11-06 18:34:30.444,124.47,-0.016,-0.007,0.016,-0.166,-0.979,0.08,64.54,-15.780000000000001,-65.47,0.35600000000000004,-0.2823,0.6817000000000001,0.5734,0.004,-0.003,0.008
2025-11-06 18:34:30.444,124.475,-0.018000000000000002,-0.006,0.012,-0.166,-0.979,0.082,64.3,-16.63,-65.39,0.3563,-0.28200000000000003,0.6815,0.5735,0.004,-0.003,0.006
2025-11-06 18:34:30.444,124.48,-0.017,-0.011,0.009000000000000001,-0.166,-0.978,0.084,64.3,-16.63,-65.39,0.35650000000000004,-0.2818,0.6815,0.5735,0.004,-0.003,0.003
2025-11-06 18:34:30.444,124.485,-0.019,-0.018000000000000002,0.01,-0.164,-0.979,0.088,64.45,-16.19,-65.91,0.35650000000000004,-0.2816,0.6815,0.5735,0.001,-0.002,0.0
2025-11-06 18:34:30.444,124.49,-0.021,-0.023,0.009000000000000001,-0.165,-0.982,0.091,64.45,-16.19,-65.91,0.35650000000000004,-0.28150000000000003,0.6817000000000001,0.5734,0.002,0.0,-0.003
2025-11-06 18:34:30.444,124.495,-0.025,-0.024,0.006,-0.165,-0.983,0.094,64.45,-16.19,-65.91,0.3564,-0.28150000000000003,0.6819000000000001,0.5732,0.001,0.0,-0.005
2025-11-06 18:34:30.444,124.5,-0.028,-0.019,0.007,-0.163,-0.984,0.092,64.89,-16.45,-65.56,0.3564,-0.28150000000000003,0.6819000000000001,0.5732,0.0,0.001,-0.003
2025-11-06 18:34:30.444,124.505,-0.03,-0.014,0.006,-0.164,-0.986,0.089,64.89,-16.45,-65.56,0.3564,-0.28140000000000004,0.6819000000000001,0.5732,0.0,0.004,0.0
2025-11-06 18:34:30.444,124.51,-0.027,-0.006,0.008,-0.163,-0.983,0.08600000000000001,64.22,-15.870000000000001,-66.03,0.3564,-0.28140000000000004,0.6818000000000001,0.5733,0.0,0.0,0.001
2025-11-06 18:34:30.444,124.515,-0.022,-0.001,0.008,-0.163,-0.982,0.08600000000000001,64.22,-15.870000000000001,-66.03,0.35650000000000004,-0.2813,0.6818000000000001,0.5734,0.0,0.0,0.001
2025-11-06 18:34:30.444,124.52,-0.02,-0.002,0.008,-0.164,-0.983,0.084,64.22,-15.870000000000001,-66.03,0.35660000000000003,-0.2812,0.6817000000000001,0.5735,0.0,0.0,0.003
2025-11-06 18:34:30.444,124.525,-0.017,-0.001,0.009000000000000001,-0.165,-0.982,0.08600000000000001,64.63,-15.58,-66.0,0.3567,-0.2811,0.6816,0.5736,0.001,0.0,0.001
2025-11-06 18:34:30.444,124.53,-0.015,-0.006,0.009000000000000001,-0.166,-0.982,0.09,64.63,-15.58,-66.0,0.3567,-0.281,0.6817000000000001,0.5735,0.002,0.0,-0.002
2025-11-06 18:34:30.444,124.535,-0.015,-0.006,0.006,-0.164,-0.983,0.091,64.77,-16.13,-65.74,0.3567,-0.281,0.6818000000000001,0.5734,0.0,0.001,-0.003
2025-11-06 18:34:30.444,124.54,-0.015,-0.006,0.008,-0.166,-0.984,0.089,64.77,-16.13,-65.74,0.3567,-0.28090000000000004,0.6819000000000001,0.5733,0.002,0.001,-0.001
2025-11-06 18:34:30.444,124.545,-0.015,-0.006,0.008,-0.165,-0.983,0.09,64.16,-15.96,-65.74,0.3567,-0.28090000000000004,0.682,0.5732,0.001,0.0,-0.002
2025-11-06 18:34:30.444,124.55,-0.013000000000000001,-0.006,0.008,-0.167,-0.98,0.088,64.16,-15.96,-65.74,0.3568,-0.2808,0.682,0.5732,0.002,-0.001,0.0
2025-11-06 18:34:30.445,124.555,-0.009000000000000001,-0.007,0.005,-0.167,-0.98,0.08700000000000001,64.16,-15.96,-65.74,0.3569,-0.2807,0.682,0.5732,0.002,-0.001,0.0
2025-11-06 18:34:30.445,124.56,-0.011,-0.008,0.005,-0.167,-0.982,0.088,64.16,-15.84,-65.36,0.3569,-0.2806,0.682,0.5732,0.002,0.0,0.0
2025-11-06 18:34:30.445,124.565,-0.01,-0.012,0.004,-0.167,-0.983,0.09,64.16,-15.84,-65.36,0.35700000000000004,-0.2805,0.6821,0.5731,0.002,0.0,-0.002
2025-11-06 18:34:30.445,124.57,-0.011,-0.014,0.004,-0.168,-0.985,0.091,64.36,-16.07,-65.5,0.3569,-0.28040000000000004,0.6822,0.5730000000000001,0.002,0.003,-0.003
2025-11-06 18:34:30.445,124.575,-0.012,-0.017,0.005,-0.167,-0.985,0.095,64.36,-16.07,-65.5,0.3569,-0.28040000000000004,0.6824,0.5728,0.001,0.002,-0.006
2025-11-06 18:34:30.445,124.58,-0.016,-0.014,0.004,-0.167,-0.982,0.096,64.36,-16.07,-66.12,0.3567,-0.28040000000000004,0.6827000000000001,0.5726,0.001,0.0,-0.007
2025-11-06 18:34:30.445,124.585,-0.017,-0.014,0.004,-0.166,-0.982,0.097,64.16,-15.93,-66.12,0.35660000000000003,-0.28040000000000004,0.6829000000000001,0.5724,0.0,0.0,-0.007
2025-11-06 18:34:30.445,124.59,-0.025,-0.012,0.005,-0.168,-0.983,0.091,64.16,-15.93,-66.12,0.35660000000000003,-0.2803,0.6829000000000001,0.5724,0.002,0.001,-0.001
2025-11-06 18:34:30.445,124.595,-0.026000000000000002,-0.001,0.006,-0.167,-0.982,0.08600000000000001,64.48,-16.1,-65.62,0.3568,-0.2802,0.6828000000000001,0.5725,0.001,0.0,0.003
2025-11-06 18:34:30.445,124.6,-0.019,0.01,0.008,-0.168,-0.983,0.08,64.48,-16.1,-65.62,0.35700000000000004,-0.2801,0.6825,0.5728,0.002,0.001,0.008
2025-11-06 18:34:30.445,124.605,-0.016,0.018000000000000002,0.005,-0.171,-0.98,0.076,65.88,-16.34,-66.5,0.3574,-0.2798,0.6822,0.5730000000000001,0.004,-0.001,0.011
2025-11-06 18:34:30.445,124.61,-0.003,0.011,0.005,-0.171,-0.981,0.076,65.88,-16.34,-66.5,0.3578,-0.2796,0.6819000000000001,0.5732,0.004,0.0,0.01
2025-11-06 18:34:30.445,124.615,0.003,0.013000000000000001,0.006,-0.171,-0.979,0.076,65.88,-16.34,-66.5,0.35810000000000003,-0.27940000000000004,0.6817000000000001,0.5734,0.003,-0.002,0.009000000000000001
2025-11-06 18:34:30.445,124.62,0.005,0.008,0.005,-0.17,-0.981,0.078,64.22,-15.93,-66.5,0.3583,-0.2793,0.6815,0.5735,0.002,-0.001,0.006
2025-11-06 18:34:30.445,124.625,0.004,0.006,0.002,-0.17200000000000001,-0.982,0.081,64.22,-15.93,-66.5,0.35850000000000004,-0.2792,0.6815,0.5735,0.004,0.0,0.003
2025-11-06 18:34:30.445,124.63,-0.002,0.009000000000000001,-0.001,-0.171,-0.983,0.082,63.78,-15.84,-66.06,0.3587,-0.2791,0.6814,0.5736,0.003,0.0,0.002
2025-11-06 18:34:30.445,124.635,-0.007,0.012,0.0,-0.171,-0.982,0.081,63.78,-15.84,-66.06,0.3588,-0.279,0.6813,0.5736,0.002,0.0,0.002
2025-11-06 18:34:30.445,124.64,-0.01,0.009000000000000001,-0.001,-0.168,-0.983,0.077,63.870000000000005,-15.96,-66.06,0.3589,-0.27890000000000004,0.6811,0.5738,0.0,0.001,0.006
2025-11-06 18:34:30.445,124.645,-0.01,0.014,-0.001,-0.169,-0.982,0.077,63.870000000000005,-15.96,-66.06,0.35910000000000003,-0.27890000000000004,0.6809000000000001,0.5740000000000001,0.0,0.0,0.005
2025-11-06 18:34:30.448,124.65,-0.01,0.014,-0.002,-0.165,-0.982,0.078,63.870000000000005,-15.96,-66.06,0.35910000000000003,-0.279,0.6807000000000001,0.5742,-0.003,0.0,0.004
2025-11-06 18:34:30.448,124.655,-0.008,0.013000000000000001,-0.001,-0.166,-0.982,0.079,64.07000000000001,-15.6,-66.03,0.3592,-0.279,0.6806,0.5743,-0.001,0.0,0.002
2025-11-06 18:34:30.448,124.66,-0.01,0.017,0.0,-0.164,-0.983,0.078,64.07000000000001,-15.6,-66.03,0.35910000000000003,-0.2791,0.6804,0.5744,-0.003,0.0,0.003
2025-11-06 18:34:30.448,124.665,-0.008,0.018000000000000002,-0.001,-0.166,-0.985,0.08,64.45,-16.16,-65.44,0.3592,-0.2792,0.6803,0.5745,-0.001,0.002,0.001
2025-11-06 18:34:30.448,124.67,-0.008,0.016,0.0,-0.165,-0.984,0.081,64.45,-16.16,-65.44,0.35910000000000003,-0.2793,0.6802,0.5746,-0.002,0.002,0.0
2025-11-06 18:34:30.448,124.675,-0.005,0.013000000000000001,0.0,-0.162,-0.983,0.08700000000000001,64.45,-16.16,-65.44,0.3589,-0.2795,0.6803,0.5745,-0.004,0.001,-0.005
2025-11-06 18:34:30.448,124.68,-0.003,0.013000000000000001,-0.003,-0.158,-0.982,0.092,63.92,-15.75,-66.23,0.35850000000000004,-0.27990000000000004,0.6805,0.5743,-0.007,0.0,-0.009000000000000001
2025-11-06 18:34:30.448,124.685,-0.003,0.013000000000000001,-0.001,-0.154,-0.984,0.094,63.92,-15.75,-66.23,0.35800000000000004,-0.28040000000000004,0.6806,0.5742,-0.011,0.001,-0.011
2025-11-06 18:34:30.448,124.69,-0.009000000000000001,0.02,0.0,-0.152,-0.984,0.092,64.77,-15.870000000000001,-66.5,0.35760000000000003,-0.28090000000000004,0.6807000000000001,0.5742,-0.012,0.001,-0.008
2025-11-06 18:34:30.448,124.695,-0.011,0.028,0.0,-0.15,-0.985,0.083,64.77,-15.870000000000001,-66.5,0.3573,-0.2813,0.6805,0.5744,-0.012,0.002,0.0
2025-11-06 18:34:30.448,124.7,-0.016,0.031,0.001,-0.151,-0.987,0.074,64.1,-16.57,-65.41,0.3572,-0.28150000000000003,0.68,0.5749000000000001,-0.01,0.004,0.009000000000000001
2025-11-06 18:34:30.448,124.705,-0.016,0.031,0.0,-0.152,-0.986,0.07100000000000001,64.1,-16.57,-65.41,0.3572,-0.2816,0.6795,0.5755,-0.008,0.003,0.011
2025-11-06 18:34:30.448,124.71,-0.013000000000000001,0.037,0.001,-0.155,-0.985,0.069,64.1,-16.57,-65.41,0.3573,-0.2817,0.6791,0.5759000000000001,-0.005,0.001,0.011
2025-11-06 18:34:30.448,124.715,-0.01,0.038,0.001,-0.159,-0.984,0.065,64.13,-15.870000000000001,-65.77,0.35750000000000004,-0.28150000000000003,0.6786,0.5764,-0.001,0.001,0.014
2025-11-06 18:34:30.448,124.72,-0.005,0.045,0.001,-0.163,-0.983,0.068,64.13,-15.870000000000001,-65.77,0.3578,-0.2813,0.6783,0.5766,0.002,0.0,0.01
2025-11-06 18:34:30.448,124.725,0.0,0.044,0.001,-0.163,-0.98,0.069,64.65,-16.19,-65.94,0.35810000000000003,-0.2812,0.6781,0.5768,0.001,-0.003,0.008
2025-11-06 18:34:30.448,124.73,0.008,0.048,0.003,-0.164,-0.98,0.076,64.65,-16.19,-65.94,0.3583,-0.2812,0.6781,0.5767,0.002,-0.003,0.0
2025-11-06 18:34:30.448,124.735,0.01,0.043000000000000003,0.003,-0.163,-0.983,0.08700000000000001,64.65,-16.19,-65.94,0.3582,-0.2813,0.6783,0.5764,0.001,0.0,-0.008
2025-11-06 18:34:30.448,124.74,0.005,0.042,0.0,-0.164,-0.986,0.093,64.27,-16.22,-65.71000000000001,0.3582,-0.28150000000000003,0.6787000000000001,0.5759000000000001,0.002,0.002,-0.013000000000000001
2025-11-06 18:34:30.448,124.745,-0.006,0.045,-0.001,-0.163,-0.987,0.095,64.27,-16.22,-65.71000000000001,0.35800000000000004,-0.2817,0.6791,0.5754,0.001,0.004,-0.014
2025-11-06 18:34:30.448,124.75,-0.013000000000000001,0.041,-0.004,-0.161,-0.987,0.096,64.19,-16.34,-66.12,0.3578,-0.28200000000000003,0.6794,0.5750000000000001,0.0,0.003,-0.013000000000000001
2025-11-06 18:34:30.448,124.755,-0.021,0.045,-0.004,-0.158,-0.983,0.094,64.19,-16.34,-66.12,0.35760000000000003,-0.2823,0.6796,0.5748,-0.003,0.0,-0.01
2025-11-06 18:34:30.450,124.76,-0.024,0.053,-0.007,-0.155,-0.984,0.089,66.85,-15.96,-66.23,0.35750000000000004,-0.2826,0.6796,0.5747,-0.006,0.001,-0.006
2025-11-06 18:34:30.450,124.765,-0.024,0.057,-0.005,-0.151,-0.984,0.08600000000000001,66.85,-15.96,-66.23,0.3572,-0.28300000000000003,0.6795,0.5748,-0.009000000000000001,0.001,-0.002
2025-11-06 18:34:30.451,124.77,-0.022,0.057,-0.009000000000000001,-0.145,-0.988,0.08600000000000001,66.85,-15.96,-66.23,0.3569,-0.28350000000000003,0.6793,0.5750000000000001,-0.013000000000000001,0.004,-0.002
2025-11-06 18:34:30.451,124.775,-0.018000000000000002,0.059000000000000004,-0.009000000000000001,-0.146,-0.99,0.088,65.74,-15.98,-66.26,0.35660000000000003,-0.28400000000000003,0.6792,0.5751000000000001,-0.011,0.006,-0.004
2025-11-06 18:34:30.451,124.78,-0.015,0.057,-0.008,-0.145,-0.989,0.088,65.74,-15.98,-66.26,0.3562,-0.28450000000000003,0.6791,0.5752,-0.011,0.005,-0.004
2025-11-06 18:34:30.451,124.785,-0.014,0.051000000000000004,-0.006,-0.14400000000000002,-0.987,0.08700000000000001,64.74,-15.84,-66.41,0.3559,-0.2849,0.679,0.5753,-0.011,0.003,-0.003
2025-11-06 18:34:30.451,124.79,-0.018000000000000002,0.058,-0.002,-0.145,-0.985,0.085,64.74,-15.84,-66.41,0.3557,-0.2853,0.6788000000000001,0.5754,-0.009000000000000001,0.001,-0.001
2025-11-06 18:34:30.451,124.795,-0.015,0.058,-0.001,-0.14400000000000002,-0.985,0.08600000000000001,64.74,-15.84,-66.41,0.35550000000000004,-0.2856,0.6787000000000001,0.5755,-0.009000000000000001,0.001,-0.002
2025-11-06 18:34:30.451,124.8,-0.017,0.057,0.001,-0.145,-0.986,0.088,64.33,-15.6,-65.41,0.3554,-0.28600000000000003,0.6786,0.5755,-0.007,0.002,-0.003
2025-11-06 18:34:30.451,124.805,-0.018000000000000002,0.053,0.001,-0.145,-0.986,0.092,64.33,-15.6,-65.41,0.3552,-0.2863,0.6786,0.5754,-0.006,0.002,-0.007
2025-11-06 18:34:30.451,124.81,-0.025,0.055,0.005,-0.148,-0.986,0.097,64.13,-16.22,-66.09,0.35500000000000004,-0.2867,0.6788000000000001,0.5752,-0.004,0.001,-0.011
2025-11-06 18:34:30.451,124.815,-0.032,0.053,0.011,-0.149,-0.988,0.096,64.13,-16.22,-66.09,0.3549,-0.28700000000000003,0.6789000000000001,0.5749000000000001,-0.002,0.003,-0.01
2025-11-06 18:34:30.451,124.82,-0.038,0.043000000000000003,0.011,-0.147,-0.992,0.092,64.63,-16.16,-65.24,0.3548,-0.2872,0.6789000000000001,0.5749000000000001,-0.003,0.008,-0.005
2025-11-06 18:34:30.451,124.825,-0.048,0.046,0.011,-0.148,-0.993,0.092,64.63,-16.16,-65.24,0.3548,-0.2874,0.6789000000000001,0.5749000000000001,-0.003,0.009000000000000001,-0.004
2025-11-06 18:34:30.451,124.83,-0.049,0.052000000000000005,0.011,-0.15,-0.991,0.08600000000000001,64.63,-16.16,-65.24,0.3548,-0.28750000000000003,0.6787000000000001,0.5750000000000001,-0.001,0.006,0.0
2025-11-06 18:34:30.451,124.835,-0.047,0.064,0.013000000000000001,-0.151,-0.991,0.079,64.25,-15.370000000000001,-65.71000000000001,0.3551,-0.2874,0.6784,0.5752,0.0,0.006,0.007
2025-11-06 18:34:30.451,124.84,-0.046,0.061,0.012,-0.153,-0.986,0.07200000000000001,64.25,-15.370000000000001,-65.71000000000001,0.3554,-0.2871,0.678,0.5756,0.002,0.001,0.011
2025-11-06 18:34:30.451,124.845,-0.042,0.066,0.014,-0.154,-0.987,0.076,64.39,-15.96,-66.41,0.3558,-0.28700000000000003,0.6777000000000001,0.5758,0.002,0.002,0.007
2025-11-06 18:34:30.451,124.85,-0.034,0.058,0.017,-0.154,-0.988,0.079,64.39,-15.96,-66.41,0.35600000000000004,-0.2869,0.6775,0.5759000000000001,0.002,0.003,0.003
2025-11-06 18:34:30.451,124.855,-0.032,0.048,0.019,-0.154,-0.983,0.089,64.39,-15.96,-66.41,0.3561,-0.2869,0.6777000000000001,0.5757,0.002,-0.001,-0.006
2025-11-06 18:34:30.451,124.86,-0.035,0.039,0.017,-0.157,-0.978,0.094,64.39,-15.870000000000001,-66.26,0.3563,-0.28700000000000003,0.678,0.5752,0.005,-0.006,-0.01
2025-11-06 18:34:30.451,124.865,-0.039,0.033,0.017,-0.159,-0.977,0.096,64.39,-15.870000000000001,-66.26,0.3564,-0.28700000000000003,0.6783,0.5747,0.005,-0.006,-0.012
2025-11-06 18:34:30.451,124.87,-0.045,0.034,0.017,-0.157,-0.98,0.094,64.36,-16.39,-66.96000000000001,0.35650000000000004,-0.28700000000000003,0.6785,0.5744,0.003,-0.004,-0.008
2025-11-06 18:34:30.451,124.875,-0.053,0.039,0.015,-0.153,-0.983,0.091,64.36,-16.39,-66.96000000000001,0.35660000000000003,-0.28700000000000003,0.6786,0.5743,0.0,-0.001,-0.005
2025-11-06 18:34:30.451,124.88,-0.054,0.041,0.016,-0.151,-0.985,0.08600000000000001,64.86,-16.13,-67.02,0.35660000000000003,-0.2871,0.6785,0.5744,-0.002,0.0,0.0
2025-11-06 18:34:30.451,124.885,-0.052000000000000005,0.04,0.017,-0.148,-0.988,0.084,64.86,-16.13,-67.02,0.35660000000000003,-0.2872,0.6783,0.5746,-0.004,0.003,0.001
2025-11-06 18:34:30.451,124.89,-0.053,0.042,0.014,-0.145,-0.99,0.082,64.86,-16.13,-67.02,0.35650000000000004,-0.2874,0.678,0.5749000000000001,-0.007,0.005,0.001
2025-11-06 18:34:30.451,124.895,-0.05,0.042,0.014,-0.146,-0.99,0.082,65.47,-16.04,-66.96000000000001,0.3564,-0.28750000000000003,0.6778000000000001,0.5751000000000001,-0.005,0.005,0.001
2025-11-06 18:34:30.451,124.9,-0.046,0.04,0.016,-0.14100000000000001,-0.992,0.084,65.47,-16.04,-66.96000000000001,0.3562,-0.2878,0.6776,0.5754,-0.01,0.007,0.0
2025-11-06 18:34:30.451,124.905,-0.045,0.046,0.017,-0.145,-0.992,0.084,64.42,-15.63,-66.5,0.3561,-0.28800000000000003,0.6774,0.5755,-0.005,0.007,0.0
2025-11-06 18:34:30.451,124.91,-0.045,0.057,0.017,-0.148,-0.989,0.083,64.42,-15.63,-66.5,0.3562,-0.28800000000000003,0.6772,0.5756,-0.002,0.004,0.0
2025-11-06 18:34:30.451,124.915,-0.04,0.065,0.018000000000000002,-0.146,-0.993,0.081,64.42,-15.63,-66.5,0.3562,-0.2882,0.677,0.5758,-0.004,0.007,0.001
2025-11-06 18:34:30.451,124.92,-0.041,0.069,0.02,-0.147,-0.992,0.083,64.74,-15.93,-66.85,0.3563,-0.2883,0.6769000000000001,0.5759000000000001,-0.002,0.007,0.0
2025-11-06 18:34:30.451,124.925,-0.042,0.079,0.019,-0.149,-0.993,0.083,64.74,-15.93,-66.85,0.3564,-0.2884,0.6767000000000001,0.5759000000000001,-0.001,0.008,-0.001
2025-11-06 18:34:30.451,124.93,-0.049,0.088,0.025,-0.15,-0.995,0.085,64.92,-15.9,-66.47,0.35660000000000003,-0.28850000000000003,0.6766,0.5758,0.0,0.01,-0.003
2025-11-06 18:34:30.451,124.935,-0.058,0.099,0.022,-0.153,-0.996,0.08600000000000001,64.92,-15.9,-66.47,0.3568,-0.2886,0.6766,0.5757,0.003,0.011,-0.004
2025-11-06 18:34:30.451,124.94,-0.065,0.111,0.023,-0.156,-0.991,0.08700000000000001,64.22,-15.870000000000001,-66.67,0.35710000000000003,-0.2886,0.6766,0.5755,0.005,0.006,-0.005
2025-11-06 18:34:30.451,124.945,-0.076,0.11800000000000001,0.025,-0.155,-0.992,0.088,64.22,-15.870000000000001,-66.67,0.3574,-0.2887,0.6766,0.5753,0.004,0.007,-0.005
2025-11-06 18:34:30.451,124.95,-0.08600000000000001,0.128,0.025,-0.155,-0.991,0.085,64.22,-15.870000000000001,-66.67,0.3578,-0.2887,0.6765,0.5752,0.003,0.006,-0.003
2025-11-06 18:34:30.451,124.955,-0.098,0.135,0.028,-0.157,-0.993,0.082,64.3,-16.07,-66.73,0.3582,-0.2887,0.6763,0.5752,0.004,0.008,0.0
2025-11-06 18:34:30.451,124.96,-0.10400000000000001,0.14400000000000002,0.029,-0.16,-0.994,0.08600000000000001,64.3,-16.07,-66.73,0.3587,-0.2887,0.6762,0.5750000000000001,0.007,0.009000000000000001,-0.005
2025-11-06 18:34:30.451,124.965,-0.113,0.153,0.032,-0.159,-0.994,0.08700000000000001,64.65,-15.93,-66.58,0.3592,-0.2887,0.6761,0.5748,0.006,0.009000000000000001,-0.005
2025-11-06 18:34:30.451,124.97,-0.117,0.164,0.033,-0.161,-0.993,0.088,64.65,-15.93,-66.58,0.35960000000000003,-0.2887,0.6761,0.5745,0.007,0.009000000000000001,-0.007
2025-11-06 18:34:30.451,124.975,-0.124,0.17,0.03,-0.161,-0.996,0.091,64.89,-16.45,-66.64,0.36000000000000004,-0.2888,0.6761,0.5742,0.006,0.011,-0.01
2025-11-06 18:34:30.451,124.98,-0.138,0.17400000000000002,0.028,-0.159,-1.0,0.09,64.89,-16.45,-66.64,0.3604,-0.28900000000000003,0.676,0.5740000000000001,0.004,0.015,-0.009000000000000001
2025-11-06 18:34:30.451,124.985,-0.152,0.178,0.031,-0.158,-0.998,0.093,64.89,-16.45,-66.64,0.3607,-0.2892,0.6759000000000001,0.5738,0.002,0.014,-0.012
2025-11-06 18:34:30.451,124.99,-0.165,0.187,0.033,-0.152,-1.0050000000000001,0.095,64.33,-16.04,-66.38,0.3607,-0.28950000000000004,0.6758000000000001,0.5737,-0.003,0.021,-0.014
2025-11-06 18:34:30.451,124.995,-0.181,0.203,0.034,-0.15,-1.014,0.093,64.33,-16.04,-66.38,0.3608,-0.29000000000000004,0.6756,0.5737,-0.004,0.03,-0.012
2025-11-06 18:34:30.451,125.0,-0.201,0.211,0.037,-0.147,-1.022,0.08700000000000001,65.79,-15.98,-66.47,0.3609,-0.2904,0.6751,0.5740000000000001,-0.007,0.037,-0.006
2025-11-06 18:34:30.451,125.005,-0.214,0.218,0.041,-0.14100000000000001,-1.031,0.081,65.79,-15.98,-66.47,0.3609,-0.2908,0.6744,0.5746,-0.011,0.046,-0.001
2025-11-06 18:34:30.451,125.01,-0.218,0.228,0.053,-0.157,-1.0090000000000001,0.07,65.79,-15.98,-66.47,0.3617,-0.2907,0.6737000000000001,0.5750000000000001,0.004,0.024,0.007
2025-11-06 18:34:30.451,125.015,-0.212,0.233,0.066,-0.161,-0.997,0.066,65.59,-16.36,-66.2,0.3627,-0.2904,0.673,0.5753,0.007,0.011,0.008
2025-11-06 18:34:30.451,125.02,-0.218,0.23800000000000002,0.07200000000000001,-0.163,-0.994,0.059000000000000004,65.59,-16.36,-66.2,0.3638,-0.29000000000000004,0.6722,0.5757,0.008,0.009000000000000001,0.013000000000000001
2025-11-06 18:34:30.451,125.025,-0.222,0.243,0.081,-0.181,-0.971,0.056,64.63,-16.66,-66.53,0.3655,-0.2891,0.6717000000000001,0.5757,0.024,-0.013000000000000001,0.013000000000000001
2025-11-06 18:34:30.451,125.03,-0.211,0.261,0.08700000000000001,-0.197,-0.9420000000000001,0.058,64.63,-16.66,-66.53,0.36760000000000004,-0.2879,0.6715,0.5752,0.035,-0.041,0.009000000000000001
2025-11-06 18:34:30.451,125.035,-0.218,0.277,0.07200000000000001,-0.169,-0.974,0.066,64.16,-16.42,-66.5,0.3685,-0.2878,0.6711,0.5751000000000001,0.006,-0.01,0.0
2025-11-06 18:34:30.451,125.04,-0.253,0.28800000000000003,0.061,-0.166,-0.997,0.067,64.16,-16.42,-66.5,0.3693,-0.2878,0.6706000000000001,0.5753,0.002,0.012,-0.001
2025-11-06 18:34:30.451,125.045,-0.28500000000000003,0.304,0.053,-0.158,-1.0170000000000001,0.065,64.16,-16.42,-66.5,0.3698,-0.2882,0.6698000000000001,0.5757,-0.005,0.033,-0.001
2025-11-06 18:34:30.451,125.05,-0.296,0.312,0.048,-0.151,-1.022,0.063,65.47,-16.54,-66.7,0.37010000000000004,-0.2888,0.6689,0.5762,-0.01,0.037,-0.001
2025-11-06 18:34:30.451,125.055,-0.291,0.328,0.056,-0.161,-1.0190000000000001,0.061,65.47,-16.54,-66.7,0.3708,-0.28900000000000003,0.6681,0.5766,-0.001,0.034,-0.001
2025-11-06 18:34:30.451,125.06,-0.28700000000000003,0.329,0.058,-0.15,-1.03,0.06,64.01,-16.13,-67.23,0.37110000000000004,-0.2896,0.6672,0.5771000000000001,-0.011,0.044,-0.001
2025-11-06 18:34:30.451,125.065,-0.275,0.32,0.058,-0.153,-1.04,0.065,64.01,-16.13,-67.23,0.3714,-0.2902,0.6665,0.5774,-0.006,0.055,-0.007
2025-11-06 18:34:30.451,125.07,-0.274,0.301,0.063,-0.161,-1.038,0.068,64.01,-16.13,-67.23,0.3719,-0.2906,0.666,0.5774,0.001,0.052000000000000005,-0.012
2025-11-06 18:34:30.451,125.075,-0.281,0.301,0.077,-0.17400000000000002,-1.0150000000000001,0.062,64.22,-16.16,-67.34,0.3729,-0.29050000000000004,0.6656000000000001,0.5773,0.013000000000000001,0.03,-0.006
2025-11-06 18:34:30.451,125.08,-0.298,0.309,0.1,-0.197,-0.985,0.055,64.22,-16.16,-67.34,0.37470000000000003,-0.2896,0.6654,0.5768,0.033,0.0,-0.001
2025-11-06 18:34:30.451,125.085,-0.321,0.307,0.109,-0.201,-0.973,0.056,65.06,-16.01,-67.08,0.3766,-0.2886,0.6653,0.5762,0.033,-0.011,-0.004
2025-11-06 18:34:30.451,125.09,-0.336,0.312,0.114,-0.211,-0.968,0.06,65.06,-16.01,-67.08,0.3786,-0.28750000000000003,0.6654,0.5754,0.039,-0.015,-0.009000000000000001
2025-11-06 18:34:30.451,125.095,-0.343,0.335,0.116,-0.20600000000000002,-0.9510000000000001,0.063,65.68,-16.25,-66.99,0.3803,-0.2866,0.6656000000000001,0.5745,0.03,-0.031,-0.013000000000000001
2025-11-06 18:34:30.451,125.1,-0.342,0.384,0.108,-0.181,-0.962,0.06,65.68,-16.25,-66.99,0.38130000000000003,-0.28650000000000003,0.6652,0.5743,0.002,-0.019,-0.01
2025-11-06 18:34:30.451,125.105,-0.343,0.431,0.096,-0.163,-0.976,0.056,65.68,-16.25,-66.99,0.38170000000000004,-0.28700000000000003,0.6645,0.5745,-0.014,-0.006,-0.007
2025-11-06 18:34:30.451,125.11,-0.336,0.468,0.092,-0.155,-0.996,0.047,63.980000000000004,-16.48,-66.79,0.38220000000000004,-0.2878,0.6634,0.5751000000000001,-0.021,0.013000000000000001,0.0
2025-11-06 18:34:30.451,125.115,-0.339,0.483,0.085,-0.133,-1.008,0.035,63.980000000000004,-16.48,-66.79,0.38220000000000004,-0.28900000000000003,0.6618,0.5764,-0.039,0.024,0.008
2025-11-06 18:34:30.451,125.12,-0.317,0.47800000000000004,0.091,-0.14300000000000002,-0.987,0.034,64.83,-15.780000000000001,-66.91,0.3826,-0.2899,0.6604,0.5772,-0.027,0.002,0.006
2025-11-06 18:34:30.451,125.125,-0.298,0.486,0.106,-0.16,-0.9410000000000001,0.029,64.83,-15.780000000000001,-66.91,0.3839,-0.2901,0.6594,0.5775,-0.009000000000000001,-0.043000000000000003,0.008
2025-11-06 18:34:30.451,125.13,-0.298,0.491,0.113,-0.164,-0.926,0.023,64.83,-15.780000000000001,-66.91,0.3854,-0.2901,0.6583,0.5778,-0.007,-0.058,0.012
2025-11-06 18:34:30.451,125.135,-0.306,0.483,0.111,-0.161,-0.922,0.023,63.78,-15.81,-67.34,0.38670000000000004,-0.2902,0.6572,0.5781000000000001,-0.01,-0.061,0.01
2025-11-06 18:34:30.451,125.14,-0.3,0.466,0.101,-0.168,-0.924,0.032,63.78,-15.81,-67.34,0.3879,-0.2903,0.6565000000000001,0.5779000000000001,-0.005,-0.059000000000000004,-0.001
2025-11-06 18:34:30.451,125.145,-0.297,0.459,0.077,-0.154,-0.935,0.045,64.83,-15.870000000000001,-66.5,0.3884,-0.2911,0.6561,0.5777,-0.018000000000000002,-0.048,-0.014
2025-11-06 18:34:30.451,125.15,-0.319,0.461,0.049,-0.135,-0.967,0.054,64.83,-15.870000000000001,-66.5,0.388,-0.2926,0.6555000000000001,0.5778,-0.036000000000000004,-0.016,-0.023
2025-11-06 18:34:30.451,125.155,-0.343,0.462,0.036000000000000004,-0.113,-0.994,0.053,64.51,-15.84,-66.35,0.387,-0.2947,0.6546000000000001,0.5785,-0.053,0.008,-0.022
2025-11-06 18:34:30.451,125.16,-0.34600000000000003,0.457,0.034,-0.109,-1.004,0.044,64.51,-15.84,-66.35,0.38620000000000004,-0.29650000000000004,0.6535000000000001,0.5794,-0.052000000000000005,0.017,-0.014
2025-11-06 18:34:30.451,125.165,-0.34500000000000003,0.444,0.035,-0.092,-1.018,0.033,64.51,-15.84,-66.35,0.385,-0.2984,0.652,0.5809000000000001,-0.064,0.031,-0.004
2025-11-06 18:34:30.451,125.17,-0.32,0.386,0.045,-0.098,-1.008,0.035,64.86,-15.52,-66.88,0.3841,-0.30010000000000003,0.6507000000000001,0.5820000000000001,-0.052000000000000005,0.02,-0.007
2025-11-06 18:34:30.451,125.175,-0.307,0.332,0.058,-0.107,-0.987,0.039,64.86,-15.52,-66.88,0.3836,-0.3015,0.6499,0.5826,-0.04,-0.001,-0.012
2025-11-06 18:34:30.451,125.18,-0.314,0.303,0.064,-0.11,-0.969,0.041,64.19,-15.780000000000001,-66.93,0.38330000000000003,-0.3028,0.6491,0.5830000000000001,-0.034,-0.019,-0.014
2025-11-06 18:34:30.451,125.185,-0.34900000000000003,0.296,0.066,-0.11,-0.9570000000000001,0.034,64.19,-15.780000000000001,-66.93,0.38320000000000004,-0.3038,0.6483,0.5835,-0.031,-0.031,-0.009000000000000001
2025-11-06 18:34:30.451,125.19,-0.41300000000000003,0.313,0.056,-0.094,-0.969,0.011,64.19,-15.780000000000001,-66.93,0.3826,-0.3043,0.6468,0.5853,-0.044,-0.02,0.011
2025-11-06 18:34:30.454,125.195,-0.451,0.337,0.038,-0.1,-0.981,-0.009000000000000001,64.01,-15.34,-67.26,0.38230000000000003,-0.30410000000000004,0.6449,0.5876,-0.036000000000000004,-0.009000000000000001,0.027
2025-11-06 18:34:30.454,125.2,-0.457,0.354,0.019,-0.101,-0.973,-0.022,64.01,-15.34,-67.26,0.38220000000000004,-0.30360000000000004,0.6429,0.5902000000000001,-0.032,-0.017,0.034
2025-11-06 18:34:30.454,125.205,-0.45,0.366,0.001,-0.121,-0.97,-0.014,63.75,-15.870000000000001,-67.4,0.38280000000000003,-0.30310000000000004,0.6414000000000001,0.5917,-0.011,-0.02,0.021
2025-11-06 18:34:30.454,125.21,-0.446,0.382,-0.016,-0.124,-0.969,0.002,63.75,-15.870000000000001,-67.4,0.3836,-0.3033,0.6402,0.5923,-0.007,-0.021,0.002
2025-11-06 18:34:30.454,125.215,-0.434,0.39,-0.039,-0.122,-0.989,0.004,64.16,-15.6,-67.31,0.38420000000000004,-0.3038,0.6391,0.5928,-0.009000000000000001,-0.001,-0.002
2025-11-06 18:34:30.454,125.22,-0.424,0.368,-0.046,-0.124,-1.0050000000000001,-0.011,64.16,-15.6,-67.31,0.38480000000000003,-0.3039,0.6378,0.5938,-0.005,0.013000000000000001,0.01
2025-11-06 18:34:30.454,125.225,-0.397,0.34,-0.045,-0.136,-1.004,-0.027,64.16,-15.6,-67.31,0.38570000000000004,-0.30310000000000004,0.6365000000000001,0.5951000000000001,0.006,0.013000000000000001,0.022
2025-11-06 18:34:30.454,125.23,-0.358,0.305,-0.035,-0.167,-0.979,-0.04,64.45,-15.370000000000001,-67.61,0.38730000000000003,-0.30110000000000003,0.6355000000000001,0.5961000000000001,0.034,-0.011,0.031
2025-11-06 18:34:30.454,125.235,-0.294,0.279,-0.023,-0.19,-0.976,-0.051000000000000004,64.45,-15.370000000000001,-67.61,0.38930000000000003,-0.2982,0.6348,0.5969,0.053,-0.014,0.037
2025-11-06 18:34:30.454,125.24,-0.22,0.232,-0.004,-0.214,-0.9460000000000001,-0.048,63.84,-15.17,-67.61,0.39180000000000004,-0.2947,0.6348,0.597,0.07100000000000001,-0.042,0.029
2025-11-06 18:34:30.454,125.245,-0.156,0.192,0.002,-0.23700000000000002,-0.972,-0.035,63.84,-15.17,-67.61,0.3941,-0.2913,0.6355000000000001,0.5964,0.085,-0.015,0.013000000000000001
2025-11-06 18:34:30.454,125.25,-0.127,0.154,0.012,-0.246,-0.967,-0.034,63.84,-15.17,-67.61,0.39640000000000003,-0.2879,0.6364000000000001,0.5956,0.08600000000000001,-0.019,0.01
2025-11-06 18:34:30.454,125.255,-0.11,0.133,0.019,-0.265,-0.98,-0.022,64.65,-15.02,-67.87,0.3985,-0.2843,0.6378,0.5944,0.097,-0.004,-0.001
2025-11-06 18:34:30.454,125.26,-0.10200000000000001,0.116,0.029,-0.275,-0.972,-0.015,64.65,-15.02,-67.87,0.4006,-0.2807,0.6395000000000001,0.5929,0.098,-0.011,-0.008
2025-11-06 18:34:30.454,125.265,-0.095,0.111,0.041,-0.294,-0.9460000000000001,-0.016,63.980000000000004,-15.72,-68.1,0.403,-0.2767,0.6414000000000001,0.5912000000000001,0.107,-0.035,-0.007
2025-11-06 18:34:30.454,125.27,-0.088,0.127,0.048,-0.299,-0.9450000000000001,-0.027,63.980000000000004,-15.72,-68.1,0.40590000000000004,-0.27290000000000003,0.6427,0.5896,0.10200000000000001,-0.034,0.002
2025-11-06 18:34:30.454,125.275,-0.081,0.131,0.056,-0.298,-0.9420000000000001,-0.041,64.27,-15.49,-67.67,0.4091,-0.2697,0.6432,0.5882000000000001,0.091,-0.035,0.015
2025-11-06 18:34:30.454,125.28,-0.066,0.116,0.067,-0.293,-0.9520000000000001,-0.059000000000000004,64.27,-15.49,-67.67,0.4127,-0.2674,0.6429,0.5870000000000001,0.078,-0.023,0.029
2025-11-06 18:34:30.454,125.285,-0.047,0.094,0.079,-0.279,-0.977,-0.062,64.27,-15.49,-67.67,0.4156,-0.266,0.6423,0.5863,0.058,0.003,0.029
2025-11-06 18:34:30.454,125.29,-0.032,0.067,0.091,-0.27,-0.99,-0.062,64.04,-15.46,-67.72,0.41800000000000004,-0.265,0.6417,0.5857,0.045,0.017,0.027
2025-11-06 18:34:30.454,125.295,-0.012,0.04,0.10400000000000001,-0.267,-0.978,-0.057,64.04,-15.46,-67.72,0.4199,-0.2639,0.6413,0.5852,0.038,0.005,0.02
2025-11-06 18:34:30.454,125.3,0.008,0.021,0.116,-0.259,-0.985,-0.052000000000000005,64.1,-15.46,-67.58,0.4212,-0.2631,0.6412,0.5848,0.028,0.013000000000000001,0.013000000000000001
2025-11-06 18:34:30.454,125.305,0.035,0.015,0.125,-0.259,-0.971,-0.044,64.1,-15.46,-67.58,0.42200000000000004,-0.2621,0.6415000000000001,0.5843,0.024,0.0,0.005
2025-11-06 18:34:30.454,125.31,0.033,0.032,0.129,-0.251,-0.976,-0.051000000000000004,64.45,-15.75,-67.46000000000001,0.42310000000000003,-0.2617,0.6413,0.5840000000000001,0.015,0.005,0.011
2025-11-06 18:34:30.454,125.315,0.022,0.045,0.136,-0.23700000000000002,-0.977,-0.056,64.45,-15.75,-67.46000000000001,0.42410000000000003,-0.2621,0.6406000000000001,0.5838,0.0,0.006,0.015
2025-11-06 18:34:30.454,125.32,0.018000000000000002,0.055,0.14100000000000001,-0.23500000000000001,-0.978,-0.057,64.45,-15.75,-67.46000000000001,0.42510000000000003,-0.2624,0.64,0.5836,-0.001,0.008,0.014
2025-11-06 18:34:30.454,125.325,0.015,0.079,0.147,-0.228,-0.973,-0.068,64.25,-16.01,-67.69,0.42660000000000003,-0.26330000000000003,0.6387,0.5836,-0.008,0.003,0.023
2025-11-06 18:34:30.454,125.33,0.027,0.13,0.14200000000000002,-0.222,-0.973,-0.081,64.25,-16.01,-67.69,0.4284,-0.2646,0.6369,0.5836,-0.014,0.003,0.033
2025-11-06 18:34:30.454,125.335,0.037,0.161,0.138,-0.21,-0.964,-0.092,63.84,-15.25,-67.49,0.43060000000000004,-0.2665,0.6345000000000001,0.5837,-0.024,-0.006,0.041
2025-11-06 18:34:30.454,125.34,0.039,0.184,0.135,-0.20800000000000002,-0.967,-0.10200000000000001,63.84,-15.25,-67.49,0.4329,-0.2685,0.6319,0.5839,-0.025,-0.002,0.046
2025-11-06 18:34:30.454,125.345,0.037,0.20400000000000001,0.129,-0.199,-0.968,-0.10300000000000001,63.84,-15.25,-67.49,0.435,-0.2707,0.6293000000000001,0.5842,-0.032,-0.002,0.043000000000000003
2025-11-06 18:34:30.454,125.35,0.021,0.225,0.113,-0.184,-0.976,-0.10400000000000001,64.25,-15.66,-67.34,0.4368,-0.2735,0.6265000000000001,0.5845,-0.044,0.005,0.04
2025-11-06 18:34:30.454,125.355,0.008,0.233,0.099,-0.165,-0.966,-0.101,64.25,-15.66,-67.34,0.4383,-0.27690000000000003,0.6236,0.5849,-0.058,-0.006,0.033
2025-11-06 18:34:30.454,125.36,-0.003,0.246,0.082,-0.14200000000000002,-0.981,-0.1,64.74,-16.13,-67.61,0.4395,-0.2813,0.6204000000000001,0.5853,-0.075,0.008,0.029
2025-11-06 18:34:30.454,125.365,-0.024,0.257,0.069,-0.127,-0.981,-0.108,64.74,-16.13,-67.61,0.44070000000000004,-0.2859,0.6168,0.5860000000000001,-0.082,0.006,0.034
2025-11-06 18:34:30.454,125.37,-0.049,0.267,0.064,-0.122,-0.963,-0.113,63.78,-16.13,-67.05,0.4418,-0.29000000000000004,0.6133000000000001,0.5869,-0.08,-0.012,0.034
2025-11-06 18:34:30.454,125.375,-0.064,0.271,0.056,-0.114,-0.964,-0.114,63.78,-16.13,-67.05,0.4428,-0.29410000000000003,0.6097,0.5877,-0.082,-0.012,0.031
2025-11-06 18:34:30.454,125.38,-0.073,0.257,0.05,-0.106,-0.969,-0.11,63.78,-16.13,-67.05,0.4436,-0.2983,0.6064,0.5884,-0.082,-0.009000000000000001,0.024
2025-11-06 18:34:30.454,125.385,-0.078,0.252,0.042,-0.101,-0.963,-0.098,63.75,-15.93,-68.54,0.4441,-0.30260000000000004,0.6036,0.5888,-0.08,-0.015,0.01
2025-11-06 18:34:30.455,125.39,-0.085,0.246,0.033,-0.10400000000000001,-0.97,-0.08700000000000001,63.75,-15.93,-68.54,0.4446,-0.30670000000000003,0.6012000000000001,0.5887,-0.07,-0.01,0.0
2025-11-06 18:34:30.455,125.395,-0.108,0.244,0.017,-0.124,-0.97,-0.08,64.22,-15.9,-67.43,0.445,-0.30960000000000004,0.5997,0.5885,-0.046,-0.011,-0.008
2025-11-06 18:34:30.455,125.4,-0.126,0.234,0.004,-0.127,-0.966,-0.08,64.22,-15.9,-67.43,0.44530000000000003,-0.312,0.5984,0.5883,-0.038,-0.015,-0.008
2025-11-06 18:34:30.455,125.405,-0.14300000000000002,0.223,-0.004,-0.136,-0.973,-0.079,64.22,-15.9,-67.43,0.44570000000000004,-0.3139,0.5974,0.5880000000000001,-0.027,-0.008,-0.009000000000000001
2025-11-06 18:34:30.455,125.41,-0.151,0.20500000000000002,-0.012,-0.132,-0.985,-0.08,63.95,-16.1,-67.26,0.4459,-0.3158,0.5964,0.5879,-0.027,0.002,-0.008
2025-11-06 18:34:30.455,125.415,-0.152,0.189,-0.019,-0.158,-0.977,-0.092,63.95,-16.1,-67.26,0.44630000000000003,-0.3158,0.5958,0.5881000000000001,-0.002,-0.005,0.002
2025-11-06 18:34:30.455,125.42,-0.154,0.178,-0.021,-0.16,-0.99,-0.10200000000000001,64.19,-16.13,-67.55,0.4466,-0.3156,0.5952000000000001,0.5886,0.0,0.007,0.01
2025-11-06 18:34:30.455,125.425,-0.152,0.162,-0.018000000000000002,-0.2,-0.988,-0.089,64.19,-16.13,-67.55,0.44720000000000004,-0.3141,0.5957,0.5884,0.037,0.006,-0.002
2025-11-06 18:34:30.455,125.43,-0.152,0.162,-0.022,-0.20600000000000002,-0.988,-0.075,64.6,-16.19,-68.1,0.44780000000000003,-0.313,0.5966,0.5876,0.041,0.006,-0.016
2025-11-06 18:34:30.455,125.435,-0.152,0.159,-0.021,-0.227,-0.986,-0.062,64.6,-16.19,-68.1,0.4486,-0.3114,0.5982000000000001,0.5863,0.057,0.005,-0.027
2025-11-06 18:34:30.455,125.44,-0.157,0.164,-0.02,-0.215,-0.992,-0.048,64.6,-16.19,-68.1,0.4491,-0.311,0.5996,0.5847,0.041,0.011,-0.039
2025-11-06 18:34:30.455,125.445,-0.157,0.162,-0.005,-0.234,-1.0010000000000001,-0.044,64.22,-16.13,-67.84,0.44970000000000004,-0.31,0.6013000000000001,0.5830000000000001,0.056,0.021,-0.041
2025-11-06 18:34:30.455,125.45,-0.156,0.17,0.003,-0.229,-1.0,-0.042,64.22,-16.13,-67.84,0.45030000000000003,-0.3094,0.6028,0.5813,0.046,0.02,-0.039
2025-11-06 18:34:30.455,125.455,-0.154,0.179,0.015,-0.23800000000000002,-0.998,-0.043000000000000003,65.33,-16.72,-68.4,0.451,-0.30860000000000004,0.6043000000000001,0.5796,0.052000000000000005,0.019,-0.036000000000000004
2025-11-06 18:34:30.455,125.46,-0.156,0.186,0.03,-0.247,-0.999,-0.037,65.33,-16.72,-68.4,0.45180000000000003,-0.30760000000000004,0.606,0.5778,0.056,0.02,-0.039
2025-11-06 18:34:30.455,125.465,-0.152,0.20600000000000002,0.042,-0.243,-1.006,-0.033,65.33,-16.72,-68.4,0.4524,-0.307,0.6075,0.5761000000000001,0.048,0.028,-0.04
2025-11-06 18:34:30.455,125.47,-0.154,0.219,0.051000000000000004,-0.253,-1.0010000000000001,-0.025,64.65,-16.39,-67.84,0.453,-0.3062,0.6092000000000001,0.5742,0.054,0.024,-0.045
2025-11-06 18:34:30.455,125.475,-0.162,0.231,0.066,-0.123,-1.0210000000000001,-0.037,64.65,-16.39,-67.84,0.45020000000000004,-0.30820000000000003,0.609,0.5756,-0.073,0.043000000000000003,-0.03
2025-11-06 18:34:30.455,125.48,-0.176,0.177,0.096,-0.275,-0.995,-0.057,64.57000000000001,-16.1,-67.14,0.4526,-0.30660000000000004,0.6098,0.5736,0.076,0.017,-0.01
2025-11-06 18:34:30.455,125.485,-0.183,0.18,0.114,-0.268,-0.972,-0.057,64.57000000000001,-16.1,-67.14,0.45480000000000004,-0.30510000000000004,0.6106,0.5719000000000001,0.062,-0.003,-0.01
2025-11-06 18:34:30.455,125.49,-0.17400000000000002,0.185,0.11900000000000001,-0.247,-0.975,-0.035,65.62,-16.39,-67.64,0.4556,-0.3043,0.6117,0.5704,0.037,0.0,-0.031
2025-11-06 18:34:30.455,125.495,-0.161,0.189,0.123,-0.28500000000000003,-0.9570000000000001,-0.055,65.62,-16.39,-67.64,0.45830000000000004,-0.3027,0.6125,0.5683,0.07,-0.017,-0.011
2025-11-06 18:34:30.455,125.5,-0.159,0.193,0.116,-0.261,-0.972,-0.046,65.62,-16.39,-67.64,0.4595,-0.3018,0.6134000000000001,0.5669000000000001,0.041,0.0,-0.019
2025-11-06 18:34:30.455,125.505,-0.168,0.225,0.097,-0.265,-0.97,-0.022,64.86,-16.63,-67.29,0.45990000000000003,-0.3008,0.6149,0.5654,0.04,-0.001,-0.04
2025-11-06 18:34:30.455,125.51,-0.17300000000000001,0.259,0.093,-0.253,-0.963,-0.042,64.86,-16.63,-67.29,0.46090000000000003,-0.3002,0.6154000000000001,0.5643,0.027,-0.008,-0.019
2025-11-06 18:34:30.455,125.515,-0.179,0.268,0.081,-0.273,-0.971,-0.038,64.33,-15.66,-67.37,0.4621,-0.2994,0.6162000000000001,0.5629000000000001,0.041,0.0,-0.022
2025-11-06 18:34:30.455,125.52,-0.182,0.255,0.076,-0.253,-0.976,-0.024,64.33,-15.66,-67.37,0.462,-0.2989,0.6173000000000001,0.5621,0.019,0.006,-0.034
2025-11-06 18:34:30.455,125.525,-0.181,0.218,0.07200000000000001,-0.252,-0.968,-0.009000000000000001,64.33,-15.66,-67.37,0.4612,-0.2983,0.6189,0.5612,0.016,-0.001,-0.047
2025-11-06 18:34:30.455,125.53,-0.181,0.224,0.068,-0.276,-0.931,0.005,65.27,-15.31,-67.9,0.46140000000000003,-0.2973,0.6211,0.5592,0.037,-0.037,-0.057
2025-11-06 18:34:30.455,125.535,-0.185,0.262,0.056,-0.28800000000000003,-0.926,-0.001,65.27,-15.31,-67.9,0.46240000000000003,-0.2964,0.6228,0.557,0.043000000000000003,-0.042,-0.047
2025-11-06 18:34:30.455,125.54,-0.192,0.302,0.041,-0.281,-0.917,-0.015,64.22,-15.870000000000001,-67.75,0.4637,-0.2958,0.6237,0.5552,0.032,-0.05,-0.031
2025-11-06 18:34:30.455,125.545,-0.193,0.331,0.024,-0.278,-0.923,-0.026000000000000002,64.22,-15.870000000000001,-67.75,0.4652,-0.29550000000000004,0.6241,0.5538000000000001,0.025,-0.042,-0.02
2025-11-06 18:34:30.455,125.55,-0.187,0.352,0.0,-0.257,-0.9450000000000001,-0.019,65.33,-16.22,-67.2,0.4651,-0.2953,0.6245,0.5534,0.003,-0.02,-0.025
2025-11-06 18:34:30.455,125.555,-0.18,0.38,-0.016,-0.252,-0.9550000000000001,-0.01,65.33,-16.22,-67.2,0.46430000000000005,-0.2952,0.6253000000000001,0.5532,-0.001,-0.01,-0.033
2025-11-06 18:34:30.455,125.56,-0.17400000000000002,0.399,-0.026000000000000002,-0.251,-0.963,0.006,65.33,-16.22,-67.2,0.46280000000000004,-0.29500000000000004,0.6267,0.5531,-0.002,-0.003,-0.047
2025-11-06 18:34:30.455,125.565,-0.184,0.40900000000000003,-0.035,-0.253,-0.968,0.028,64.3,-15.96,-67.61,0.4606,-0.2948,0.6287,0.5527000000000001,0.0,0.002,-0.065
2025-11-06 18:34:30.455,125.57,-0.198,0.422,-0.039,-0.251,-0.973,0.054,64.3,-15.96,-67.61,0.4576,-0.2944,0.6314000000000001,0.5523,-0.001,0.006,-0.085
2025-11-06 18:34:30.455,125.575,-0.20600000000000002,0.41600000000000004,-0.045,-0.233,-0.982,0.073,63.980000000000004,-15.6,-67.58,0.45330000000000004,-0.29400000000000004,0.6345000000000001,0.5525,-0.017,0.014,-0.096
2025-11-06 18:34:30.456,125.58,-0.219,0.378,-0.048,-0.211,-0.992,0.08700000000000001,63.980000000000004,-15.6,-67.58,0.44770000000000004,-0.2936,0.6379,0.5535,-0.035,0.023,-0.10200000000000001
2025-11-06 18:34:30.456,125.585,-0.232,0.354,-0.045,-0.193,-0.987,0.094,63.980000000000004,-15.6,-67.58,0.44160000000000005,-0.2932,0.6411,0.5548000000000001,-0.048,0.017,-0.10200000000000001
2025-11-06 18:34:30.456,125.59,-0.229,0.356,-0.048,-0.17300000000000001,-0.991,0.083,64.25,-15.84,-67.46000000000001,0.4353,-0.2928,0.6438,0.5569000000000001,-0.062,0.019,-0.084
2025-11-06 18:34:30.456,125.595,-0.232,0.398,-0.054,-0.151,-0.993,0.046,64.25,-15.84,-67.46000000000001,0.4293,-0.2921,0.645,0.5604,-0.077,0.02,-0.044
2025-11-06 18:34:30.456,125.6,-0.257,0.458,-0.068,-0.147,-0.997,0.011,64.19,-16.1,-67.52,0.42460000000000003,-0.2913,0.645,0.5644,-0.073,0.021,-0.008
2025-11-06 18:34:30.456,125.605,-0.292,0.499,-0.082,-0.156,-1.0,-0.011,64.19,-16.1,-67.52,0.42150000000000004,-0.2907,0.6441,0.5682,-0.058,0.023,0.011
2025-11-06 18:34:30.456,125.61,-0.32,0.532,-0.1,-0.161,-1.004,-0.027,64.39,-15.81,-67.55,0.4193,-0.2901,0.6427,0.5716,-0.046,0.026000000000000002,0.023
2025-11-06 18:34:30.456,125.615,-0.358,0.55,-0.113,-0.176,-1.0,-0.023,64.39,-15.81,-67.55,0.41850000000000004,-0.2901,0.6413,0.5739000000000001,-0.028,0.021,0.015
2025-11-06 18:34:30.456,125.62,-0.393,0.556,-0.129,-0.191,-1.0070000000000001,-0.006,64.39,-15.81,-67.55,0.41850000000000004,-0.2907,0.6402,0.5748,-0.01,0.027,-0.004
2025-11-06 18:34:30.456,125.625,-0.43,0.536,-0.137,-0.20600000000000002,-1.02,0.018000000000000002,64.51,-15.49,-67.9,0.41900000000000004,-0.29200000000000004,0.6396000000000001,0.5744,0.005,0.04,-0.029
2025-11-06 18:34:30.458,125.63,-0.47000000000000003,0.504,-0.139,-0.219,-1.02,0.034,64.51,-15.49,-67.9,0.4203,-0.2936,0.6393,0.5729000000000001,0.018000000000000002,0.04,-0.044
2025-11-06 18:34:30.458,125.635,-0.519,0.47200000000000003,-0.138,-0.225,-1.031,0.038,64.71000000000001,-15.08,-67.9,0.42160000000000003,-0.2952,0.639,0.5714,0.024,0.051000000000000004,-0.047
2025-11-06 18:34:30.458,125.64,-0.594,0.441,-0.123,-0.214,-1.063,0.022,64.71000000000001,-15.08,-67.9,0.42210000000000003,-0.29610000000000003,0.6384000000000001,0.5714,0.013000000000000001,0.083,-0.031
2025-11-06 18:34:30.458,125.645,-0.627,0.417,-0.101,-0.219,-1.064,0.008,64.51,-15.25,-68.31,0.42300000000000004,-0.29660000000000003,0.6374000000000001,0.5715,0.019,0.084,-0.019
2025-11-06 18:34:30.458,125.65,-0.645,0.40900000000000003,-0.067,-0.241,-1.036,-0.003,64.51,-15.25,-68.31,0.42550000000000004,-0.29710000000000003,0.6362,0.5707,0.04,0.057,-0.009000000000000001
2025-11-06 18:34:30.458,125.655,-0.648,0.41400000000000003,-0.037,-0.272,-1.0150000000000001,-0.013000000000000001,64.51,-15.25,-68.31,0.4299,-0.2975,0.6347,0.5689000000000001,0.066,0.037,-0.002
2025-11-06 18:34:30.458,125.66,-0.672,0.394,-0.004,-0.28,-1.004,-0.034,65.03,-15.46,-68.83,0.43470000000000003,-0.2974,0.6328,0.5674,0.068,0.027,0.014
2025-11-06 18:34:30.458,125.665,-0.684,0.35100000000000003,0.032,-0.28700000000000003,-0.981,-0.05,65.03,-15.46,-68.83,0.44,-0.29700000000000004,0.6307,0.5659000000000001,0.07,0.005,0.024
2025-11-06 18:34:30.458,125.67,-0.687,0.333,0.055,-0.28200000000000003,-0.963,-0.066,64.68,-15.43,-68.81,0.44520000000000004,-0.2963,0.6283000000000001,0.5649000000000001,0.059000000000000004,-0.011,0.033
2025-11-06 18:34:30.458,125.675,-0.6920000000000001,0.332,0.073,-0.277,-0.9470000000000001,-0.079,64.68,-15.43,-68.81,0.4501,-0.2954,0.6257,0.5643,0.048,-0.024,0.039
2025-11-06 18:34:30.458,125.68,-0.708,0.324,0.084,-0.252,-0.968,-0.10400000000000001,64.68,-15.43,-68.81,0.4539,-0.29460000000000003,0.6225,0.5652,0.021,-0.003,0.055
2025-11-06 18:34:30.458,125.685,-0.716,0.295,0.1,-0.28800000000000003,-0.9390000000000001,-0.11,64.74,-14.84,-68.48,0.4592,-0.2932,0.6196,0.5648000000000001,0.052000000000000005,-0.03,0.052000000000000005
2025-11-06 18:34:30.458,125.69,-0.738,0.292,0.097,-0.302,-0.912,-0.11800000000000001,64.74,-14.84,-68.48,0.465,-0.2914,0.6168,0.5641,0.059000000000000004,-0.054,0.051000000000000004
2025-11-06 18:34:30.458,125.695,-0.765,0.311,0.078,-0.303,-0.898,-0.12,64.42,-14.99,-68.86,0.47050000000000003,-0.2896,0.614,0.5635,0.053,-0.066,0.045
2025-11-06 18:34:30.458,125.7,-0.805,0.332,0.054,-0.28200000000000003,-0.896,-0.124,64.42,-14.99,-68.86,0.47500000000000003,-0.2882,0.6111,0.5636,0.027,-0.066,0.039
2025-11-06 18:34:30.458,125.705,-0.854,0.342,0.03,-0.251,-0.869,-0.132,64.51,-15.08,-69.10000000000001,0.47890000000000005,-0.28750000000000003,0.6076,0.5645,-0.005,-0.092,0.039
2025-11-06 18:34:30.458,125.71,-0.86,0.366,0.009000000000000001,-0.314,-0.88,-0.125,64.51,-15.08,-69.10000000000001,0.4832,-0.2849,0.6057,0.5641,0.051000000000000004,-0.078,0.024
2025-11-06 18:34:30.458,125.715,-0.9480000000000001,0.425,-0.044,-0.28400000000000003,-0.888,-0.162,64.51,-15.08,-69.10000000000001,0.48800000000000004,-0.2838,0.6017,0.5648000000000001,0.018000000000000002,-0.068,0.05
2025-11-06 18:34:30.458,125.72,-0.9580000000000001,0.503,-0.076,-0.264,-0.895,-0.153,65.15,-15.280000000000001,-68.92,0.49150000000000005,-0.28350000000000003,0.5981000000000001,0.5658000000000001,-0.003,-0.06,0.031
2025-11-06 18:34:30.458,125.725,-1.03,0.557,-0.117,-0.23,-0.965,-0.182,65.15,-15.280000000000001,-68.92,0.49460000000000004,-0.28500000000000003,0.5930000000000001,0.5677,-0.033,0.009000000000000001,0.051000000000000004
2025-11-06 18:34:30.458,125.73,-1.078,0.583,-0.14200000000000002,-0.188,-0.971,-0.17400000000000002,64.71000000000001,-14.9,-70.15,0.4964,-0.2878,0.5878,0.5701,-0.068,0.015,0.033
2025-11-06 18:34:30.458,125.735,-1.101,0.59,-0.14200000000000002,-0.166,-0.98,-0.162,64.71000000000001,-14.9,-70.15,0.4973,-0.2911,0.5831000000000001,0.5725,-0.082,0.023,0.013000000000000001
2025-11-06 18:34:30.459,125.74,-1.104,0.5740000000000001,-0.125,-0.182,-0.934,-0.128,64.71000000000001,-14.9,-70.15,0.4974,-0.29300000000000004,0.5803,0.5742,-0.059000000000000004,-0.023,-0.024
2025-11-06 18:34:30.459,125.745,-1.1260000000000001,0.55,-0.127,-0.152,-0.9550000000000001,-0.11800000000000001,64.71000000000001,-14.73,-69.95,0.49670000000000003,-0.29600000000000004,0.5775,0.5761000000000001,-0.081,-0.004,-0.038
2025-11-06 18:34:30.459,125.75,-1.174,0.51,-0.124,-0.122,-0.917,-0.109,64.71000000000001,-14.73,-69.95,0.4955,-0.29960000000000003,0.5746,0.5782,-0.10300000000000001,-0.044,-0.049
2025-11-06 18:34:30.459,125.755,-1.229,0.518,-0.131,-0.077,-0.921,-0.152,64.68,-14.46,-69.83,0.4943,-0.3034,0.5698,0.5820000000000001,-0.136,-0.041,-0.011
2025-11-06 18:34:30.459,125.76,-1.286,0.5710000000000001,-0.127,-0.069,-0.93,-0.221,64.68,-14.46,-69.83,0.4939,-0.30560000000000004,0.5633,0.5875,-0.13,-0.033,0.046
2025-11-06 18:34:30.459,125.765,-1.338,0.627,-0.133,-0.057,-0.921,-0.28400000000000003,65.44,-14.790000000000001,-71.2,0.4938,-0.306,0.5555,0.5948,-0.129,-0.042,0.093
2025-11-06 18:34:30.459,125.77,-1.353,0.64,-0.138,-0.056,-0.919,-0.307,65.44,-14.790000000000001,-71.2,0.4939,-0.3059,0.5476,0.602,-0.11900000000000001,-0.042,0.098
2025-11-06 18:34:30.459,125.775,-1.366,0.583,-0.14400000000000002,-0.06,-0.914,-0.327,65.44,-14.790000000000001,-71.2,0.49400000000000005,-0.3048,0.5401,0.6092000000000001,-0.10300000000000001,-0.046,0.101
2025-11-06 18:34:30.459,125.78,-1.353,0.511,-0.145,-0.07200000000000001,-0.918,-0.333,65.44,-14.35,-71.35000000000001,0.49420000000000003,-0.3034,0.5333,0.6157,-0.083,-0.038,0.09
2025-11-06 18:34:30.459,125.785,-1.332,0.426,-0.147,-0.08600000000000001,-0.909,-0.332,65.44,-14.35,-71.35000000000001,0.4944,-0.3015,0.5275000000000001,0.6214000000000001,-0.062,-0.045,0.074
2025-11-06 18:34:30.459,125.79,-1.309,0.358,-0.156,-0.08,-0.919,-0.337,65.56,-14.14,-71.23,0.4948,-0.3002,0.5219,0.6265000000000001,-0.061,-0.032,0.065
2025-11-06 18:34:30.459,125.795,-1.2730000000000001,0.28800000000000003,-0.16,-0.1,-0.916,-0.313,65.56,-14.14,-71.23,0.49560000000000004,-0.2993,0.5176000000000001,0.6298,-0.037,-0.032,0.03
2025-11-06 18:34:30.459,125.8,-1.242,0.241,-0.178,-0.111,-0.911,-0.27,65.56,-14.14,-71.23,0.4969,-0.2999,0.5147,0.6309,-0.022,-0.036000000000000004,-0.018000000000000002
2025-11-06 18:34:30.459,125.805,-1.2510000000000001,0.234,-0.213,-0.11,-0.905,-0.251,65.36,-13.47,-71.82000000000001,0.49860000000000004,-0.3014,0.5121,0.631,-0.02,-0.041,-0.041
2025-11-06 18:34:30.459,125.81,-1.284,0.233,-0.244,-0.13,-0.908,-0.24,65.36,-13.47,-71.82000000000001,0.5002,-0.3023,0.5105000000000001,0.6306,0.001,-0.037,-0.054
2025-11-06 18:34:30.459,125.815,-1.344,0.217,-0.266,-0.148,-0.917,-0.261,65.41,-14.200000000000001,-72.78,0.5015000000000001,-0.3015,0.5091,0.6311,0.018000000000000002,-0.028,-0.037
2025-11-06 18:34:30.459,125.82,-1.443,0.166,-0.275,-0.189,-0.919,-0.297,65.41,-14.200000000000001,-72.78,0.5022,-0.2972,0.5082,0.6332,0.056,-0.023,-0.007
2025-11-06 18:34:30.459,125.825,-1.47,0.116,-0.26,-0.203,-0.909,-0.298,65.65,-13.73,-72.02,0.503,-0.2924,0.5078,0.6352,0.065,-0.031,-0.013000000000000001
2025-11-06 18:34:30.459,125.83,-1.421,0.017,-0.23500000000000001,-0.232,-0.901,-0.267,65.65,-13.73,-72.02,0.5037,-0.2876,0.509,0.6358,0.08700000000000001,-0.036000000000000004,-0.048
2025-11-06 18:34:30.459,125.835,-1.3780000000000001,-0.065,-0.219,-0.257,-0.904,-0.254,65.65,-13.73,-72.02,0.5045000000000001,-0.28240000000000004,0.5111,0.6359,0.10300000000000001,-0.031,-0.062
2025-11-06 18:34:30.459,125.84,-1.3940000000000001,-0.1,-0.214,-0.261,-0.923,-0.28400000000000003,64.57000000000001,-12.83,-73.51,0.5053,-0.2772,0.5124000000000001,0.6365000000000001,0.097,-0.009000000000000001,-0.035
2025-11-06 18:34:30.459,125.845,-1.433,-0.122,-0.20800000000000002,-0.23800000000000002,-0.915,-0.274,64.57000000000001,-12.83,-73.51,0.5057,-0.2732,0.5133,0.6371,0.069,-0.016,-0.048
2025-11-06 18:34:30.459,125.85,-1.438,-0.112,-0.211,-0.228,-0.914,-0.24,65.5,-12.8,-74.53,0.5054000000000001,-0.27040000000000003,0.5149,0.6372,0.053,-0.015,-0.083
2025-11-06 18:34:30.459,125.855,-1.449,-0.056,-0.216,-0.228,-0.915,-0.222,65.5,-12.8,-74.53,0.5048,-0.2681,0.5169,0.6371,0.049,-0.014,-0.099
2025-11-06 18:34:30.459,125.86,-1.473,0.044,-0.23,-0.20600000000000002,-0.902,-0.224,65.5,-12.8,-74.53,0.504,-0.2666,0.5182,0.6374000000000001,0.024,-0.026000000000000002,-0.096
2025-11-06 18:34:30.459,125.865,-1.499,0.152,-0.23600000000000002,-0.20600000000000002,-0.893,-0.20700000000000002,65.59,-11.89,-75.41,0.503,-0.2654,0.5197,0.6374000000000001,0.022,-0.036000000000000004,-0.111
2025-11-06 18:34:30.459,125.87,-1.5170000000000001,0.214,-0.225,-0.212,-0.903,-0.196,65.59,-11.89,-75.41,0.502,-0.2644,0.5215000000000001,0.6372,0.026000000000000002,-0.027,-0.11900000000000001
2025-11-06 18:34:30.459,125.875,-1.528,0.295,-0.216,-0.18,-0.899,-0.199,66.09,-11.6,-75.0,0.5,-0.264,0.5226000000000001,0.6379,-0.005,-0.031,-0.115
2025-11-06 18:34:30.459,125.88,-1.5,0.398,-0.216,-0.136,-0.881,-0.223,66.09,-11.6,-75.0,0.4974,-0.2642,0.5221,0.6403,-0.045,-0.05,-0.09
2025-11-06 18:34:30.459,125.885,-1.429,0.47400000000000003,-0.219,-0.134,-0.874,-0.299,67.58,-11.34,-75.79,0.497,-0.2639,0.5188,0.6434000000000001,-0.042,-0.056,-0.021
2025-11-06 18:34:30.459,125.89,-1.3900000000000001,0.47800000000000004,-0.214,-0.132,-0.886,-0.354,67.58,-11.34,-75.79,0.4975,-0.2632,0.5142,0.647,-0.039,-0.041,0.024
2025-11-06 18:34:30.459,125.895,-1.412,0.436,-0.20800000000000002,-0.123,-0.885,-0.376,67.58,-11.34,-75.79,0.49820000000000003,-0.26230000000000003,0.5091,0.6509,-0.043000000000000003,-0.039,0.035
2025-11-06 18:34:30.459,125.9,-1.443,0.355,-0.20400000000000001,-0.096,-0.87,-0.371,66.96000000000001,-10.49,-77.43,0.4978,-0.2619,0.5041,0.6553,-0.064,-0.051000000000000004,0.019
2025-11-06 18:34:30.459,125.905,-1.466,0.299,-0.216,-0.08,-0.87,-0.34700000000000003,66.96000000000001,-10.49,-77.43,0.4965,-0.2621,0.5,0.6592,-0.07100000000000001,-0.049,-0.013000000000000001
2025-11-06 18:34:30.459,125.91,-1.506,0.296,-0.226,-0.074,-0.872,-0.35000000000000003,67.55,-10.58,-76.76,0.4953,-0.2625,0.496,0.663,-0.07,-0.045,-0.017
2025-11-06 18:34:30.459,125.915,-1.551,0.298,-0.234,-0.073,-0.876,-0.397,67.55,-10.58,-76.76,0.49450000000000005,-0.2619,0.49100000000000005,0.6675,-0.064,-0.039,0.02
2025-11-06 18:34:30.459,125.92,-1.565,0.257,-0.227,-0.101,-0.883,-0.41500000000000004,67.55,-10.58,-76.76,0.49470000000000003,-0.2604,0.4864,0.6713,-0.031,-0.027,0.027
2025-11-06 18:34:30.459,125.925,-1.546,0.185,-0.214,-0.134,-0.878,-0.373,66.61,-10.23,-77.4,0.4958,-0.259,0.4838,0.6729,0.003,-0.03,-0.022
2025-11-06 18:34:30.459,125.93,-1.495,0.114,-0.202,-0.13,-0.868,-0.331,66.61,-10.23,-77.4,0.49670000000000003,-0.2589,0.48260000000000003,0.6732,0.0,-0.038,-0.068
2025-11-06 18:34:30.459,125.935,-1.444,0.113,-0.197,-0.134,-0.868,-0.327,66.41,-10.31,-76.81,0.49760000000000004,-0.25880000000000003,0.4817,0.6732,0.003,-0.038,-0.073
2025-11-06 18:34:30.459,125.94,-1.41,0.164,-0.203,-0.146,-0.871,-0.34800000000000003,66.41,-10.31,-76.81,0.4989,-0.2581,0.48040000000000005,0.6734,0.014,-0.033,-0.055
2025-11-06 18:34:30.459,125.945,-1.383,0.224,-0.20700000000000002,-0.147,-0.864,-0.377,66.58,-9.0,-77.34,0.5004000000000001,-0.25680000000000003,0.47840000000000005,0.6743,0.014,-0.038,-0.031
2025-11-06 18:34:30.459,125.95,-1.366,0.276,-0.21,-0.13,-0.87,-0.41100000000000003,66.58,-9.0,-77.34,0.5014000000000001,-0.2555,0.47540000000000004,0.6761,-0.001,-0.029,-0.003
2025-11-06 18:34:30.459,125.955,-1.316,0.308,-0.212,-0.14,-0.876,-0.445,66.58,-9.0,-77.34,0.5029,-0.25370000000000004,0.47190000000000004,0.6781,0.009000000000000001,-0.019,0.021
2025-11-06 18:34:30.459,125.96,-1.293,0.359,-0.20500000000000002,-0.152,-0.877,-0.44,67.37,-8.65,-78.39,0.5047,-0.252,0.46900000000000003,0.6794,0.021,-0.015,0.009000000000000001
2025-11-06 18:34:30.459,125.965,-1.2750000000000001,0.434,-0.209,-0.14,-0.866,-0.43,67.37,-8.65,-78.39,0.5061,-0.251,0.46630000000000005,0.6807000000000001,0.009000000000000001,-0.022,-0.007
2025-11-06 18:34:30.459,125.97,-1.2690000000000001,0.488,-0.215,-0.136,-0.861,-0.40800000000000003,66.5,-8.38,-78.42,0.5072,-0.2506,0.4642,0.6814,0.006,-0.025,-0.034
2025-11-06 18:34:30.459,125.975,-1.2510000000000001,0.529,-0.215,-0.14400000000000002,-0.843,-0.383,66.5,-8.38,-78.42,0.5084000000000001,-0.2503,0.463,0.6814,0.014,-0.042,-0.061
2025-11-06 18:34:30.459,125.98,-1.229,0.5740000000000001,-0.195,-0.158,-0.8230000000000001,-0.375,66.85,-8.38,-78.04,0.5102,-0.24980000000000002,0.462,0.6809000000000001,0.027,-0.061,-0.07200000000000001
2025-11-06 18:34:30.459,125.985,-1.215,0.593,-0.183,-0.14,-0.798,-0.382,66.85,-7.98,-78.04,0.5117,-0.24930000000000002,0.46040000000000003,0.6811,0.009000000000000001,-0.084,-0.068
2025-11-06 18:34:30.459,125.99,-1.226,0.598,-0.179,-0.14400000000000002,-0.791,-0.39,66.85,-7.98,-78.04,0.5135000000000001,-0.24860000000000002,0.4585,0.6812,0.012,-0.088,-0.064
2025-11-06 18:34:30.459,125.995,-1.2610000000000001,0.593,-0.19,-0.165,-0.788,-0.4,66.85,-7.42,-78.95,0.5162,-0.24730000000000002,0.4567,0.6809000000000001,0.031,-0.09,-0.059000000000000004
2025-11-06 18:34:30.459,126.0,-1.327,0.5740000000000001,-0.196,-0.178,-0.803,-0.384,66.85,-7.42,-78.95,0.5184,-0.24600000000000002,0.4559,0.6802,0.041,-0.07200000000000001,-0.078
2025-11-06 18:34:30.459,126.005,-1.367,0.536,-0.187,-0.165,-0.796,-0.356,67.37,-6.98,-79.45,0.5194,-0.2452,0.4559,0.6797000000000001,0.026000000000000002,-0.078,-0.107
2025-11-06 18:34:30.459,126.01,-1.3840000000000001,0.514,-0.191,-0.128,-0.787,-0.355,67.37,-6.98,-79.45,0.5188,-0.2451,0.4554,0.6806,-0.011,-0.08600000000000001,-0.108
2025-11-06 18:34:30.459,126.015,-1.407,0.511,-0.203,-0.101,-0.791,-0.402,67.37,-6.98,-79.45,0.5183,-0.24500000000000002,0.45280000000000004,0.6828000000000001,-0.034,-0.081,-0.065
2025-11-06 18:34:30.459,126.02,-1.46,0.538,-0.221,-0.089,-0.78,-0.47500000000000003,67.34,-6.66,-79.39,0.5192,-0.2442,0.4474,0.6859000000000001,-0.04,-0.088,-0.002
2025-11-06 18:34:30.459,126.025,-1.487,0.5690000000000001,-0.233,-0.1,-0.78,-0.481,67.34,-6.66,-79.39,0.5207,-0.24330000000000002,0.44220000000000004,0.6884,-0.026000000000000002,-0.082,-0.006
2025-11-06 18:34:30.459,126.03,-1.49,0.61,-0.241,-0.08600000000000001,-0.774,-0.47600000000000003,67.46000000000001,-6.4,-79.74,0.5215000000000001,-0.2429,0.4373,0.6911,-0.035,-0.084,-0.02
2025-11-06 18:34:30.459,126.035,-1.48,0.665,-0.23900000000000002,-0.076,-0.763,-0.468,67.46000000000001,-6.4,-79.74,0.5221,-0.2429,0.43260000000000004,0.6936,-0.04,-0.091,-0.037
2025-11-06 18:34:30.459,126.04,-1.477,0.707,-0.231,-0.10200000000000001,-0.768,-0.49,67.81,-6.1000000000000005,-80.15,0.5237,-0.24200000000000002,0.42810000000000004,0.6955,-0.009000000000000001,-0.081,-0.023
2025-11-06 18:34:30.459,126.045,-1.512,0.668,-0.246,-0.153,-0.732,-0.47900000000000004,67.81,-6.1000000000000005,-80.15,0.5271,-0.2393,0.42460000000000003,0.6960000000000001,0.039,-0.112,-0.042
2025-11-06 18:34:30.459,126.05,-1.539,0.737,-0.23600000000000002,-0.11800000000000001,-0.723,-0.481,67.81,-6.1000000000000005,-80.15,0.5295,-0.2378,0.4204,0.6972,0.004,-0.115,-0.049
2025-11-06 18:34:30.459,126.055,-1.518,0.805,-0.213,-0.14400000000000002,-0.706,-0.458,68.45,-5.26,-80.47,0.5322,-0.2358,0.4176,0.6976,0.029,-0.128,-0.08
2025-11-06 18:34:30.459,126.06,-1.497,0.886,-0.2,-0.147,-0.684,-0.462,68.45,-5.26,-80.47,0.5354,-0.2336,0.41440000000000005,0.6978000000000001,0.03,-0.145,-0.082
2025-11-06 18:34:30.459,126.065,-1.497,0.909,-0.20700000000000002,-0.11900000000000001,-0.657,-0.47100000000000003,68.60000000000001,-4.7,-80.88,0.5384,-0.2321,0.40990000000000004,0.6986,0.002,-0.166,-0.082
2025-11-06 18:34:30.459,126.07,-1.5210000000000001,0.874,-0.218,-0.124,-0.641,-0.458,68.60000000000001,-4.7,-80.88,0.5412,-0.2303,0.406,0.6994,0.007,-0.177,-0.10300000000000001
2025-11-06 18:34:30.459,126.075,-1.561,0.854,-0.23900000000000002,-0.1,-0.649,-0.459,68.60000000000001,-4.7,-80.88,0.5429,-0.2295,0.402,0.7006,-0.014,-0.164,-0.11
2025-11-06 18:34:30.460,126.08,-1.613,0.866,-0.269,-0.07100000000000001,-0.658,-0.482,69.16,-4.38,-80.85000000000001,0.5442,-0.22970000000000002,0.39680000000000004,0.7025,-0.038,-0.15,-0.094
2025-11-06 18:34:30.460,126.085,-1.661,0.891,-0.28800000000000003,-0.023,-0.637,-0.525,69.16,-4.38,-80.85000000000001,0.546,-0.23090000000000002,0.3886,0.7052,-0.078,-0.164,-0.062
2025-11-06 18:34:30.460,126.09,-1.707,0.839,-0.319,0.048,-0.629,-0.55,69.36,-3.68,-81.55,0.5473,-0.2341,0.378,0.7090000000000001,-0.134,-0.165,-0.05
2025-11-06 18:34:30.460,126.095,-1.702,0.776,-0.329,0.083,-0.631,-0.56,69.36,-3.68,-81.55,0.548,-0.23820000000000002,0.36710000000000004,0.7127,-0.151,-0.155,-0.053
2025-11-06 18:34:30.460,126.1,-1.681,0.743,-0.326,0.081,-0.663,-0.562,69.27,-3.44,-81.37,0.5485,-0.24230000000000002,0.35800000000000004,0.7156,-0.131,-0.116,-0.06
2025-11-06 18:34:30.460,126.105,-1.692,0.731,-0.34400000000000003,0.035,-0.681,-0.578,69.27,-3.44,-81.37,0.5492,-0.2441,0.3511,0.7179,-0.07200000000000001,-0.092,-0.054
2025-11-06 18:34:30.460,126.11,-1.742,0.72,-0.361,-0.008,-0.718,-0.516,69.27,-3.44,-81.37,0.551,-0.2466,0.3478,0.7173,-0.022,-0.052000000000000005,-0.11900000000000001
2025-11-06 18:34:30.460,126.115,-1.7710000000000001,0.654,-0.373,-0.049,-0.727,-0.47100000000000003,69.3,-2.2800000000000002,-81.05,0.5534,-0.2487,0.3472,0.7150000000000001,0.02,-0.044,-0.163
2025-11-06 18:34:30.460,126.12,-1.795,0.602,-0.377,-0.04,-0.735,-0.443,69.3,-2.2800000000000002,-81.05,0.5556,-0.2519,0.3473,0.7121000000000001,0.013000000000000001,-0.038,-0.188
2025-11-06 18:34:30.460,126.125,-1.816,0.626,-0.37,-0.038,-0.714,-0.44,70.33,-1.92,-81.35000000000001,0.5577,-0.2545,0.34690000000000004,0.7097,0.012,-0.062,-0.189
2025-11-06 18:34:30.460,126.13,-1.829,0.6890000000000001,-0.369,-0.04,-0.7000000000000001,-0.507,70.33,-1.92,-81.35000000000001,0.5597,-0.2548,0.34450000000000003,0.7092,0.015,-0.075,-0.123
2025-11-06 18:34:30.460,126.135,-1.842,0.75,-0.368,-0.002,-0.671,-0.577,70.33,-1.92,-81.35000000000001,0.5602,-0.25370000000000004,0.3391,0.7118,-0.017,-0.097,-0.061
2025-11-06 18:34:30.460,126.14,-1.851,0.753,-0.365,0.028,-0.648,-0.581,71.0,-0.96,-82.13,0.5597,-0.253,0.33290000000000003,0.7153,-0.04,-0.113,-0.066
2025-11-06 18:34:30.460,126.145,-1.867,0.748,-0.377,0.035,-0.62,-0.58,71.0,-0.96,-82.13,0.5592,-0.2521,0.3264,0.7191000000000001,-0.04,-0.132,-0.077
2025-11-06 18:34:30.460,126.15,-1.8900000000000001,0.722,-0.395,0.064,-0.617,-0.6,71.11,0.05,-81.67,0.5579000000000001,-0.2515,0.3191,0.7235,-0.059000000000000004,-0.127,-0.066
2025-11-06 18:34:30.460,126.155,-1.921,0.748,-0.41600000000000004,0.027,-0.63,-0.598,71.11,0.05,-81.67,0.5582,-0.2505,0.3134,0.7261000000000001,-0.015,-0.106,-0.077
2025-11-06 18:34:30.460,126.16,-1.955,0.756,-0.41000000000000003,-0.002,-0.629,-0.613,70.68,0.84,-82.31,0.5595,-0.2482,0.3085,0.728,0.018000000000000002,-0.1,-0.07
2025-11-06 18:34:30.460,126.165,-1.988,0.6990000000000001,-0.41500000000000004,-0.048,-0.643,-0.608,70.68,0.84,-82.31,0.562,-0.2451,0.3055,0.7284,0.062,-0.079,-0.083
2025-11-06 18:34:30.460,126.17,-2.016,0.648,-0.41400000000000003,-0.073,-0.648,-0.562,70.68,0.84,-82.31,0.5651,-0.2426,0.30460000000000004,0.7272000000000001,0.083,-0.069,-0.133
2025-11-06 18:34:30.460,126.175,-2.0300000000000002,0.617,-0.446,-0.07,-0.666,-0.497,71.03,1.4000000000000001,-82.57000000000001,0.5676,-0.2422,0.3059,0.7249,0.075,-0.051000000000000004,-0.198
2025-11-06 18:34:30.460,126.18,-2.052,0.634,-0.468,-0.091,-0.647,-0.44,71.03,1.4000000000000001,-82.57000000000001,0.5699000000000001,-0.24200000000000002,0.309,0.7218,0.089,-0.073,-0.252
2025-11-06 18:34:30.460,126.185,-2.077,0.672,-0.49,-0.05,-0.678,-0.385,70.91,2.07,-83.27,0.5685,-0.2447,0.3136,0.7200000000000001,0.046,-0.049,-0.3
2025-11-06 18:34:30.460,126.19,-2.085,0.75,-0.487,-0.056,-0.652,-0.384,70.91,2.07,-83.27,0.5684,-0.2469,0.31720000000000004,0.7177,0.05,-0.082,-0.293
2025-11-06 18:34:30.460,126.195,-2.099,0.783,-0.49,-0.056,-0.646,-0.391,70.91,2.07,-83.27,0.5687,-0.24860000000000002,0.3199,0.7157,0.048,-0.093,-0.281
2025-11-06 18:34:30.460,126.2,-2.17,0.834,-0.497,-0.002,-0.652,-0.47300000000000003,71.64,3.24,-83.39,0.5663,-0.2495,0.31880000000000003,0.7178,-0.001,-0.088,-0.197
2025-11-06 18:34:30.460,126.205,-2.248,0.883,-0.467,0.004,-0.637,-0.532,71.64,3.24,-83.39,0.5659000000000001,-0.2492,0.315,0.7199,-0.003,-0.1,-0.14200000000000002
2025-11-06 18:34:30.460,126.21,-2.291,0.921,-0.462,0.0,-0.598,-0.524,72.11,3.88,-82.69,0.5668000000000001,-0.2485,0.3105,0.7214,0.005,-0.132,-0.157
2025-11-06 18:34:30.460,126.215,-2.36,0.982,-0.468,0.061,-0.5660000000000001,-0.5740000000000001,72.11,3.88,-82.69,0.5638000000000001,-0.2472,0.30310000000000004,0.7273000000000001,-0.046,-0.155,-0.116
2025-11-06 18:34:30.460,126.22,-2.3890000000000002,1.034,-0.461,0.082,-0.502,-0.667,72.61,4.26,-83.25,0.5623,-0.2437,0.29150000000000004,0.7344,-0.055,-0.20500000000000002,-0.038
2025-11-06 18:34:30.460,126.225,-2.351,1.056,-0.464,0.107,-0.465,-0.8270000000000001,72.61,4.26,-83.25,0.5623,-0.2379,0.2762,0.7422000000000001,-0.067,-0.219,0.099
2025-11-06 18:34:30.460,126.23,-2.322,1.0230000000000001,-0.483,0.148,-0.448,-1.0010000000000001,72.61,4.26,-83.25,0.5625,-0.23120000000000002,0.25880000000000003,0.7503000000000001,-0.096,-0.20700000000000002,0.248
2025-11-06 18:34:30.460,126.235,-2.262,0.973,-0.481,0.158,-0.47200000000000003,-1.08,71.93,4.73,-83.33,0.5630000000000001,-0.225,0.24250000000000002,0.7573000000000001,-0.093,-0.155,0.304
2025-11-06 18:34:30.460,126.24,-2.215,0.932,-0.486,0.15,-0.462,-1.079,71.93,4.73,-83.33,0.5633,-0.21880000000000002,0.2275,0.7634000000000001,-0.075,-0.138,0.28400000000000003
2025-11-06 18:34:30.460,126.245,-2.197,0.857,-0.5670000000000001,0.132,-0.524,-0.977,72.14,5.93,-83.8,0.5636,-0.2152,0.21660000000000001,0.7674000000000001,-0.048,-0.055,0.167
2025-11-06 18:34:30.460,126.25,-2.152,0.764,-0.5680000000000001,0.11,-0.49,-0.861,72.14,5.93,-83.8,0.5638000000000001,-0.2122,0.2079,0.7705000000000001,-0.019,-0.07200000000000001,0.04
2025-11-06 18:34:30.460,126.255,-2.174,0.769,-0.589,0.068,-0.468,-0.864,72.14,5.93,-83.8,0.5629000000000001,-0.2071,0.2005,0.7745000000000001,0.025,-0.079,0.033
2025-11-06 18:34:30.460,126.26,-2.148,0.745,-0.594,0.009000000000000001,-0.44,-0.867,72.9,7.22,-83.57000000000001,0.5605,-0.19920000000000002,0.1951,0.7797000000000001,0.083,-0.091,0.026000000000000002
2025-11-06 18:34:30.460,126.265,-2.091,0.748,-0.597,-0.048,-0.435,-0.897,72.9,7.22,-83.57000000000001,0.5567,-0.18910000000000002,0.1917,0.7858,0.134,-0.079,0.045
2025-11-06 18:34:30.460,126.27,-2.039,0.763,-0.6,-0.041,-0.448,-0.972,73.8,8.120000000000001,-82.87,0.5539000000000001,-0.1802,0.18730000000000002,0.7908000000000001,0.11900000000000001,-0.051000000000000004,0.109
2025-11-06 18:34:30.460,126.275,-1.989,0.8150000000000001,-0.588,0.0,-0.499,-0.993,73.8,8.120000000000001,-82.87,0.5518000000000001,-0.17450000000000002,0.18330000000000002,0.7946000000000001,0.076,0.012,0.123
2025-11-06 18:34:30.460,126.28,-1.973,0.87,-0.593,0.08700000000000001,-0.546,-1.029,73.86,9.09,-83.45,0.5519000000000001,-0.1733,0.1776,0.796,-0.009000000000000001,0.07,0.153
2025-11-06 18:34:30.461,126.285,-1.921,0.9380000000000001,-0.5750000000000001,0.182,-0.606,-1.047,73.86,9.09,-83.45,0.554,-0.1766,0.17120000000000002,0.7953,-0.094,0.136,0.168
2025-11-06 18:34:30.461,126.29,-1.8960000000000001,1.012,-0.5630000000000001,0.182,-0.679,-1.0190000000000001,73.86,9.09,-83.45,0.5545,-0.1809,0.1676,0.7947000000000001,-0.083,0.212,0.14100000000000001
2025-11-06 18:34:30.461,126.295,-1.8760000000000001,1.028,-0.539,0.167,-0.712,-1.018,72.87,10.23,-82.34,0.5543,-0.18480000000000002,0.16570000000000001,0.7943,-0.059000000000000004,0.244,0.14100000000000001
2025-11-06 18:34:30.461,126.3,-1.856,1.002,-0.495,0.11800000000000001,-0.744,-0.983,72.87,10.23,-82.34,0.5533,-0.1877,0.1665,0.7942,-0.004,0.273,0.108
2025-11-06 18:34:30.461,126.305,-1.873,0.971,-0.458,0.132,-0.71,-1.0070000000000001,73.51,10.75,-83.01,0.5526,-0.1898,0.16590000000000002,0.7943,-0.014,0.23600000000000002,0.134
2025-11-06 18:34:30.465,126.31,-1.835,0.914,-0.397,0.167,-0.658,-1.057,73.51,10.75,-83.01,0.5524,-0.1913,0.1627,0.7947000000000001,-0.045,0.186,0.184
2025-11-06 18:34:30.465,126.315,-1.7590000000000001,0.866,-0.335,0.181,-0.5760000000000001,-1.079,73.51,10.75,-83.01,0.5528000000000001,-0.19140000000000001,0.1575,0.7955,-0.052000000000000005,0.111,0.203
2025-11-06 18:34:30.465,126.32,-1.651,0.854,-0.28800000000000003,0.231,-0.485,-1.105,74.04,11.78,-83.71000000000001,0.5535,-0.1913,0.1492,0.7966000000000001,-0.094,0.032,0.224
2025-11-06 18:34:30.465,126.325,-1.5250000000000001,0.781,-0.263,0.314,-0.421,-1.159,74.04,11.78,-83.71000000000001,0.5543,-0.1918,0.13820000000000002,0.7979,-0.165,-0.016,0.272
2025-11-06 18:34:30.465,126.33,-1.401,0.659,-0.23900000000000002,0.375,-0.41100000000000003,-1.301,74.24,12.33,-82.72,0.5551,-0.1918,0.1267,0.7993,-0.212,-0.008,0.40800000000000003
2025-11-06 18:34:30.465,126.335,-1.2650000000000001,0.505,-0.192,0.47100000000000003,-0.401,-1.5030000000000001,74.24,12.33,-82.72,0.5557,-0.1915,0.1144,0.8008000000000001,-0.294,0.0,0.604
2025-11-06 18:34:30.465,126.34,-1.1440000000000001,0.37,-0.17,0.459,-0.391,-1.518,74.01,13.09,-82.87,0.5558000000000001,-0.1905,0.10360000000000001,0.8024,-0.271,0.009000000000000001,0.613
2025-11-06 18:34:30.465,126.345,-1.053,0.271,-0.14200000000000002,0.451,-0.391,-1.475,74.01,13.09,-82.87,0.5561,-0.1898,0.0942,0.8036000000000001,-0.253,0.024,0.5660000000000001
2025-11-06 18:34:30.465,126.35,-0.9440000000000001,0.171,-0.101,0.44,-0.377,-1.451,74.01,13.09,-82.87,0.5561,-0.1888,0.0858,0.8047000000000001,-0.233,0.025,0.538
2025-11-06 18:34:30.465,126.355,-0.8190000000000001,0.10200000000000001,-0.046,0.402,-0.358,-1.52,74.07000000000001,13.38,-82.95,0.5542,-0.1859,0.0792,0.8074,-0.19,0.021,0.603
2025-11-06 18:34:30.465,126.36,-0.6990000000000001,-0.007,0.0,0.338,-0.359,-1.627,74.07000000000001,13.38,-82.95,0.5498000000000001,-0.1806,0.07490000000000001,0.812,-0.127,0.036000000000000004,0.705
2025-11-06 18:34:30.465,126.365,-0.618,-0.109,0.02,0.332,-0.375,-1.692,74.39,13.56,-82.60000000000001,0.5457000000000001,-0.1753,0.0716,0.8162,-0.123,0.063,0.765
2025-11-06 18:34:30.465,126.37,-0.532,-0.23800000000000002,0.031,0.317,-0.4,-1.72,74.39,13.56,-82.60000000000001,0.542,-0.17020000000000002,0.0695,0.8199000000000001,-0.112,0.099,0.789
2025-11-06 18:34:30.465,126.375,-0.451,-0.34,0.032,0.278,-0.425,-1.701,73.95,13.97,-83.16,0.538,-0.1651,0.06910000000000001,0.8236,-0.078,0.132,0.766
2025-11-06 18:34:30.465,126.38,-0.281,-0.46,0.042,0.265,-0.41300000000000003,-1.684,73.95,13.97,-83.16,0.5344,-0.1602,0.069,0.8269000000000001,-0.07200000000000001,0.126,0.745
2025-11-06 18:34:30.465,126.385,-0.127,-0.59,0.06,0.244,-0.41100000000000003,-1.6360000000000001,73.95,13.97,-83.16,0.531,-0.1555,0.0698,0.8299000000000001,-0.058,0.128,0.6950000000000001
2025-11-06 18:34:30.465,126.39,0.0,-0.645,0.08600000000000001,0.201,-0.40800000000000003,-1.541,73.8,14.23,-82.05,0.5274,-0.1509,0.0719,0.8329000000000001,-0.023,0.129,0.597
2025-11-06 18:34:30.466,126.395,0.098,-0.664,0.117,0.182,-0.40800000000000003,-1.428,73.8,14.23,-82.05,0.5244,-0.1471,0.0746,0.8353,-0.013000000000000001,0.129,0.482
2025-11-06 18:34:30.466,126.4,0.212,-0.671,0.163,0.152,-0.40700000000000003,-1.247,74.01,13.5,-83.45,0.5217,-0.1444,0.0789,0.8370000000000001,0.008,0.125,0.302
2025-11-06 18:34:30.466,126.405,0.305,-0.596,0.217,0.132,-0.396,-1.101,74.01,13.5,-83.45,0.5196000000000001,-0.1428,0.0839,0.8381000000000001,0.021,0.108,0.155
2025-11-06 18:34:30.466,126.41,0.377,-0.505,0.26,0.125,-0.377,-1.028,74.01,13.5,-83.45,0.518,-0.1418,0.0886,0.8388,0.022,0.083,0.084
2025-11-06 18:34:30.466,126.415,0.439,-0.4,0.315,0.047,-0.369,-0.961,73.8,13.0,-82.54,0.5144000000000001,-0.13870000000000002,0.0956,0.8408,0.09,0.068,0.018000000000000002
2025-11-06 18:34:30.466,126.42,0.436,-0.245,0.35000000000000003,0.004,-0.365,-0.914,73.8,13.0,-82.54,0.5103,-0.1348,0.1033,0.8430000000000001,0.12,0.055,-0.027
2025-11-06 18:34:30.466,126.425,0.41000000000000003,-0.006,0.381,-0.051000000000000004,-0.357,-0.8210000000000001,73.57000000000001,12.97,-82.98,0.5058,-0.13,0.11280000000000001,0.8453,0.161,0.037,-0.11900000000000001
2025-11-06 18:34:30.466,126.43,0.384,0.222,0.382,-0.054,-0.312,-0.763,73.57000000000001,12.97,-82.98,0.5028,-0.1252,0.1202,0.8467,0.149,-0.015,-0.176
2025-11-06 18:34:30.466,126.435,0.375,0.386,0.356,-0.027,-0.256,-0.7010000000000001,73.10000000000001,12.83,-83.74,0.5021,-0.1216,0.12430000000000001,0.8470000000000001,0.11,-0.075,-0.23800000000000002
2025-11-06 18:34:30.466,126.44,0.368,0.535,0.32,0.048,-0.20800000000000002,-0.666,73.10000000000001,12.83,-83.74,0.5047,-0.1221,0.1231,0.8456,0.032,-0.123,-0.272
2025-11-06 18:34:30.466,126.445,0.34800000000000003,0.614,0.264,0.113,-0.157,-0.664,73.10000000000001,12.83,-83.74,0.5119,-0.1253,0.11620000000000001,0.8418,-0.024,-0.168,-0.276
2025-11-06 18:34:30.466,126.45,0.307,0.674,0.202,0.14200000000000002,-0.126,-0.664,73.92,12.74,-83.74,0.5209,-0.1292,0.1066,0.8370000000000001,-0.04,-0.189,-0.278
2025-11-06 18:34:30.466,126.455,0.258,0.715,0.154,0.161,-0.112,-0.651,73.92,12.74,-83.74,0.5298,-0.1336,0.09620000000000001,0.8319000000000001,-0.044,-0.192,-0.293
2025-11-06 18:34:30.466,126.46,0.215,0.752,0.113,0.179,-0.095,-0.634,73.69,12.620000000000001,-83.65,0.5387000000000001,-0.1384,0.0848,0.8266,-0.046,-0.197,-0.312
2025-11-06 18:34:30.466,126.465,0.183,0.781,0.074,0.194,-0.08,-0.638,73.69,12.620000000000001,-83.65,0.5466,-0.1428,0.0729,0.8218000000000001,-0.043000000000000003,-0.198,-0.309
2025-11-06 18:34:30.466,126.47,0.158,0.806,0.019,0.193,-0.073,-0.6910000000000001,73.69,12.620000000000001,-83.65,0.5516,-0.1453,0.062200000000000005,0.8189000000000001,-0.028,-0.192,-0.258
2025-11-06 18:34:30.466,126.475,0.145,0.783,-0.02,0.217,-0.08700000000000001,-0.744,73.75,11.86,-82.66,0.556,-0.14800000000000002,0.052500000000000005,0.8161,-0.038,-0.165,-0.20500000000000002
2025-11-06 18:34:30.466,126.48,0.128,0.716,-0.06,0.242,-0.117,-0.779,73.75,11.86,-82.66,0.5606,-0.1516,0.0442,0.8128000000000001,-0.048,-0.126,-0.171
2025-11-06 18:34:30.466,126.485,0.11800000000000001,0.627,-0.095,0.28200000000000003,-0.16,-0.803,73.54,12.1,-82.60000000000001,0.5669000000000001,-0.15710000000000002,0.0369,0.8077000000000001,-0.074,-0.077,-0.14400000000000002
2025-11-06 18:34:30.466,126.49,0.09,0.513,-0.136,0.3,-0.233,-0.8200000000000001,73.54,12.1,-82.60000000000001,0.5744,-0.1642,0.0324,0.8012,-0.077,-0.005,-0.124
2025-11-06 18:34:30.466,126.495,0.041,0.40700000000000003,-0.17,0.32,-0.292,-0.837,74.48,12.39,-82.08,0.5826,-0.1721,0.029500000000000002,0.7937000000000001,-0.084,0.046,-0.10200000000000001
2025-11-06 18:34:30.468,126.5,0.0,0.32,-0.198,0.323,-0.323,-0.85,74.48,12.39,-82.08,0.5899,-0.1796,0.027800000000000002,0.7866000000000001,-0.075,0.069,-0.084
2025-11-06 18:34:30.468,126.505,-0.017,0.247,-0.22,0.336,-0.336,-0.857,74.48,12.39,-82.08,0.5965,-0.1867,0.0263,0.7801,-0.078,0.074,-0.07200000000000001
2025-11-06 18:34:30.468,126.51,-0.021,0.17500000000000002,-0.23,0.34,-0.34800000000000003,-0.869,74.56,12.71,-82.22,0.6021000000000001,-0.19310000000000002,0.0253,0.7742,-0.073,0.079,-0.055
2025-11-06 18:34:30.468,126.515,-0.034,0.047,-0.225,0.313,-0.357,-0.89,74.56,12.71,-82.22,0.6064,-0.1975,0.0256,0.7697,-0.041,0.08,-0.031
2025-11-06 18:34:30.469,126.52,-0.048,-0.029,-0.213,0.308,-0.35000000000000003,-0.899,74.77,12.24,-82.37,0.6095,-0.2008,0.026000000000000002,0.7664000000000001,-0.033,0.067,-0.019
2025-11-06 18:34:30.469,126.525,-0.05,-0.088,-0.20600000000000002,0.311,-0.332,-0.904,74.77,12.24,-82.37,0.6114,-0.20320000000000002,0.026000000000000002,0.7643000000000001,-0.033,0.044,-0.011
2025-11-06 18:34:30.469,126.53,-0.034,-0.128,-0.197,0.298,-0.336,-0.908,74.77,12.24,-82.37,0.6131,-0.2049,0.026600000000000002,0.7624000000000001,-0.018000000000000002,0.045,-0.006
2025-11-06 18:34:30.469,126.535,-0.015,-0.17200000000000001,-0.186,0.266,-0.35100000000000003,-0.913,74.45,12.24,-82.28,0.6151,-0.2058,0.0285,0.7605000000000001,0.011,0.056,0.0
2025-11-06 18:34:30.469,126.54,0.004,-0.20400000000000001,-0.168,0.23900000000000002,-0.361,-0.924,74.45,12.24,-82.28,0.6171,-0.2058,0.0313,0.7588,0.035,0.061,0.011
2025-11-06 18:34:30.469,126.545,0.015,-0.228,-0.153,0.23800000000000002,-0.353,-0.932,74.74,12.27,-82.75,0.6185,-0.2053,0.033800000000000004,0.7576,0.031,0.048,0.019
2025-11-06 18:34:30.469,126.55,0.026000000000000002,-0.252,-0.145,0.233,-0.352,-0.9390000000000001,74.74,12.27,-82.75,0.6197,-0.2046,0.0362,0.7568,0.032,0.044,0.026000000000000002
2025-11-06 18:34:30.469,126.555,0.05,-0.267,-0.138,0.23500000000000001,-0.342,-0.9410000000000001,74.24,12.65,-82.72,0.6203000000000001,-0.20370000000000002,0.038200000000000005,0.7563000000000001,0.026000000000000002,0.032,0.027
2025-11-06 18:34:30.469,126.56,0.095,-0.28400000000000003,-0.124,0.227,-0.329,-0.9450000000000001,74.24,12.65,-82.72,0.6207,-0.2023,0.040100000000000004,0.7563000000000001,0.03,0.018000000000000002,0.03
2025-11-06 18:34:30.469,126.565,0.11800000000000001,-0.299,-0.122,0.21,-0.334,-0.9390000000000001,74.24,12.65,-82.72,0.6212,-0.20070000000000002,0.0425,0.7562,0.042,0.021,0.024
2025-11-06 18:34:30.469,126.57,0.135,-0.292,-0.122,0.2,-0.339,-0.921,75.32000000000001,12.13,-82.75,0.6218,-0.1995,0.0451,0.7559,0.045,0.023,0.004
2025-11-06 18:34:30.469,126.575,0.16,-0.268,-0.11800000000000001,0.197,-0.341,-0.887,75.32000000000001,12.13,-82.75,0.6225,-0.19890000000000002,0.047900000000000005,0.7553000000000001,0.044,0.022,-0.029
2025-11-06 18:34:30.469,126.58,0.178,-0.196,-0.128,0.17400000000000002,-0.343,-0.855,74.62,12.27,-83.57000000000001,0.6233000000000001,-0.1983,0.051300000000000005,0.7546,0.062,0.019,-0.06
2025-11-06 18:34:30.469,126.585,0.184,-0.11900000000000001,-0.14100000000000001,0.154,-0.34,-0.855,74.62,12.27,-83.57000000000001,0.6242,-0.1973,0.054700000000000006,0.7538,0.076,0.012,-0.06
2025-11-06 18:34:30.469,126.59,0.178,-0.061,-0.15,0.139,-0.34600000000000003,-0.852,74.62,12.27,-83.57000000000001,0.6252,-0.1961,0.0585,0.7531,0.084,0.013000000000000001,-0.063
2025-11-06 18:34:30.469,126.595,0.157,0.012,-0.151,0.122,-0.363,-0.836,74.59,11.8,-83.39,0.6262,-0.1953,0.063,0.7521,0.094,0.025,-0.079
2025-11-06 18:34:30.469,126.6,0.138,0.117,-0.159,0.116,-0.36,-0.808,74.59,11.8,-83.39,0.627,-0.19490000000000002,0.06720000000000001,0.7511,0.093,0.016,-0.106
2025-11-06 18:34:30.469,126.605,0.121,0.275,-0.184,0.114,-0.35000000000000003,-0.8170000000000001,73.8,12.42,-82.75,0.6279,-0.1943,0.07050000000000001,0.7502000000000001,0.089,0.001,-0.096
2025-11-06 18:34:30.469,126.61,0.11800000000000001,0.338,-0.20400000000000001,0.132,-0.34600000000000003,-0.851,73.8,12.42,-82.75,0.6287,-0.1938,0.0723,0.7495,0.067,-0.005,-0.062
2025-11-06 18:34:30.469,126.615,0.131,0.367,-0.219,0.158,-0.352,-0.888,75.5,12.8,-82.89,0.629,-0.1938,0.0732,0.7492000000000001,0.04,-0.001,-0.025
2025-11-06 18:34:30.469,126.62,0.14,0.379,-0.233,0.178,-0.366,-0.921,75.5,12.8,-82.89,0.629,-0.1943,0.0736,0.749,0.019,0.012,0.007
2025-11-06 18:34:30.469,126.625,0.154,0.381,-0.247,0.198,-0.369,-0.9510000000000001,75.5,12.8,-82.89,0.6287,-0.1951,0.0734,0.7491,0.0,0.014,0.038
2025-11-06 18:34:30.469,126.63,0.162,0.369,-0.265,0.215,-0.366,-0.963,74.18,13.18,-82.22,0.6283000000000001,-0.19590000000000002,0.0727,0.7493000000000001,-0.013000000000000001,0.011,0.05
2025-11-06 18:34:30.469,126.635,0.181,0.353,-0.275,0.216,-0.378,-0.964,74.18,13.18,-82.22,0.6277,-0.197,0.0724,0.7495,-0.012,0.022,0.051000000000000004
2025-11-06 18:34:30.469,126.64,0.19,0.34,-0.28800000000000003,0.231,-0.391,-0.966,74.8,13.120000000000001,-81.81,0.6267,-0.19870000000000002,0.0722,0.7499,-0.025,0.034,0.055
2025-11-06 18:34:30.469,126.645,0.198,0.319,-0.299,0.241,-0.394,-0.965,74.8,13.120000000000001,-81.81,0.6256,-0.2005,0.0719,0.7504000000000001,-0.031,0.036000000000000004,0.056
2025-11-06 18:34:30.469,126.65,0.203,0.28,-0.318,0.263,-0.405,-0.9560000000000001,74.8,13.120000000000001,-81.81,0.6239,-0.2031,0.0716,0.7511,-0.048,0.044,0.048
2025-11-06 18:34:30.469,126.655,0.203,0.233,-0.328,0.264,-0.41000000000000003,-0.9450000000000001,74.83,13.56,-82.69,0.6222,-0.20570000000000002,0.0717,0.7518,-0.045,0.046,0.04
2025-11-06 18:34:30.469,126.66,0.20600000000000002,0.186,-0.334,0.27,-0.405,-0.935,74.83,13.56,-82.69,0.6205,-0.2082,0.07150000000000001,0.7526,-0.046,0.039,0.031
2025-11-06 18:34:30.469,126.665,0.209,0.14400000000000002,-0.341,0.274,-0.399,-0.93,74.59,13.41,-82.34,0.6187,-0.21050000000000002,0.0712,0.7534000000000001,-0.046,0.031,0.029
2025-11-06 18:34:30.469,126.67,0.20600000000000002,0.107,-0.355,0.263,-0.397,-0.901,74.59,13.41,-82.34,0.6172000000000001,-0.2127,0.0714,0.7541,-0.031,0.027,0.001
2025-11-06 18:34:30.469,126.675,0.192,0.084,-0.379,0.244,-0.378,-0.876,75.59,13.41,-81.35000000000001,0.6159,-0.2141,0.0716,0.7546,-0.009000000000000001,0.006,-0.021
2025-11-06 18:34:30.469,126.68,0.181,0.054,-0.403,0.243,-0.354,-0.857,75.59,13.41,-81.35000000000001,0.6146,-0.2151,0.0711,0.7555000000000001,-0.006,-0.017,-0.039
2025-11-06 18:34:30.469,126.685,0.17300000000000001,0.004,-0.431,0.23700000000000002,-0.34400000000000003,-0.849,75.59,13.41,-81.35000000000001,0.6134000000000001,-0.2156,0.0707,0.7563000000000001,0.001,-0.027,-0.047
2025-11-06 18:34:30.469,126.69,0.169,-0.058,-0.452,0.25,-0.341,-0.859,74.83,13.09,-81.93,0.612,-0.21610000000000001,0.0699,0.7574000000000001,-0.008,-0.029,-0.037
2025-11-06 18:34:30.469,126.695,0.17400000000000002,-0.191,-0.468,0.27,-0.328,-0.885,74.83,13.09,-81.93,0.6102000000000001,-0.2162,0.0683,0.759,-0.026000000000000002,-0.04,-0.011
2025-11-06 18:34:30.469,126.7,0.191,-0.273,-0.468,0.275,-0.332,-0.92,74.68,13.5,-82.05,0.6085,-0.2157,0.0669,0.7606,-0.028,-0.032,0.023
2025-11-06 18:34:30.469,126.705,0.209,-0.342,-0.461,0.28400000000000003,-0.34600000000000003,-0.969,74.68,13.5,-82.05,0.6069,-0.2149,0.0658,0.7622,-0.036000000000000004,-0.015,0.07
2025-11-06 18:34:30.469,126.71,0.22,-0.397,-0.454,0.303,-0.372,-1.0130000000000001,74.51,13.5,-81.87,0.6054,-0.21450000000000002,0.065,0.7636000000000001,-0.055,0.012,0.114
2025-11-06 18:34:30.469,126.715,0.225,-0.433,-0.45,0.315,-0.399,-1.045,74.51,13.38,-81.87,0.6039,-0.2144,0.0648,0.7648,-0.065,0.04,0.145
2025-11-06 18:34:30.469,126.72,0.227,-0.433,-0.446,0.324,-0.40700000000000003,-1.029,74.51,13.38,-81.87,0.6024,-0.215,0.06470000000000001,0.7658,-0.073,0.048,0.13
2025-11-06 18:34:30.469,126.725,0.228,-0.4,-0.447,0.315,-0.392,-1.0010000000000001,74.48,14.06,-81.64,0.6009,-0.2155,0.0644,0.7669,-0.062,0.034,0.10200000000000001
2025-11-06 18:34:30.469,126.73,0.23,-0.356,-0.453,0.296,-0.388,-0.981,74.48,14.06,-81.64,0.5996,-0.21580000000000002,0.0646,0.7678,-0.043000000000000003,0.03,0.082
2025-11-06 18:34:30.469,126.735,0.232,-0.325,-0.461,0.28400000000000003,-0.383,-0.979,74.59,14.38,-82.49,0.5984,-0.2156,0.0649,0.7688,-0.03,0.025,0.081
2025-11-06 18:34:30.469,126.74,0.227,-0.292,-0.456,0.28600000000000003,-0.38,-0.9560000000000001,74.59,14.38,-82.49,0.5972000000000001,-0.2159,0.0651,0.7696000000000001,-0.031,0.022,0.058
2025-11-06 18:34:30.469,126.745,0.215,-0.26,-0.444,0.28400000000000003,-0.366,-0.913,74.59,14.38,-82.49,0.5959,-0.21660000000000001,0.0651,0.7704000000000001,-0.028,0.007,0.016
2025-11-06 18:34:30.469,126.75,0.20700000000000002,-0.212,-0.432,0.277,-0.34,-0.86,74.59,13.82,-81.99,0.5945,-0.21760000000000002,0.0646,0.7713,-0.019,-0.017,-0.036000000000000004
2025-11-06 18:34:30.469,126.755,0.187,-0.153,-0.419,0.27,-0.309,-0.8160000000000001,74.59,13.82,-81.99,0.5929,-0.21830000000000002,0.0634,0.7724000000000001,-0.009000000000000001,-0.048,-0.079
2025-11-06 18:34:30.469,126.76,0.168,-0.122,-0.40800000000000003,0.23600000000000002,-0.247,-0.78,75.0,13.530000000000001,-82.19,0.5910000000000001,-0.2169,0.061200000000000004,0.7745000000000001,0.027,-0.105,-0.117
2025-11-06 18:34:30.469,126.765,0.161,-0.136,-0.40700000000000003,0.217,-0.178,-0.79,75.0,13.530000000000001,-82.19,0.5883,-0.21280000000000002,0.0574,0.778,0.046,-0.164,-0.111
2025-11-06 18:34:30.469,126.77,0.146,-0.196,-0.41500000000000004,0.221,-0.159,-0.8210000000000001,74.91,13.76,-81.75,0.5854,-0.20800000000000002,0.053200000000000004,0.7817000000000001,0.041,-0.17,-0.085
2025-11-06 18:34:30.469,126.775,0.126,-0.272,-0.428,0.224,-0.202,-0.842,74.91,13.76,-81.75,0.5831000000000001,-0.2044,0.050800000000000005,0.7845000000000001,0.037,-0.117,-0.068
2025-11-06 18:34:30.469,126.78,0.125,-0.339,-0.443,0.23,-0.251,-0.8180000000000001,74.91,13.76,-81.75,0.5818,-0.2029,0.050300000000000004,0.7859,0.03,-0.064,-0.093
2025-11-06 18:34:30.469,126.785,0.134,-0.369,-0.492,0.243,-0.371,-0.785,74.42,14.200000000000001,-83.16,0.5819,-0.2058,0.053700000000000005,0.7849,0.017,0.05,-0.125
2025-11-06 18:34:30.469,126.79,0.10300000000000001,-0.343,-0.53,0.25,-0.439,-0.761,74.42,14.200000000000001,-83.16,0.5825,-0.2107,0.058800000000000005,0.7827000000000001,0.01,0.105,-0.14400000000000002
2025-11-06 18:34:30.469,126.795,0.038,-0.305,-0.5670000000000001,0.247,-0.454,-0.754,73.89,14.82,-83.04,0.5830000000000001,-0.2157,0.0639,0.7806000000000001,0.014,0.106,-0.145
2025-11-06 18:34:30.469,126.8,-0.036000000000000004,-0.301,-0.589,0.241,-0.425,-0.748,73.89,14.82,-83.04,0.5830000000000001,-0.21930000000000002,0.0678,0.7792,0.021,0.066,-0.147
2025-11-06 18:34:30.469,126.805,-0.052000000000000005,-0.228,-0.625,0.248,-0.361,-0.779,73.89,14.82,-83.04,0.5820000000000001,-0.22080000000000002,0.0687,0.7795000000000001,0.015,-0.002,-0.113
2025-11-06 18:34:30.469,126.81,-0.073,-0.188,-0.649,0.255,-0.326,-0.793,74.21000000000001,14.96,-83.71000000000001,0.5803,-0.2212,0.06810000000000001,0.7807000000000001,0.01,-0.037,-0.099
2025-11-06 18:34:30.469,126.815,-0.099,-0.155,-0.657,0.26,-0.28500000000000003,-0.805,74.21000000000001,14.96,-83.71000000000001,0.5781000000000001,-0.2205,0.0658,0.7828,0.007,-0.074,-0.088
2025-11-06 18:34:30.469,126.82,-0.10300000000000001,-0.128,-0.659,0.264,-0.256,-0.8290000000000001,74.15,15.52,-83.54,0.5755,-0.21880000000000002,0.0626,0.7854,0.006,-0.095,-0.066
2025-11-06 18:34:30.469,126.825,-0.08700000000000001,-0.14,-0.652,0.249,-0.273,-0.872,74.15,15.52,-83.54,0.5735,-0.2164,0.0606,0.7877000000000001,0.022,-0.07100000000000001,-0.026000000000000002
2025-11-06 18:34:30.469,126.83,-0.07,-0.211,-0.607,0.154,-0.289,-0.906,74.21000000000001,15.69,-82.69,0.5727,-0.21080000000000002,0.061900000000000004,0.7897000000000001,0.11,-0.05,0.004
2025-11-06 18:34:30.469,126.835,-0.06,-0.218,-0.5690000000000001,0.133,-0.28,-0.913,74.21000000000001,15.69,-82.69,0.5721,-0.2046,0.06330000000000001,0.7917000000000001,0.12,-0.054,0.005
2025-11-06 18:34:30.469,126.84,-0.055,-0.216,-0.531,0.131,-0.272,-0.917,74.21000000000001,15.69,-82.69,0.5715,-0.1986,0.0644,0.7935,0.112,-0.058,0.005
2025-11-06 18:34:30.469,126.845,-0.047,-0.24,-0.502,0.146,-0.251,-0.909,75.88,15.81,-83.63,0.5710000000000001,-0.1932,0.06430000000000001,0.7952,0.089,-0.073,-0.006
2025-11-06 18:34:30.469,126.85,-0.009000000000000001,-0.299,-0.46,0.135,-0.222,-0.882,75.88,15.81,-83.63,0.5708,-0.1874,0.0637,0.7968000000000001,0.092,-0.095,-0.038
2025-11-06 18:34:30.469,126.855,0.044,-0.337,-0.41300000000000003,0.124,-0.217,-0.869,73.89,15.55,-83.3,0.5705,-0.1817,0.0636,0.7983,0.094,-0.093,-0.055
2025-11-06 18:34:30.469,126.86,0.081,-0.336,-0.382,0.107,-0.221,-0.861,73.89,15.55,-83.3,0.5699000000000001,-0.17600000000000002,0.0644,0.8,0.10200000000000001,-0.083,-0.067
2025-11-06 18:34:30.469,126.865,0.121,-0.314,-0.357,0.10400000000000001,-0.234,-0.842,73.89,15.55,-83.3,0.5689000000000001,-0.1714,0.066,0.8015,0.097,-0.067,-0.089
2025-11-06 18:34:30.469,126.87,0.162,-0.28300000000000003,-0.338,0.075,-0.23900000000000002,-0.808,73.66,16.01,-83.86,0.5672,-0.1666,0.06910000000000001,0.8035,0.116,-0.06,-0.125
2025-11-06 18:34:30.469,126.875,0.242,-0.231,-0.302,0.056,-0.241,-0.797,73.66,16.01,-83.86,0.5654,-0.1617,0.0728,0.8055,0.124,-0.059000000000000004,-0.139
2025-11-06 18:34:30.469,126.88,0.305,-0.199,-0.28,0.068,-0.244,-0.804,73.75,16.42,-83.33,0.5640000000000001,-0.158,0.0758,0.8069000000000001,0.10200000000000001,-0.056,-0.133
2025-11-06 18:34:30.469,126.885,0.371,-0.164,-0.261,0.077,-0.24,-0.811,73.75,16.42,-83.33,0.5631,-0.1549,0.078,0.8079000000000001,0.08600000000000001,-0.059000000000000004,-0.128
2025-11-06 18:34:30.469,126.89,0.421,-0.114,-0.243,0.08700000000000001,-0.23700000000000002,-0.809,74.15,16.22,-83.8,0.5627,-0.1526,0.07970000000000001,0.8085,0.07,-0.062,-0.131
2025-11-06 18:34:30.469,126.895,0.467,-0.042,-0.219,0.105,-0.23,-0.796,74.15,16.22,-83.8,0.5628000000000001,-0.1514,0.08020000000000001,0.8085,0.049,-0.07,-0.14400000000000002
2025-11-06 18:34:30.469,126.9,0.513,0.035,-0.193,0.124,-0.227,-0.789,74.15,16.22,-83.8,0.5634,-0.1515,0.08,0.8081,0.03,-0.07200000000000001,-0.152
2025-11-06 18:34:30.469,126.905,0.556,0.094,-0.169,0.138,-0.21,-0.775,73.60000000000001,16.1,-83.86,0.5648000000000001,-0.152,0.0785,0.8072,0.017,-0.089,-0.166
2025-11-06 18:34:30.469,126.91,0.605,0.148,-0.14,0.15,-0.187,-0.754,73.60000000000001,16.1,-83.86,0.5672,-0.1531,0.0757,0.8056000000000001,0.008,-0.108,-0.187
2025-11-06 18:34:30.469,126.915,0.663,0.2,-0.117,0.159,-0.159,-0.728,74.01,16.07,-83.48,0.5705,-0.1542,0.07150000000000001,0.8034,0.005,-0.132,-0.213
2025-11-06 18:34:30.469,126.92,0.748,0.258,-0.089,0.17400000000000002,-0.15,-0.705,74.01,16.07,-83.48,0.5740000000000001,-0.1563,0.06670000000000001,0.801,-0.002,-0.137,-0.23600000000000002
2025-11-06 18:34:30.469,126.925,0.8,0.274,-0.08,0.19,-0.145,-0.6950000000000001,74.01,16.07,-83.48,0.5775,-0.15910000000000002,0.061500000000000006,0.7983,-0.009000000000000001,-0.137,-0.246
2025-11-06 18:34:30.469,126.93,0.858,0.268,-0.076,0.198,-0.129,-0.683,74.13,15.34,-82.54,0.5811000000000001,-0.16190000000000002,0.0558,0.7955,-0.008,-0.148,-0.258
2025-11-06 18:34:30.469,126.935,0.92,0.261,-0.081,0.219,-0.133,-0.668,74.13,15.34,-82.54,0.5848,-0.16590000000000002,0.05,0.7924,-0.018000000000000002,-0.14,-0.271
2025-11-06 18:34:30.469,126.94,0.975,0.265,-0.092,0.244,-0.148,-0.648,74.42,15.780000000000001,-82.92,0.5887,-0.17170000000000002,0.0443,0.7885000000000001,-0.03,-0.123,-0.289
2025-11-06 18:34:30.469,126.945,1.0150000000000001,0.29,-0.112,0.27,-0.176,-0.634,74.42,15.780000000000001,-82.92,0.5928,-0.1796,0.0395,0.784,-0.039,-0.097,-0.299
2025-11-06 18:34:30.469,126.95,1.038,0.32,-0.136,0.304,-0.211,-0.627,74.56,15.200000000000001,-82.81,0.5971000000000001,-0.1895,0.0352,0.7786000000000001,-0.055,-0.067,-0.299
2025-11-06 18:34:30.469,126.955,1.073,0.336,-0.147,0.307,-0.225,-0.633,74.56,15.200000000000001,-82.81,0.6005,-0.19890000000000002,0.031900000000000005,0.7737,-0.042,-0.06,-0.28700000000000003
2025-11-06 18:34:30.469,126.96,1.117,0.337,-0.159,0.316,-0.249,-0.643,74.56,15.200000000000001,-82.81,0.6034,-0.2083,0.0297,0.7691,-0.035,-0.045,-0.27
2025-11-06 18:34:30.469,126.965,1.17,0.318,-0.163,0.319,-0.259,-0.664,74.21000000000001,15.280000000000001,-82.19,0.6054,-0.2165,0.028200000000000003,0.7653000000000001,-0.024,-0.043000000000000003,-0.241
2025-11-06 18:34:30.469,126.97,1.2610000000000001,0.266,-0.164,0.328,-0.279,-0.685,74.21000000000001,15.280000000000001,-82.19,0.6069,-0.2243,0.027600000000000003,0.7619,-0.022,-0.033,-0.213
2025-11-06 18:34:30.469,126.975,1.331,0.234,-0.165,0.333,-0.28500000000000003,-0.6890000000000001,74.33,14.200000000000001,-82.22,0.6078,-0.23170000000000002,0.0273,0.7589,-0.017,-0.035,-0.202
2025-11-06 18:34:30.469,126.98,1.4000000000000001,0.20700000000000002,-0.162,0.337,-0.295,-0.686,74.33,14.200000000000001,-82.22,0.6085,-0.2389,0.0275,0.7561,-0.012,-0.034,-0.199
2025-11-06 18:34:30.469,126.985,1.471,0.18,-0.164,0.324,-0.305,-0.6950000000000001,74.33,14.200000000000001,-82.22,0.6089,-0.2451,0.0287,0.7538,0.008,-0.034,-0.184
2025-11-06 18:34:30.469,126.99,1.534,0.163,-0.16,0.304,-0.311,-0.712,74.74,14.41,-82.54,0.6089,-0.2497,0.0309,0.7522000000000001,0.032,-0.037,-0.161
2025-11-06 18:34:30.469,126.995,1.588,0.14400000000000002,-0.153,0.28700000000000003,-0.315,-0.724,74.74,14.41,-82.54,0.6084,-0.25320000000000004,0.033800000000000004,0.7512000000000001,0.051000000000000004,-0.041,-0.145
2025-11-06 18:34:30.469,127.0,1.6500000000000001,0.127,-0.145,0.278,-0.31,-0.715,74.56,13.700000000000001,-81.32000000000001,0.6076,-0.25630000000000003,0.0369,0.7507,0.06,-0.054,-0.151
2025-11-06 18:34:30.471,127.005,1.719,0.125,-0.14200000000000002,0.265,-0.28800000000000003,-0.674,74.56,13.700000000000001,-81.32000000000001,0.6062000000000001,-0.2591,0.0398,0.7508,0.074,-0.083,-0.189
2025-11-06 18:34:30.471,127.01,1.831,0.128,-0.165,0.248,-0.275,-0.628,75.32000000000001,13.88,-81.11,0.6046,-0.262,0.0429,0.7509,0.092,-0.10400000000000001,-0.231
2025-11-06 18:34:30.471,127.015,1.889,0.137,-0.185,0.231,-0.269,-0.608,75.32000000000001,13.88,-81.11,0.6029,-0.2644,0.046400000000000004,0.7512000000000001,0.109,-0.117,-0.248
2025-11-06 18:34:30.471,127.02,1.945,0.14,-0.214,0.212,-0.267,-0.602,75.32000000000001,13.88,-81.11,0.601,-0.266,0.0505,0.7519,0.127,-0.127,-0.251
2025-11-06 18:34:30.471,127.025,1.997,0.129,-0.244,0.20400000000000001,-0.276,-0.604,75.09,13.3,-81.26,0.5992000000000001,-0.2674,0.0551,0.7525000000000001,0.132,-0.125,-0.247
2025-11-06 18:34:30.471,127.03,2.056,0.106,-0.29,0.22,-0.309,-0.622,75.09,13.3,-81.26,0.5978,-0.26990000000000003,0.060000000000000005,0.7523000000000001,0.114,-0.101,-0.225
2025-11-06 18:34:30.471,127.035,2.126,0.059000000000000004,-0.329,0.211,-0.326,-0.619,75.7,12.48,-80.79,0.5966,-0.27240000000000003,0.0656,0.7519,0.12,-0.094,-0.224
2025-11-06 18:34:30.471,127.04,2.178,0.046,-0.366,0.211,-0.342,-0.617,75.7,12.48,-80.79,0.5954,-0.2753,0.07150000000000001,0.7513000000000001,0.117,-0.089,-0.221
2025-11-06 18:34:30.474,127.045,2.22,0.013000000000000001,-0.392,0.217,-0.358,-0.628,75.7,12.48,-81.11,0.5940000000000001,-0.2783,0.07740000000000001,0.7507,0.109,-0.085,-0.20500000000000002
2025-11-06 18:34:30.474,127.05,2.247,-0.033,-0.419,0.212,-0.383,-0.626,74.39,11.8,-81.11,0.5927,-0.28150000000000003,0.084,0.7498,0.11,-0.07200000000000001,-0.202
2025-11-06 18:34:30.474,127.055,2.273,-0.098,-0.445,0.217,-0.4,-0.61,74.39,11.8,-81.11,0.5913,-0.28550000000000003,0.09090000000000001,0.7486,0.10300000000000001,-0.069,-0.211
2025-11-06 18:34:30.474,127.06,2.2880000000000003,-0.128,-0.465,0.22,-0.401,-0.59,74.91,11.48,-80.38,0.5896,-0.2898,0.0974,0.7475,0.098,-0.082,-0.224
2025-11-06 18:34:30.474,127.065,2.318,-0.16,-0.495,0.254,-0.444,-0.579,74.91,11.48,-80.38,0.5870000000000001,-0.2963,0.10400000000000001,0.7461,0.064,-0.054,-0.225
2025-11-06 18:34:30.474,127.07,2.35,-0.20700000000000002,-0.509,0.276,-0.448,-0.578,74.97,11.07,-80.35000000000001,0.5837,-0.303,0.10980000000000001,0.7451,0.046,-0.065,-0.215
2025-11-06 18:34:30.474,127.075,2.3930000000000002,-0.24,-0.513,0.271,-0.467,-0.595,74.97,11.07,-80.35000000000001,0.5808,-0.3088,0.1158,0.7441,0.052000000000000005,-0.06,-0.189
2025-11-06 18:34:30.474,127.08,2.449,-0.254,-0.502,0.278,-0.482,-0.637,74.97,11.07,-80.35000000000001,0.5780000000000001,-0.3133,0.1213,0.7436,0.047,-0.057,-0.138
2025-11-06 18:34:30.474,127.085,2.5,-0.241,-0.483,0.277,-0.498,-0.675,75.21000000000001,10.370000000000001,-80.56,0.5755,-0.31670000000000004,0.12660000000000002,0.7431,0.048,-0.051000000000000004,-0.093
2025-11-06 18:34:30.474,127.09,2.555,-0.214,-0.462,0.272,-0.5,-0.71,75.21000000000001,10.370000000000001,-80.56,0.5733,-0.31880000000000003,0.13140000000000002,0.7431,0.051000000000000004,-0.058,-0.052000000000000005
2025-11-06 18:34:30.474,127.095,2.606,-0.161,-0.437,0.271,-0.521,-0.729,74.89,10.4,-79.97,0.5713,-0.32080000000000003,0.1363,0.7429,0.05,-0.046,-0.029
2025-11-06 18:34:30.474,127.1,2.682,-0.057,-0.41100000000000003,0.277,-0.535,-0.731,74.89,10.4,-79.97,0.5692,-0.32320000000000004,0.14120000000000002,0.7426,0.042,-0.039,-0.02
2025-11-06 18:34:30.474,127.105,2.735,0.012,-0.4,0.273,-0.643,-0.705,74.59,9.790000000000001,-79.21000000000001,0.5672,-0.328,0.149,0.7405,0.043000000000000003,0.055,-0.038
2025-11-06 18:34:30.474,127.11,2.755,0.094,-0.359,0.315,-0.541,-0.6930000000000001,74.59,9.790000000000001,-79.21000000000001,0.5637,-0.3322,0.1526,0.7406,0.003,-0.057,-0.041
2025-11-06 18:34:30.475,127.115,2.801,0.131,-0.325,0.299,-0.584,-0.646,74.59,9.790000000000001,-79.21000000000001,0.5606,-0.3376,0.1582,0.7393000000000001,0.021,-0.024,-0.077
2025-11-06 18:34:30.475,127.12,2.851,0.201,-0.302,0.262,-0.676,-0.612,75.41,8.97,-79.71000000000001,0.5586,-0.3441,0.1673,0.7358,0.057,0.05,-0.097
2025-11-06 18:34:30.475,127.125,2.882,0.246,-0.266,0.219,-0.724,-0.598,75.41,8.97,-79.71000000000001,0.5578000000000001,-0.3501,0.1779,0.7311000000000001,0.095,0.078,-0.096
2025-11-06 18:34:30.475,127.13,2.895,0.244,-0.213,0.171,-0.753,-0.599,75.32000000000001,9.23,-78.8,0.5585,-0.3548,0.1893,0.7254,0.134,0.08700000000000001,-0.08
2025-11-06 18:34:30.475,127.135,2.904,0.194,-0.158,0.136,-0.792,-0.606,75.32000000000001,9.23,-78.8,0.5602,-0.35860000000000003,0.20120000000000002,0.7190000000000001,0.157,0.106,-0.059000000000000004
2025-11-06 18:34:30.475,127.14,2.915,0.11,-0.107,0.12,-0.811,-0.5740000000000001,75.32000000000001,9.23,-78.8,0.5612,-0.3624,0.21380000000000002,0.7126,0.159,0.105,-0.075
2025-11-06 18:34:30.475,127.145,2.8810000000000002,0.068,-0.079,0.137,-0.8230000000000001,-0.509,75.32000000000001,8.06,-77.81,0.5593,-0.36760000000000004,0.2272,0.7073,0.13,0.095,-0.122
2025-11-06 18:34:30.475,127.15,2.7920000000000003,0.107,-0.059000000000000004,0.168,-0.8230000000000001,-0.468,75.32000000000001,8.06,-77.81,0.5547000000000001,-0.37360000000000004,0.24020000000000002,0.7034,0.092,0.075,-0.14200000000000002
2025-11-06 18:34:30.475,127.155,2.682,0.201,-0.046,0.177,-0.842,-0.428,75.03,7.19,-77.60000000000001,0.5488000000000001,-0.38020000000000004,0.2533,0.6999000000000001,0.078,0.075,-0.159
2025-11-06 18:34:30.475,127.16,2.579,0.309,-0.022,0.184,-0.884,-0.437,75.03,7.19,-77.60000000000001,0.5439,-0.3865,0.2651,0.6959000000000001,0.066,0.099,-0.128
2025-11-06 18:34:30.475,127.165,2.512,0.37,0.021,0.184,-0.899,-0.544,75.47,6.66,-77.05,0.5445,-0.3907,0.2717,0.6905,0.061,0.101,-0.005
2025-11-06 18:34:30.475,127.17,2.523,0.363,0.056,0.176,-0.903,-0.602,75.47,6.66,-77.05,0.548,-0.39380000000000004,0.2758,0.6843,0.062,0.096,0.062
2025-11-06 18:34:30.475,127.175,2.5420000000000003,0.34600000000000003,0.089,0.17,-0.931,-0.644,75.47,6.66,-77.05,0.5528000000000001,-0.3962,0.2788,0.6779000000000001,0.06,0.116,0.112
2025-11-06 18:34:30.475,127.18,2.545,0.342,0.122,0.191,-0.867,-0.668,76.0,5.75,-76.61,0.5581,-0.398,0.27890000000000004,0.6724,0.033,0.048,0.14
2025-11-06 18:34:30.475,127.185,2.5540000000000003,0.335,0.179,0.20400000000000001,-0.846,-0.683,76.0,5.75,-76.61,0.5634,-0.3996,0.27790000000000004,0.6674,0.015,0.025,0.156
2025-11-06 18:34:30.475,127.19,2.548,0.289,0.21,0.248,-0.85,-0.662,76.05,5.11,-76.14,0.5656,-0.402,0.27740000000000004,0.6643,-0.028,0.027,0.139
2025-11-06 18:34:30.475,127.195,2.545,0.224,0.213,0.281,-0.842,-0.639,76.05,5.11,-76.14,0.5659000000000001,-0.405,0.27690000000000003,0.6625,-0.058,0.017,0.12
2025-11-06 18:34:30.475,127.2,2.5540000000000003,0.138,0.20600000000000002,0.292,-0.841,-0.608,76.05,5.11,-76.14,0.5647,-0.40840000000000004,0.2772,0.6612,-0.066,0.014,0.094
2025-11-06 18:34:30.475,127.205,2.54,0.074,0.191,0.314,-0.858,-0.5660000000000001,75.73,4.67,-75.97,0.5615,-0.4126,0.2788,0.6607000000000001,-0.083,0.028,0.059000000000000004
2025-11-06 18:34:30.475,127.21,2.477,0.049,0.16,0.362,-0.908,-0.496,75.73,4.67,-75.97,0.5546,-0.4186,0.28240000000000004,0.6612,-0.124,0.07100000000000001,0.003
2025-11-06 18:34:30.475,127.215,2.382,0.09,0.137,0.389,-0.9510000000000001,-0.47500000000000003,75.67,4.0600000000000005,-75.7,0.547,-0.42510000000000003,0.2864,0.6617000000000001,-0.14200000000000002,0.108,-0.003
2025-11-06 18:34:30.475,127.22,2.2720000000000002,0.138,0.12,0.41200000000000003,-0.992,-0.47100000000000003,75.67,4.0600000000000005,-75.7,0.5395,-0.4315,0.2902,0.6621,-0.156,0.14400000000000002,0.009000000000000001
2025-11-06 18:34:30.475,127.225,2.158,0.17500000000000002,0.111,0.423,-1.031,-0.496,76.17,3.74,-74.48,0.5332,-0.437,0.2932,0.6622,-0.159,0.177,0.047
2025-11-06 18:34:30.475,127.23,2.0420000000000003,0.197,0.116,0.426,-1.084,-0.553,76.17,3.74,-74.48,0.5287000000000001,-0.44110000000000005,0.2954,0.6621,-0.156,0.227,0.114
2025-11-06 18:34:30.475,127.235,1.96,0.194,0.145,0.429,-1.113,-0.589,76.17,3.74,-74.48,0.5253,-0.44430000000000003,0.29710000000000003,0.662,-0.154,0.254,0.158
2025-11-06 18:34:30.475,127.24,1.907,0.19,0.165,0.445,-1.118,-0.56,76.67,2.86,-74.04,0.5215000000000001,-0.44780000000000003,0.2989,0.6618,-0.166,0.255,0.137
2025-11-06 18:34:30.475,127.245,1.843,0.20700000000000002,0.17300000000000001,0.462,-1.1,-0.502,76.67,2.86,-74.04,0.5169,-0.45230000000000004,0.3008,0.6615,-0.176,0.23500000000000001,0.09
2025-11-06 18:34:30.475,127.25,1.752,0.257,0.176,0.458,-1.1,-0.47500000000000003,76.11,3.0100000000000002,-73.19,0.5126000000000001,-0.45690000000000003,0.3028,0.6608,-0.166,0.232,0.073
2025-11-06 18:34:30.475,127.255,1.668,0.263,0.20400000000000001,0.426,-1.115,-0.5680000000000001,76.11,3.0100000000000002,-73.19,0.5104000000000001,-0.4585,0.304,0.6608,-0.131,0.246,0.17300000000000001
2025-11-06 18:34:30.475,127.26,1.6340000000000001,0.184,0.249,0.41400000000000003,-1.1340000000000001,-0.643,76.11,3.0100000000000002,-73.19,0.5093,-0.4581,0.3048,0.6616000000000001,-0.11800000000000001,0.264,0.249
2025-11-06 18:34:30.475,127.265,1.592,0.089,0.298,0.396,-1.145,-0.674,75.67,2.92,-72.96000000000001,0.5088,-0.4566,0.3057,0.6625,-0.10200000000000001,0.275,0.279
2025-11-06 18:34:30.475,127.27,1.537,0.009000000000000001,0.335,0.39,-1.112,-0.662,75.67,2.92,-72.96000000000001,0.5083,-0.4549,0.3065,0.6637000000000001,-0.097,0.243,0.265
2025-11-06 18:34:30.475,127.275,1.467,-0.047,0.335,0.371,-1.057,-0.596,76.14,2.36,-72.78,0.5077,-0.454,0.30760000000000004,0.6643,-0.08,0.188,0.198
2025-11-06 18:34:30.475,127.28,1.391,-0.114,0.296,0.328,-1.014,-0.543,76.14,2.36,-72.78,0.5072,-0.453,0.3095,0.6645,-0.039,0.14300000000000002,0.145
2025-11-06 18:34:30.475,127.285,1.324,-0.201,0.265,0.28700000000000003,-1.024,-0.527,76.76,1.84,-72.96000000000001,0.5071,-0.4515,0.3126,0.6642,-0.003,0.151,0.13
2025-11-06 18:34:30.475,127.29,1.2610000000000001,-0.34800000000000003,0.254,0.262,-1.03,-0.545,76.76,1.84,-72.96000000000001,0.5074000000000001,-0.44880000000000003,0.316,0.6642,0.015,0.155,0.148
2025-11-06 18:34:30.475,127.295,1.213,-0.529,0.246,0.254,-1.051,-0.535,76.76,1.84,-72.96000000000001,0.5074000000000001,-0.44620000000000004,0.31980000000000003,0.6641,0.015,0.17400000000000002,0.138
2025-11-06 18:34:30.475,127.3,1.135,-0.679,0.21,0.271,-1.1460000000000001,-0.459,75.29,1.57,-72.46000000000001,0.5059,-0.44580000000000003,0.3256,0.6627000000000001,-0.008,0.265,0.066
2025-11-06 18:34:30.475,127.305,1.048,-0.667,0.18,0.278,-1.042,-0.442,75.29,1.57,-72.46000000000001,0.5046,-0.4455,0.32930000000000004,0.662,-0.02,0.157,0.055
2025-11-06 18:34:30.475,127.31,0.965,-0.612,0.122,0.296,-1.084,-0.382,75.56,0.35000000000000003,-72.14,0.5022,-0.4471,0.33380000000000004,0.6605000000000001,-0.04,0.195,0.002
2025-11-06 18:34:30.475,127.315,0.839,-0.5660000000000001,0.07200000000000001,0.308,-1.1300000000000001,-0.379,75.56,0.35000000000000003,-72.14,0.4998,-0.44880000000000003,0.3381,0.659,-0.054,0.23700000000000002,0.008
2025-11-06 18:34:30.475,127.32,0.68,-0.591,0.048,0.304,-1.166,-0.385,75.56,0.35000000000000003,-72.14,0.49770000000000003,-0.4499,0.3421,0.6577000000000001,-0.052000000000000005,0.269,0.023
2025-11-06 18:34:30.475,127.325,0.561,-0.664,0.045,0.31,-1.182,-0.419,75.82000000000001,0.99,-71.67,0.49620000000000003,-0.45020000000000004,0.3452,0.6571,-0.06,0.28200000000000003,0.062
2025-11-06 18:34:30.475,127.33,0.501,-0.721,0.04,0.313,-1.172,-0.453,75.82000000000001,0.99,-71.67,0.49510000000000004,-0.4496,0.3473,0.6573,-0.066,0.27,0.098
2025-11-06 18:34:30.475,127.335,0.448,-0.745,0.03,0.305,-1.149,-0.47900000000000004,75.67,1.34,-72.61,0.49450000000000005,-0.44820000000000004,0.3486,0.6579,-0.06,0.247,0.125
2025-11-06 18:34:30.475,127.34,0.394,-0.754,0.024,0.296,-1.111,-0.502,75.67,1.34,-72.61,0.49450000000000005,-0.4461,0.34900000000000003,0.6592,-0.052000000000000005,0.21,0.14400000000000002
2025-11-06 18:34:30.475,127.345,0.299,-0.766,0.019,0.249,-1.065,-0.517,75.5,1.31,-72.08,0.4955,-0.4425,0.34940000000000004,0.6605000000000001,-0.009000000000000001,0.164,0.155
2025-11-06 18:34:30.475,127.35,0.241,-0.783,0.016,0.232,-1.047,-0.529,75.5,1.31,-72.08,0.4969,-0.4385,0.3496,0.6621,0.001,0.148,0.16
2025-11-06 18:34:30.475,127.355,0.19,-0.81,0.014,0.222,-1.025,-0.528,75.5,1.31,-72.08,0.4983,-0.4344,0.3497,0.6637000000000001,0.006,0.128,0.152
2025-11-06 18:34:30.475,127.36,0.149,-0.8240000000000001,0.009000000000000001,0.228,-1.0010000000000001,-0.494,75.09,1.1400000000000001,-72.99,0.4989,-0.4312,0.3501,0.6652,-0.003,0.105,0.113
2025-11-06 18:34:30.475,127.365,0.07100000000000001,-0.788,-0.005,0.247,-0.979,-0.443,75.09,1.1400000000000001,-72.99,0.49860000000000004,-0.42960000000000004,0.35050000000000003,0.6662,-0.024,0.083,0.058
2025-11-06 18:34:30.475,127.37,-0.009000000000000001,-0.745,-0.017,0.269,-0.988,-0.423,74.68,1.22,-73.22,0.49760000000000004,-0.42900000000000005,0.3507,0.6672,-0.046,0.093,0.037
2025-11-06 18:34:30.475,127.375,-0.053,-0.739,-0.01,0.272,-1.0150000000000001,-0.451,74.68,1.22,-73.22,0.497,-0.42800000000000005,0.3507,0.6683,-0.048,0.12,0.064
2025-11-06 18:34:30.475,127.38,-0.069,-0.769,0.011,0.257,-1.038,-0.498,74.68,1.22,-73.22,0.49720000000000003,-0.4257,0.3506,0.6697000000000001,-0.035,0.145,0.108
2025-11-06 18:34:30.476,127.385,-0.07,-0.812,0.047,0.232,-1.037,-0.53,75.59,1.54,-73.34,0.4979,-0.42210000000000003,0.3507,0.6713,-0.013000000000000001,0.146,0.134
2025-11-06 18:34:30.476,127.39,-0.112,-0.882,0.094,0.219,-1.014,-0.47700000000000004,75.59,1.54,-73.34,0.498,-0.4192,0.3519,0.6725,-0.004,0.123,0.077
2025-11-06 18:34:30.476,127.395,-0.161,-0.919,0.108,0.21,-0.995,-0.419,76.05,1.28,-73.54,0.49720000000000003,-0.4173,0.3543,0.673,0.0,0.10300000000000001,0.018000000000000002
2025-11-06 18:34:30.476,127.4,-0.20700000000000002,-0.9510000000000001,0.112,0.203,-0.987,-0.391,76.05,1.28,-73.54,0.49610000000000004,-0.4156,0.3573,0.6733,0.003,0.094,-0.008
2025-11-06 18:34:30.476,127.405,-0.23500000000000001,-1.0010000000000001,0.114,0.192,-0.993,-0.385,75.88,1.31,-74.59,0.4949,-0.4138,0.36060000000000003,0.6735,0.009000000000000001,0.098,-0.011
2025-11-06 18:34:30.476,127.41,-0.255,-1.059,0.13,0.169,-0.986,-0.403,75.88,1.31,-74.59,0.4944,-0.41100000000000003,0.3638,0.6739,0.026000000000000002,0.09,0.006
2025-11-06 18:34:30.476,127.415,-0.276,-1.093,0.146,0.15,-0.968,-0.40900000000000003,75.88,1.31,-74.59,0.4943,-0.40750000000000003,0.3669,0.6744,0.037,0.07,0.011
2025-11-06 18:34:30.476,127.42,-0.298,-1.069,0.152,0.147,-0.9520000000000001,-0.391,74.97,0.4,-74.24,0.4939,-0.4045,0.37,0.6748000000000001,0.034,0.053,-0.007
2025-11-06 18:34:30.476,127.425,-0.332,-1.016,0.154,0.146,-0.926,-0.38,74.97,0.4,-74.24,0.49350000000000005,-0.40180000000000005,0.37270000000000003,0.6752,0.029,0.026000000000000002,-0.018000000000000002
2025-11-06 18:34:30.476,127.43,-0.357,-0.974,0.152,0.14300000000000002,-0.899,-0.392,74.77,1.08,-74.53,0.49350000000000005,-0.39890000000000003,0.3744,0.6759000000000001,0.027,0.0,-0.008
2025-11-06 18:34:30.476,127.435,-0.373,-0.973,0.158,0.124,-0.845,-0.418,74.77,1.08,-74.53,0.49500000000000005,-0.395,0.3748,0.677,0.041,-0.053,0.012
2025-11-06 18:34:30.476,127.44,-0.374,-0.99,0.163,0.111,-0.8170000000000001,-0.434,74.01,1.43,-75.47,0.49710000000000004,-0.3905,0.3744,0.6783,0.047,-0.079,0.022
2025-11-06 18:34:30.476,127.445,-0.372,-1.0110000000000001,0.17300000000000001,0.099,-0.78,-0.453,74.01,1.43,-75.47,0.5,-0.38530000000000003,0.37320000000000003,0.6797000000000001,0.053,-0.113,0.031
2025-11-06 18:34:30.476,127.45,-0.368,-1.02,0.17200000000000001,0.093,-0.761,-0.462,74.01,1.43,-75.47,0.5031,-0.3801,0.3715,0.6813,0.051000000000000004,-0.128,0.03
2025-11-06 18:34:30.476,127.455,-0.35000000000000003,-1.025,0.17,0.096,-0.744,-0.467,73.16,1.05,-76.43,0.5061,-0.37510000000000004,0.3695,0.683,0.042,-0.14,0.024
2025-11-06 18:34:30.476,127.46,-0.323,-1.026,0.171,0.106,-0.744,-0.466,73.16,1.05,-76.43,0.5085000000000001,-0.3709,0.3675,0.6846,0.028,-0.137,0.014
2025-11-06 18:34:30.476,127.465,-0.292,-1.0170000000000001,0.17400000000000002,0.113,-0.737,-0.465,72.96000000000001,1.25,-76.05,0.5106,-0.3673,0.3654,0.6861,0.018000000000000002,-0.139,0.004
2025-11-06 18:34:30.476,127.47,-0.254,-1.0090000000000001,0.179,0.11,-0.734,-0.459,72.96000000000001,1.25,-76.05,0.5122,-0.3639,0.3638,0.6875,0.018000000000000002,-0.139,-0.009000000000000001
2025-11-06 18:34:30.476,127.475,-0.212,-1.0,0.177,0.10200000000000001,-0.735,-0.447,72.96000000000001,1.25,-76.05,0.5132,-0.36060000000000003,0.3632,0.6888000000000001,0.022,-0.135,-0.026000000000000002
2025-11-06 18:34:30.476,127.48,-0.154,-0.98,0.169,0.084,-0.741,-0.442,73.16,1.1400000000000001,-77.22,0.5137,-0.35700000000000004,0.3639,0.6900000000000001,0.035,-0.128,-0.036000000000000004
2025-11-06 18:34:30.476,127.485,-0.112,-0.968,0.166,0.078,-0.737,-0.441,73.16,1.1400000000000001,-77.22,0.5141,-0.35350000000000004,0.3648,0.6910000000000001,0.036000000000000004,-0.13,-0.041
2025-11-06 18:34:30.476,127.49,-0.069,-0.966,0.165,0.076,-0.736,-0.436,73.13,0.9,-77.31,0.5142,-0.3503,0.3659,0.6920000000000001,0.033,-0.13,-0.049
2025-11-06 18:34:30.476,127.495,-0.03,-0.961,0.17300000000000001,0.073,-0.739,-0.426,73.13,0.9,-77.31,0.5138,-0.34750000000000003,0.3675,0.6928000000000001,0.031,-0.127,-0.061
2025-11-06 18:34:30.476,127.5,0.022,-0.9420000000000001,0.17300000000000001,0.075,-0.75,-0.41200000000000003,72.34,0.84,-77.31,0.5129,-0.3453,0.3698,0.6933,0.024,-0.116,-0.075
2025-11-06 18:34:30.476,127.505,0.078,-0.924,0.171,0.077,-0.76,-0.402,72.34,0.84,-77.31,0.5115000000000001,-0.3438,0.3725,0.6937,0.019,-0.107,-0.083
2025-11-06 18:34:30.476,127.51,0.13,-0.909,0.178,0.078,-0.765,-0.4,72.34,0.84,-77.31,0.5101,-0.3425,0.37520000000000003,0.6939000000000001,0.014,-0.10400000000000001,-0.083
2025-11-06 18:34:30.476,127.515,0.182,-0.891,0.198,0.082,-0.765,-0.402,72.17,0.78,-78.98,0.5088,-0.3415,0.3775,0.6941,0.008,-0.106,-0.079
2025-11-06 18:34:30.476,127.52,0.224,-0.881,0.224,0.092,-0.77,-0.402,72.17,0.78,-78.98,0.5075000000000001,-0.341,0.3795,0.6942,-0.003,-0.10200000000000001,-0.077
2025-11-06 18:34:30.476,127.525,0.264,-0.86,0.278,0.101,-0.792,-0.395,71.87,0.67,-78.69,0.5058,-0.3412,0.38180000000000003,0.6941,-0.013000000000000001,-0.081,-0.08
2025-11-06 18:34:30.476,127.53,0.278,-0.838,0.316,0.10300000000000001,-0.797,-0.383,71.87,0.67,-78.69,0.5039,-0.3417,0.38430000000000003,0.6938000000000001,-0.016,-0.08,-0.088
2025-11-06 18:34:30.476,127.535,0.291,-0.8190000000000001,0.359,0.108,-0.788,-0.366,71.87,0.67,-78.69,0.5018,-0.3426,0.387,0.6934,-0.021,-0.091,-0.1
2025-11-06 18:34:30.476,127.54,0.289,-0.798,0.399,0.111,-0.779,-0.352,72.75,1.11,-78.63,0.49970000000000003,-0.3438,0.3896,0.6929000000000001,-0.024,-0.10300000000000001,-0.108
2025-11-06 18:34:30.476,127.545,0.3,-0.794,0.45,0.101,-0.769,-0.34900000000000003,72.75,1.11,-78.63,0.4979,-0.34450000000000003,0.39230000000000004,0.6923,-0.014,-0.116,-0.106
2025-11-06 18:34:30.476,127.55,0.329,-0.796,0.501,0.078,-0.78,-0.34700000000000003,71.35000000000001,0.96,-79.01,0.49670000000000003,-0.34440000000000004,0.39580000000000004,0.6913,0.005,-0.108,-0.10200000000000001
2025-11-06 18:34:30.476,127.555,0.359,-0.786,0.537,0.051000000000000004,-0.803,-0.356,71.35000000000001,0.96,-79.01,0.49610000000000004,-0.3433,0.39980000000000004,0.6899000000000001,0.027,-0.088,-0.088
2025-11-06 18:34:30.476,127.56,0.4,-0.777,0.5740000000000001,0.025,-0.8190000000000001,-0.368,71.32000000000001,0.11,-78.63,0.4963,-0.34140000000000004,0.4041,0.6882,0.045,-0.074,-0.07200000000000001
2025-11-06 18:34:30.476,127.565,0.45,-0.764,0.608,-0.003,-0.8140000000000001,-0.386,71.32000000000001,0.11,-78.63,0.4975,-0.33840000000000003,0.4082,0.6864,0.064,-0.082,-0.051000000000000004
2025-11-06 18:34:30.476,127.57,0.539,-0.716,0.639,-0.03,-0.8130000000000001,-0.392,71.32000000000001,0.11,-78.63,0.4994,-0.33490000000000003,0.41250000000000003,0.6842,0.079,-0.085,-0.043000000000000003
2025-11-06 18:34:30.476,127.575,0.603,-0.667,0.651,-0.047,-0.799,-0.396,71.99,0.02,-79.45,0.5018,-0.331,0.4164,0.6819000000000001,0.084,-0.1,-0.037
2025-11-06 18:34:30.476,127.58,0.673,-0.614,0.663,-0.064,-0.785,-0.394,71.99,0.02,-79.45,0.5045000000000001,-0.3271,0.4204,0.6794,0.08700000000000001,-0.115,-0.038
2025-11-06 18:34:30.476,127.585,0.738,-0.532,0.661,-0.075,-0.774,-0.389,70.47,-0.99,-79.68,0.5073,-0.32330000000000003,0.4242,0.6768000000000001,0.085,-0.127,-0.041
2025-11-06 18:34:30.476,127.59,0.8180000000000001,-0.434,0.659,-0.099,-0.734,-0.386,70.47,-0.99,-79.68,0.5111,-0.3189,0.4277,0.6738000000000001,0.096,-0.167,-0.044
2025-11-06 18:34:30.476,127.595,0.897,-0.34700000000000003,0.647,-0.067,-0.74,-0.377,70.47,-0.99,-79.68,0.5135000000000001,-0.3165,0.4305,0.6713,0.053,-0.162,-0.051000000000000004
2025-11-06 18:34:30.476,127.6,0.96,-0.274,0.65,-0.079,-0.7020000000000001,-0.381,70.41,-1.9000000000000001,-79.85000000000001,0.5172,-0.3138,0.4323,0.6686000000000001,0.054,-0.2,-0.047
2025-11-06 18:34:30.476,127.605,1.0170000000000001,-0.218,0.642,-0.069,-0.707,-0.378,70.41,-1.9000000000000001,-79.85000000000001,0.5201,-0.312,0.434,0.666,0.035,-0.195,-0.05
2025-11-06 18:34:30.476,127.61,1.057,-0.156,0.639,-0.049,-0.6920000000000001,-0.391,70.24,-1.84,-79.09,0.5236000000000001,-0.3114,0.4338,0.6637000000000001,0.009000000000000001,-0.209,-0.038
2025-11-06 18:34:30.476,127.615,1.117,-0.10200000000000001,0.637,-0.026000000000000002,-0.686,-0.397,70.24,-1.84,-79.09,0.527,-0.3119,0.4324,0.6616000000000001,-0.016,-0.214,-0.033
2025-11-06 18:34:30.476,127.62,1.137,-0.067,0.629,-0.027,-0.6910000000000001,-0.369,70.0,-2.36,-79.33,0.5289,-0.3126,0.43270000000000003,0.6596000000000001,-0.016,-0.209,-0.061
2025-11-06 18:34:30.476,127.625,1.124,-0.001,0.619,0.016,-0.68,-0.426,70.0,-2.36,-79.33,0.5331,-0.3151,0.4282,0.658,-0.06,-0.219,-0.007
2025-11-06 18:34:30.477,127.63,1.192,-0.037,0.628,0.018000000000000002,-0.6930000000000001,-0.41400000000000003,70.0,-2.36,-79.33,0.5361,-0.3176,0.42510000000000003,0.6563,-0.058,-0.20500000000000002,-0.021
2025-11-06 18:34:30.477,127.635,1.22,-0.044,0.63,0.034,-0.726,-0.389,70.12,-3.27,-77.98,0.5375,-0.32130000000000003,0.4234,0.6545000000000001,-0.069,-0.17300000000000001,-0.045
2025-11-06 18:34:30.477,127.64,1.244,-0.026000000000000002,0.637,0.042,-0.764,-0.377,70.12,-3.27,-77.98,0.5379,-0.3256,0.4228,0.6525000000000001,-0.073,-0.137,-0.053
2025-11-06 18:34:30.477,127.645,1.2770000000000001,-0.001,0.644,0.057,-0.795,-0.365,70.18,-3.12,-77.25,0.5376000000000001,-0.3307,0.42260000000000003,0.6503,-0.083,-0.108,-0.06
2025-11-06 18:34:30.477,127.65,1.304,0.051000000000000004,0.654,0.073,-0.8200000000000001,-0.35100000000000003,70.18,-3.12,-77.25,0.5368,-0.3367,0.42260000000000003,0.6478,-0.092,-0.088,-0.066
2025-11-06 18:34:30.477,127.655,1.335,0.106,0.649,0.096,-0.84,-0.315,70.18,-3.12,-77.25,0.5353,-0.3441,0.4232,0.6448,-0.107,-0.07200000000000001,-0.092
2025-11-06 18:34:30.477,127.66,1.385,0.202,0.646,0.112,-0.889,-0.29,70.0,-3.68,-77.11,0.5331,-0.35250000000000004,0.42450000000000004,0.6412,-0.115,-0.029,-0.10400000000000001
2025-11-06 18:34:30.477,127.665,1.3980000000000001,0.253,0.649,0.11,-0.917,-0.273,70.0,-3.68,-77.11,0.5308,-0.3608,0.4264,0.6372,-0.105,-0.007,-0.106
2025-11-06 18:34:30.477,127.67,1.399,0.293,0.661,0.11,-0.9390000000000001,-0.274,69.62,-4.76,-77.31,0.5287000000000001,-0.3683,0.4283,0.6334000000000001,-0.098,0.008,-0.09
2025-11-06 18:34:30.477,127.675,1.415,0.319,0.655,0.10300000000000001,-1.0130000000000001,-0.262,69.62,-4.76,-77.31,0.5266000000000001,-0.3758,0.4309,0.6289,-0.085,0.076,-0.08700000000000001
2025-11-06 18:34:30.477,127.68,1.451,0.39,0.67,0.07200000000000001,-1.029,-0.276,70.35000000000001,-5.49,-75.91,0.5255000000000001,-0.38170000000000004,0.4338,0.6243000000000001,-0.052000000000000005,0.08700000000000001,-0.059000000000000004
2025-11-06 18:34:30.477,127.685,1.483,0.483,0.658,0.074,-1.111,-0.276,70.35000000000001,-5.49,-75.91,0.5244,-0.38780000000000003,0.4368,0.6195,-0.052000000000000005,0.164,-0.044
2025-11-06 18:34:30.477,127.69,1.5230000000000001,0.533,0.652,0.05,-1.125,-0.306,70.35000000000001,-5.49,-75.91,0.5238,-0.3921,0.4395,0.6152000000000001,-0.028,0.17400000000000002,-0.002
2025-11-06 18:34:30.477,127.695,1.5310000000000001,0.561,0.648,0.036000000000000004,-1.1300000000000001,-0.319,69.21000000000001,-5.7,-75.59,0.5236000000000001,-0.3955,0.442,0.6114,-0.015,0.176,0.021
2025-11-06 18:34:30.477,127.7,1.5290000000000001,0.5680000000000001,0.655,0.066,-1.075,-0.35100000000000003,69.21000000000001,-5.7,-75.59,0.5225000000000001,-0.3976,0.4433,0.6101,-0.044,0.11800000000000001,0.059000000000000004
2025-11-06 18:34:30.477,127.705,1.54,0.487,0.638,0.08,-1.026,-0.362,69.77,-5.99,-74.83,0.5208,-0.39880000000000004,0.444,0.6102000000000001,-0.056,0.069,0.074
2025-11-06 18:34:30.477,127.71,1.54,0.404,0.612,0.093,-1.0170000000000001,-0.34800000000000003,69.77,-5.99,-74.83,0.5188,-0.40040000000000003,0.44470000000000004,0.6104,-0.067,0.059000000000000004,0.063
2025-11-06 18:34:30.477,127.715,1.554,0.326,0.5740000000000001,0.10200000000000001,-1.0050000000000001,-0.332,69.77,-5.99,-74.83,0.5165000000000001,-0.40240000000000004,0.44530000000000003,0.6106,-0.07200000000000001,0.045,0.051000000000000004
2025-11-06 18:34:30.477,127.72,1.564,0.273,0.537,0.12,-0.999,-0.295,69.16,-6.51,-74.91,0.5138,-0.4057,0.4461,0.6101,-0.085,0.038,0.021
2025-11-06 18:34:30.477,127.725,1.58,0.226,0.482,0.155,-0.977,-0.254,69.16,-6.51,-74.91,0.5103,-0.4107,0.4465,0.6093000000000001,-0.112,0.014,-0.01
2025-11-06 18:34:30.477,127.73,1.551,0.194,0.431,0.17,-0.982,-0.23600000000000002,69.39,-7.7700000000000005,-73.45,0.5066,-0.4162,0.4469,0.6084,-0.11900000000000001,0.017,-0.019
2025-11-06 18:34:30.477,127.735,1.493,0.186,0.388,0.189,-1.006,-0.217,69.39,-7.7700000000000005,-73.45,0.5029,-0.4223,0.4471,0.6072000000000001,-0.128,0.039,-0.028
2025-11-06 18:34:30.477,127.74,1.44,0.197,0.364,0.195,-1.033,-0.2,70.03,-7.57,-73.45,0.4994,-0.42860000000000004,0.4475,0.6054,-0.126,0.064,-0.034
2025-11-06 18:34:30.477,127.745,1.4000000000000001,0.227,0.328,0.23800000000000002,-1.058,-0.18,70.03,-7.57,-73.45,0.49520000000000003,-0.4359,0.44730000000000003,0.6038,-0.157,0.08700000000000001,-0.042
2025-11-06 18:34:30.477,127.75,1.334,0.343,0.318,0.252,-1.088,-0.178,70.03,-7.57,-73.45,0.49110000000000004,-0.4428,0.4469,0.6024,-0.16,0.115,-0.032
2025-11-06 18:34:30.478,127.755,1.26,0.436,0.31,0.25,-1.097,-0.193,69.3,-8.21,-73.13,0.48710000000000003,-0.44820000000000004,0.4466,0.6018,-0.148,0.122,-0.007
2025-11-06 18:34:30.478,127.76,1.193,0.506,0.301,0.249,-1.115,-0.20700000000000002,69.3,-8.21,-73.13,0.4833,-0.45230000000000004,0.4464,0.6019,-0.138,0.14,0.014
2025-11-06 18:34:30.478,127.765,1.159,0.533,0.299,0.244,-1.122,-0.209,68.95,-8.21,-72.08,0.47990000000000005,-0.4559,0.4464,0.602,-0.125,0.147,0.022
2025-11-06 18:34:30.478,127.77,1.125,0.55,0.298,0.23,-1.121,-0.201,68.95,-8.21,-72.08,0.4772,-0.45930000000000004,0.4465,0.6015,-0.105,0.145,0.02
2025-11-06 18:34:30.478,127.775,1.069,0.555,0.295,0.212,-1.106,-0.195,68.95,-8.21,-71.49,0.4751,-0.4621,0.44680000000000003,0.6008,-0.082,0.13,0.02
2025-11-06 18:34:30.478,127.78,1.018,0.534,0.293,0.211,-1.094,-0.179,69.01,-8.21,-71.49,0.4733,-0.4652,0.447,0.5996,-0.077,0.117,0.01
2025-11-06 18:34:30.478,127.785,0.962,0.495,0.299,0.201,-1.091,-0.16,69.01,-8.21,-71.49,0.4722,-0.4686,0.4474,0.5976,-0.064,0.113,-0.001
2025-11-06 18:34:30.478,127.79,0.909,0.448,0.296,0.21,-1.077,-0.138,69.3,-9.14,-71.03,0.47100000000000003,-0.47250000000000003,0.4475,0.5954,-0.069,0.099,-0.016
2025-11-06 18:34:30.478,127.795,0.794,0.388,0.289,0.20700000000000002,-1.051,-0.132,69.3,-9.14,-71.03,0.4698,-0.47590000000000005,0.4476,0.5936,-0.063,0.07200000000000001,-0.015
2025-11-06 18:34:30.478,127.8,0.714,0.357,0.27,0.216,-1.039,-0.137,69.42,-8.88,-70.5,0.468,-0.47850000000000004,0.4475,0.5929,-0.069,0.06,-0.004
2025-11-06 18:34:30.478,127.805,0.639,0.333,0.251,0.209,-1.034,-0.136,69.42,-8.88,-70.5,0.4665,-0.4807,0.4476,0.5923,-0.058,0.056,-0.001
2025-11-06 18:34:30.478,127.81,0.5680000000000001,0.326,0.23600000000000002,0.186,-1.036,-0.14400000000000002,69.42,-8.88,-70.5,0.4657,-0.4818,0.448,0.5917,-0.033,0.057,0.01
2025-11-06 18:34:30.478,127.815,0.501,0.325,0.222,0.152,-1.04,-0.181,69.21000000000001,-9.5,-69.74,0.46530000000000005,-0.48040000000000005,0.449,0.5924,0.0,0.061,0.046
2025-11-06 18:34:30.478,127.82,0.44,0.309,0.209,0.135,-1.039,-0.2,69.21000000000001,-9.5,-69.74,0.4652,-0.47790000000000005,0.45020000000000004,0.5936,0.014,0.059000000000000004,0.063
2025-11-06 18:34:30.478,127.825,0.374,0.292,0.20700000000000002,0.11800000000000001,-1.025,-0.213,69.21000000000001,-9.55,-69.62,0.46530000000000005,-0.47450000000000003,0.4515,0.5952000000000001,0.026000000000000002,0.046,0.073
2025-11-06 18:34:30.478,127.83,0.316,0.276,0.20700000000000002,0.116,-1.01,-0.233,69.21000000000001,-9.55,-69.62,0.4652,-0.4703,0.45270000000000005,0.5977,0.025,0.031,0.08700000000000001
2025-11-06 18:34:30.478,127.835,0.272,0.249,0.209,0.116,-0.997,-0.246,69.01,-9.58,-70.06,0.465,-0.46580000000000005,0.4535,0.6007,0.022,0.018000000000000002,0.093
2025-11-06 18:34:30.478,127.84,0.228,0.211,0.20400000000000001,0.114,-1.002,-0.245,69.01,-9.58,-70.06,0.465,-0.46180000000000004,0.45420000000000005,0.6033000000000001,0.021,0.024,0.085
2025-11-06 18:34:30.478,127.845,0.226,0.191,0.2,0.112,-1.006,-0.228,69.01,-9.58,-70.06,0.46530000000000005,-0.45880000000000004,0.4549,0.6049,0.019,0.028,0.064
2025-11-06 18:34:30.478,127.85,0.234,0.16,0.192,0.124,-1.006,-0.197,68.89,-9.5,-69.97,0.4655,-0.4577,0.4554,0.6052000000000001,0.005,0.029,0.031
2025-11-06 18:34:30.478,127.855,0.244,0.133,0.191,0.128,-0.995,-0.166,68.89,-9.5,-69.97,0.4657,-0.45790000000000003,0.456,0.6044,0.0,0.018000000000000002,0.001
2025-11-06 18:34:30.478,127.86,0.23600000000000002,0.094,0.193,0.14100000000000001,-1.006,-0.11900000000000001,69.21000000000001,-9.99,-69.39,0.46590000000000004,-0.46030000000000004,0.4565,0.6021000000000001,-0.012,0.028,-0.04
2025-11-06 18:34:30.478,127.865,0.224,0.042,0.203,0.14100000000000001,-1.0010000000000001,-0.093,69.21000000000001,-9.99,-69.39,0.466,-0.46330000000000005,0.45730000000000004,0.5991000000000001,-0.012,0.021,-0.06
2025-11-06 18:34:30.478,127.87,0.219,-0.011,0.212,0.14,-1.0,-0.068,69.21000000000001,-9.99,-69.39,0.466,-0.46680000000000005,0.45830000000000004,0.5955,-0.012,0.019,-0.077
2025-11-06 18:34:30.478,127.875,0.209,-0.067,0.224,0.136,-0.995,-0.054,69.42,-9.73,-70.21000000000001,0.466,-0.4703,0.4595,0.5918,-0.008,0.013000000000000001,-0.082
2025-11-06 18:34:30.478,127.88,0.2,-0.113,0.23500000000000001,0.133,-0.992,-0.045,69.42,-9.73,-70.21000000000001,0.46590000000000004,-0.4736,0.46090000000000003,0.5882000000000001,-0.005,0.008,-0.082
2025-11-06 18:34:30.478,127.885,0.192,-0.157,0.243,0.127,-0.985,-0.046,68.92,-10.14,-69.89,0.46580000000000005,-0.4763,0.46230000000000004,0.5850000000000001,0.0,0.0,-0.073
2025-11-06 18:34:30.478,127.89,0.184,-0.17200000000000001,0.249,0.117,-0.976,-0.052000000000000005,68.92,-10.14,-69.89,0.46590000000000004,-0.4782,0.46380000000000005,0.5822,0.007,-0.008,-0.06
