System_Time,Timestamp,Gyro_X,Gyro_Y,Gyro_Z,Acc_X,Acc_Y,Acc_Z,Mag_X,Mag_Y,Mag_Z,Quat_W,Quat_X,Quat_Y,Quat_Z,Linear_Acc_X,Linear_Acc_Y,Linear_Acc_Z
2025-11-06 18:37:40.231,323.95,-0.025,0.01,0.0,-0.34800000000000003,-0.936,0.167,7.390000000000001,-6.46,-47.5,0.6053000000000001,-0.7508,-0.048400000000000006,-0.2596,0.0,-0.002,-0.008
2025-11-06 18:37:40.232,323.955,-0.022,0.007,-0.002,-0.34900000000000003,-0.936,0.165,7.390000000000001,-6.46,-47.5,0.6053000000000001,-0.7508,-0.048400000000000006,-0.2596,0.0,-0.001,-0.006
2025-11-06 18:37:40.232,323.96,-0.021,0.0,0.0,-0.34500000000000003,-0.937,0.165,7.62,-6.25,-47.29,0.6053000000000001,-0.7508,-0.048400000000000006,-0.2595,-0.003,0.0,-0.005
2025-11-06 18:37:40.232,323.965,-0.02,-0.002,0.0,-0.34400000000000003,-0.9380000000000001,0.163,7.62,-6.25,-47.29,0.6053000000000001,-0.7508,-0.048400000000000006,-0.2595,-0.004,0.0,-0.004
2025-11-06 18:37:40.232,323.97,-0.023,-0.001,-0.001,-0.34500000000000003,-0.9380000000000001,0.161,7.68,-6.4,-47.44,0.6054,-0.7508,-0.048400000000000006,-0.2594,-0.003,0.0,-0.001
2025-11-06 18:37:40.232,323.975,-0.025,0.001,-0.002,-0.343,-0.9390000000000001,0.159,7.68,-6.4,-47.44,0.6054,-0.7508,-0.048400000000000006,-0.2594,-0.005,0.0,0.0
2025-11-06 18:37:40.232,323.98,-0.028,0.002,-0.001,-0.341,-0.9390000000000001,0.156,7.68,-6.4,-47.44,0.6055,-0.7507,-0.048400000000000006,-0.2594,-0.006,0.0,0.001
2025-11-06 18:37:40.232,323.985,-0.03,0.003,0.0,-0.342,-0.9400000000000001,0.155,7.7700000000000005,-7.01,-47.17,0.6056,-0.7506,-0.048400000000000006,-0.2594,-0.006,0.001,0.002
2025-11-06 18:37:40.232,323.99,-0.029,0.005,-0.002,-0.342,-0.9430000000000001,0.155,7.7700000000000005,-7.01,-47.17,0.6057,-0.7506,-0.048400000000000006,-0.2594,-0.006,0.004,0.002
2025-11-06 18:37:40.232,323.995,-0.028,0.002,-0.001,-0.343,-0.9460000000000001,0.155,8.15,-6.43,-46.82,0.6057,-0.7505000000000001,-0.048400000000000006,-0.2594,-0.005,0.007,0.003
2025-11-06 18:37:40.232,324.0,-0.029,0.0,-0.001,-0.34400000000000003,-0.9470000000000001,0.155,8.15,-6.43,-46.82,0.6058,-0.7505000000000001,-0.048400000000000006,-0.2594,-0.004,0.008,0.002
2025-11-06 18:37:40.232,324.005,-0.029,0.001,0.0,-0.34500000000000003,-0.9480000000000001,0.158,8.15,-6.43,-46.82,0.6059,-0.7504000000000001,-0.048400000000000006,-0.2594,-0.002,0.009000000000000001,0.0
2025-11-06 18:37:40.232,324.01,-0.031,0.002,0.0,-0.34700000000000003,-0.9500000000000001,0.159,7.390000000000001,-6.22,-47.9,0.6059,-0.7504000000000001,-0.048400000000000006,-0.2594,-0.001,0.011,-0.001
2025-11-06 18:37:40.232,324.015,-0.03,0.008,0.001,-0.34800000000000003,-0.9520000000000001,0.161,7.390000000000001,-6.22,-47.9,0.606,-0.7503000000000001,-0.048400000000000006,-0.2594,0.0,0.013000000000000001,-0.003
2025-11-06 18:37:40.232,324.02,-0.03,0.008,0.0,-0.352,-0.9540000000000001,0.163,7.68,-6.25,-47.5,0.606,-0.7503000000000001,-0.048400000000000006,-0.2594,0.003,0.015,-0.005
2025-11-06 18:37:40.232,324.025,-0.03,0.011,0.001,-0.353,-0.9540000000000001,0.166,7.68,-6.25,-47.5,0.6061000000000001,-0.7502000000000001,-0.048400000000000006,-0.2594,0.004,0.015,-0.008
2025-11-06 18:37:40.232,324.03,-0.027,0.015,0.0,-0.353,-0.9550000000000001,0.166,7.68,-6.25,-47.5,0.6061000000000001,-0.7502000000000001,-0.048400000000000006,-0.2595,0.005,0.016,-0.008
2025-11-06 18:37:40.232,324.035,-0.029,0.018000000000000002,0.0,-0.354,-0.9540000000000001,0.167,7.65,-6.3100000000000005,-47.38,0.6062000000000001,-0.7501,-0.048400000000000006,-0.2595,0.005,0.015,-0.009000000000000001
2025-11-06 18:37:40.232,324.04,-0.031,0.012,0.0,-0.353,-0.9530000000000001,0.167,7.65,-6.3100000000000005,-47.38,0.6063000000000001,-0.7501,-0.048400000000000006,-0.2595,0.005,0.014,-0.01
2025-11-06 18:37:40.232,324.045,-0.032,0.013000000000000001,-0.001,-0.352,-0.9510000000000001,0.168,7.92,-6.43,-47.17,0.6063000000000001,-0.75,-0.048400000000000006,-0.2596,0.003,0.012,-0.011
2025-11-06 18:37:40.232,324.05,-0.033,0.004,0.0,-0.35000000000000003,-0.9500000000000001,0.168,7.92,-6.43,-47.17,0.6064,-0.75,-0.048400000000000006,-0.2596,0.002,0.011,-0.011
2025-11-06 18:37:40.232,324.055,-0.033,0.01,0.0,-0.35000000000000003,-0.9460000000000001,0.169,7.92,-6.43,-47.17,0.6064,-0.7499,-0.048400000000000006,-0.2596,0.001,0.008,-0.012
2025-11-06 18:37:40.232,324.06,-0.031,0.01,0.0,-0.34800000000000003,-0.9460000000000001,0.166,7.8,-6.3100000000000005,-46.56,0.6065,-0.7499,-0.048400000000000006,-0.2596,0.0,0.007,-0.009000000000000001
2025-11-06 18:37:40.232,324.065,-0.033,0.01,-0.001,-0.34900000000000003,-0.9440000000000001,0.164,7.8,-6.3100000000000005,-46.56,0.6065,-0.7498,-0.048400000000000006,-0.2596,0.0,0.005,-0.007
2025-11-06 18:37:40.232,324.07,-0.033,0.004,-0.001,-0.34800000000000003,-0.9400000000000001,0.164,8.74,-7.74,-47.550000000000004,0.6066,-0.7498,-0.0483,-0.2596,0.0,0.002,-0.008
2025-11-06 18:37:40.232,324.075,-0.029,0.008,-0.001,-0.34900000000000003,-0.9390000000000001,0.161,8.74,-7.74,-47.550000000000004,0.6066,-0.7497,-0.0483,-0.2596,0.0,0.0,-0.005
2025-11-06 18:37:40.232,324.08,-0.028,0.006,-0.002,-0.34900000000000003,-0.9380000000000001,0.16,8.74,-7.74,-47.550000000000004,0.6067,-0.7497,-0.0483,-0.2596,0.0,0.0,-0.004
2025-11-06 18:37:40.232,324.085,-0.028,0.001,0.0,-0.34900000000000003,-0.9390000000000001,0.159,7.48,-5.99,-47.58,0.6067,-0.7497,-0.0483,-0.2596,0.001,0.0,-0.003
2025-11-06 18:37:40.232,324.09,-0.028,0.0,0.0,-0.34900000000000003,-0.9390000000000001,0.157,7.48,-5.99,-47.58,0.6067,-0.7496,-0.0483,-0.2596,0.0,0.0,-0.001
2025-11-06 18:37:40.232,324.095,-0.025,0.004,0.0,-0.34800000000000003,-0.9400000000000001,0.155,8.15,-6.63,-47.58,0.6068,-0.7496,-0.0483,-0.2596,0.0,0.001,0.0
2025-11-06 18:37:40.232,324.1,-0.022,0.005,0.0,-0.34800000000000003,-0.9390000000000001,0.154,8.15,-6.63,-47.58,0.6068,-0.7496,-0.0483,-0.2597,0.0,0.0,0.0
2025-11-06 18:37:40.232,324.105,-0.021,0.009000000000000001,0.0,-0.34800000000000003,-0.937,0.154,8.15,-6.63,-47.58,0.6069,-0.7495,-0.0483,-0.2597,0.0,-0.001,0.001
2025-11-06 18:37:40.232,324.11,-0.023,0.011,-0.002,-0.34900000000000003,-0.937,0.154,7.92,-5.93,-47.52,0.6069,-0.7495,-0.0483,-0.2597,0.001,-0.001,0.0
2025-11-06 18:37:40.232,324.115,-0.025,0.012,-0.002,-0.35100000000000003,-0.936,0.154,7.92,-5.93,-47.52,0.607,-0.7494000000000001,-0.0483,-0.25980000000000003,0.002,-0.003,0.0
2025-11-06 18:37:40.232,324.12,-0.028,0.012,-0.003,-0.35100000000000003,-0.935,0.154,8.790000000000001,-6.1000000000000005,-47.47,0.607,-0.7494000000000001,-0.0483,-0.25980000000000003,0.003,-0.004,0.0
2025-11-06 18:37:40.232,324.125,-0.027,0.015,0.0,-0.352,-0.934,0.154,8.790000000000001,-6.1000000000000005,-47.47,0.6071000000000001,-0.7493000000000001,-0.0483,-0.25980000000000003,0.003,-0.004,0.0
2025-11-06 18:37:40.232,324.13,-0.026000000000000002,0.008,-0.001,-0.352,-0.935,0.154,8.790000000000001,-6.1000000000000005,-47.47,0.6071000000000001,-0.7493000000000001,-0.0483,-0.2599,0.003,-0.004,0.0
2025-11-06 18:37:40.232,324.135,-0.026000000000000002,0.009000000000000001,0.0,-0.353,-0.937,0.156,7.86,-6.34,-47.730000000000004,0.6071000000000001,-0.7492000000000001,-0.0482,-0.2599,0.004,-0.001,-0.002
2025-11-06 18:37:40.232,324.14,-0.03,0.009000000000000001,-0.002,-0.353,-0.9400000000000001,0.157,7.86,-6.34,-47.730000000000004,0.6072000000000001,-0.7492000000000001,-0.0482,-0.2599,0.004,0.001,-0.002
2025-11-06 18:37:40.233,324.145,-0.029,0.008,0.001,-0.355,-0.9410000000000001,0.158,7.86,-6.34,-47.730000000000004,0.6072000000000001,-0.7491,-0.0482,-0.26,0.006,0.002,-0.004
2025-11-06 18:37:40.233,324.15,-0.029,0.005,0.001,-0.354,-0.9430000000000001,0.16,7.890000000000001,-6.08,-47.230000000000004,0.6073000000000001,-0.7491,-0.0482,-0.26,0.005,0.004,-0.006
2025-11-06 18:37:40.233,324.155,-0.025,0.004,0.0,-0.355,-0.9470000000000001,0.16,7.890000000000001,-6.08,-47.230000000000004,0.6073000000000001,-0.7491,-0.0482,-0.26,0.006,0.008,-0.006
2025-11-06 18:37:40.233,324.16,-0.023,-0.001,0.001,-0.356,-0.9490000000000001,0.158,7.7700000000000005,-6.08,-47.44,0.6074,-0.749,-0.0482,-0.26,0.007,0.009000000000000001,-0.004
2025-11-06 18:37:40.233,324.165,-0.019,0.005,0.002,-0.357,-0.9510000000000001,0.156,7.7700000000000005,-6.08,-47.44,0.6074,-0.749,-0.0482,-0.26,0.008,0.011,-0.003
2025-11-06 18:37:40.233,324.17,-0.016,0.006,0.001,-0.356,-0.9530000000000001,0.156,7.7700000000000005,-6.08,-47.44,0.6074,-0.749,-0.0482,-0.26,0.007,0.013000000000000001,-0.003
2025-11-06 18:37:40.233,324.175,-0.02,0.008,0.0,-0.356,-0.9520000000000001,0.159,8.88,-6.22,-47.88,0.6074,-0.7489,-0.0482,-0.26,0.007,0.013000000000000001,-0.005
2025-11-06 18:37:40.233,324.18,-0.022,0.013000000000000001,0.002,-0.354,-0.9520000000000001,0.162,8.88,-6.22,-47.88,0.6075,-0.7489,-0.0482,-0.2601,0.005,0.013000000000000001,-0.008
2025-11-06 18:37:40.233,324.185,-0.025,0.008,0.001,-0.352,-0.9500000000000001,0.162,8.44,-7.2700000000000005,-46.85,0.6075,-0.7488,-0.048100000000000004,-0.2601,0.003,0.01,-0.008
2025-11-06 18:37:40.233,324.19,-0.025,0.016,0.002,-0.352,-0.9500000000000001,0.161,8.44,-7.2700000000000005,-46.85,0.6076,-0.7488,-0.048100000000000004,-0.2601,0.003,0.011,-0.008
2025-11-06 18:37:40.233,324.195,-0.028,0.018000000000000002,0.004,-0.35000000000000003,-0.9470000000000001,0.16,8.44,-7.2700000000000005,-46.85,0.6076,-0.7487,-0.0482,-0.2602,0.001,0.007,-0.007
2025-11-06 18:37:40.233,324.2,-0.034,0.026000000000000002,0.004,-0.34700000000000003,-0.9450000000000001,0.158,7.71,-6.25,-47.26,0.6077,-0.7487,-0.0482,-0.2602,-0.001,0.005,-0.005
2025-11-06 18:37:40.233,324.205,-0.034,0.027,0.008,-0.34600000000000003,-0.9430000000000001,0.158,7.71,-6.25,-47.26,0.6077,-0.7486,-0.0482,-0.26030000000000003,-0.002,0.004,-0.006
2025-11-06 18:37:40.233,324.21,-0.04,0.027,0.011,-0.34400000000000003,-0.9420000000000001,0.156,7.86,-6.22,-47.44,0.6078,-0.7485,-0.0482,-0.2604,-0.004,0.003,-0.004
2025-11-06 18:37:40.233,324.215,-0.041,0.026000000000000002,0.013000000000000001,-0.343,-0.9410000000000001,0.155,7.86,-6.22,-47.44,0.6079,-0.7485,-0.0482,-0.2604,-0.005,0.001,-0.003
2025-11-06 18:37:40.233,324.22,-0.041,0.026000000000000002,0.016,-0.342,-0.9400000000000001,0.156,7.86,-6.22,-47.44,0.6079,-0.7484000000000001,-0.0482,-0.2605,-0.007,0.001,-0.004
2025-11-06 18:37:40.233,324.225,-0.039,0.026000000000000002,0.018000000000000002,-0.343,-0.9420000000000001,0.158,7.62,-6.08,-47.52,0.608,-0.7483000000000001,-0.048100000000000004,-0.2606,-0.005,0.003,-0.006
2025-11-06 18:37:40.233,324.23,-0.032,0.022,0.023,-0.342,-0.9410000000000001,0.158,7.62,-6.08,-47.52,0.608,-0.7483000000000001,-0.048100000000000004,-0.2606,-0.006,0.002,-0.006
2025-11-06 18:37:40.233,324.235,-0.025,0.026000000000000002,0.022,-0.343,-0.9420000000000001,0.159,8.03,-6.84,-47.67,0.608,-0.7482000000000001,-0.048100000000000004,-0.2607,-0.005,0.002,-0.008
2025-11-06 18:37:40.233,324.24,-0.024,0.023,0.024,-0.34500000000000003,-0.9420000000000001,0.157,8.03,-6.84,-47.67,0.6081,-0.7482000000000001,-0.048100000000000004,-0.2607,-0.004,0.002,-0.006
2025-11-06 18:37:40.233,324.245,-0.017,0.026000000000000002,0.023,-0.34700000000000003,-0.9430000000000001,0.156,8.03,-6.84,-47.67,0.6081,-0.7482000000000001,-0.048100000000000004,-0.26080000000000003,-0.002,0.004,-0.005
2025-11-06 18:37:40.233,324.25,-0.016,0.032,0.024,-0.34800000000000003,-0.9440000000000001,0.155,7.42,-6.3100000000000005,-47.32,0.6081,-0.7481,-0.048100000000000004,-0.2609,0.0,0.005,-0.004
2025-11-06 18:37:40.233,324.255,-0.02,0.033,0.019,-0.35100000000000003,-0.9440000000000001,0.154,7.42,-6.3100000000000005,-47.32,0.6081,-0.7481,-0.048100000000000004,-0.261,0.001,0.004,-0.003
2025-11-06 18:37:40.233,324.26,-0.024,0.033,0.018000000000000002,-0.352,-0.9430000000000001,0.153,7.51,-8.21,-47.230000000000004,0.6081,-0.748,-0.048100000000000004,-0.2611,0.001,0.004,-0.002
2025-11-06 18:37:40.233,324.265,-0.026000000000000002,0.032,0.016,-0.353,-0.9430000000000001,0.152,7.51,-8.21,-47.230000000000004,0.6082000000000001,-0.748,-0.048100000000000004,-0.2612,0.003,0.004,-0.001
2025-11-06 18:37:40.233,324.27,-0.031,0.041,0.012,-0.353,-0.9430000000000001,0.15,7.51,-8.21,-47.230000000000004,0.6082000000000001,-0.7479,-0.048100000000000004,-0.26130000000000003,0.003,0.004,0.0
2025-11-06 18:37:40.233,324.275,-0.028,0.042,0.011,-0.352,-0.9420000000000001,0.149,7.95,-6.13,-48.11,0.6082000000000001,-0.7478,-0.048100000000000004,-0.2614,0.001,0.003,0.0
2025-11-06 18:37:40.233,324.28,-0.026000000000000002,0.039,0.008,-0.35100000000000003,-0.9430000000000001,0.147,7.95,-6.13,-48.11,0.6083000000000001,-0.7477,-0.048100000000000004,-0.2615,0.001,0.004,0.002
2025-11-06 18:37:40.233,324.285,-0.023,0.032,0.007,-0.352,-0.9440000000000001,0.147,7.45,-6.19,-47.12,0.6083000000000001,-0.7477,-0.048100000000000004,-0.2616,0.002,0.005,0.002
2025-11-06 18:37:40.233,324.29,-0.022,0.03,0.008,-0.353,-0.9450000000000001,0.149,7.45,-6.19,-47.12,0.6084,-0.7476,-0.048100000000000004,-0.2616,0.003,0.005,0.0
2025-11-06 18:37:40.233,324.295,-0.019,0.023,0.007,-0.35000000000000003,-0.9460000000000001,0.15,7.45,-6.19,-47.12,0.6084,-0.7476,-0.0482,-0.2617,0.0,0.006,0.0
2025-11-06 18:37:40.233,324.3,-0.018000000000000002,0.018000000000000002,0.008,-0.35000000000000003,-0.9450000000000001,0.149,7.890000000000001,-6.3100000000000005,-47.32,0.6084,-0.7475,-0.0482,-0.2617,0.0,0.005,0.0
2025-11-06 18:37:40.233,324.305,-0.02,0.013000000000000001,0.012,-0.34800000000000003,-0.9480000000000001,0.151,7.890000000000001,-6.3100000000000005,-47.32,0.6084,-0.7475,-0.048100000000000004,-0.26180000000000003,-0.002,0.008,-0.001
2025-11-06 18:37:40.233,324.31,-0.018000000000000002,0.012,0.01,-0.34600000000000003,-0.9490000000000001,0.15,7.71,-6.43,-47.06,0.6085,-0.7475,-0.048100000000000004,-0.26180000000000003,-0.004,0.01,0.0
2025-11-06 18:37:40.233,324.315,-0.02,0.005,0.013000000000000001,-0.34500000000000003,-0.9500000000000001,0.15,7.71,-6.43,-47.06,0.6085,-0.7474000000000001,-0.048100000000000004,-0.2619,-0.005,0.01,-0.001
2025-11-06 18:37:40.233,324.32,-0.017,0.01,0.016,-0.342,-0.9500000000000001,0.152,7.71,-6.43,-47.06,0.6085,-0.7474000000000001,-0.048100000000000004,-0.2619,-0.008,0.011,-0.003
2025-11-06 18:37:40.233,324.325,-0.016,0.008,0.017,-0.341,-0.9500000000000001,0.152,7.57,-6.4,-47.47,0.6086,-0.7474000000000001,-0.048100000000000004,-0.2619,-0.009000000000000001,0.01,-0.003
2025-11-06 18:37:40.233,324.33,-0.012,0.009000000000000001,0.018000000000000002,-0.34,-0.9490000000000001,0.152,7.57,-6.4,-47.47,0.6086,-0.7474000000000001,-0.048100000000000004,-0.2619,-0.01,0.01,-0.003
2025-11-06 18:37:40.233,324.335,-0.014,0.007,0.018000000000000002,-0.339,-0.9500000000000001,0.154,7.74,-6.51,-47.550000000000004,0.6086,-0.7473000000000001,-0.048,-0.262,-0.011,0.01,-0.005
2025-11-06 18:37:40.233,324.34,-0.014,0.013000000000000001,0.017,-0.34,-0.9500000000000001,0.153,7.74,-6.51,-47.550000000000004,0.6086,-0.7473000000000001,-0.048,-0.262,-0.011,0.011,-0.004
2025-11-06 18:37:40.233,324.345,-0.017,0.01,0.018000000000000002,-0.339,-0.9510000000000001,0.152,7.74,-6.51,-47.550000000000004,0.6086,-0.7473000000000001,-0.048,-0.262,-0.011,0.011,-0.004
2025-11-06 18:37:40.233,324.35,-0.02,0.013000000000000001,0.018000000000000002,-0.341,-0.9500000000000001,0.152,7.8,-6.08,-47.85,0.6087,-0.7473000000000001,-0.048,-0.2621,-0.009000000000000001,0.011,-0.004
2025-11-06 18:37:40.233,324.355,-0.019,0.013000000000000001,0.018000000000000002,-0.341,-0.9490000000000001,0.151,7.8,-6.08,-47.85,0.6087,-0.7472000000000001,-0.048,-0.2621,-0.009000000000000001,0.01,-0.002
2025-11-06 18:37:40.233,324.36,-0.02,0.014,0.016,-0.343,-0.9490000000000001,0.15,7.45,-6.22,-47.47,0.6087,-0.7472000000000001,-0.047900000000000005,-0.2622,-0.007,0.01,-0.001
2025-11-06 18:37:40.233,324.365,-0.022,0.012,0.016,-0.34600000000000003,-0.9480000000000001,0.147,7.45,-6.22,-47.47,0.6087,-0.7471,-0.047900000000000005,-0.2622,-0.004,0.008,0.0
2025-11-06 18:37:40.233,324.37,-0.022,0.012,0.014,-0.34700000000000003,-0.9470000000000001,0.14200000000000002,7.45,-6.22,-47.47,0.6088,-0.7471,-0.047900000000000005,-0.26230000000000003,-0.004,0.007,0.005
2025-11-06 18:37:40.233,324.375,-0.022,0.012,0.012,-0.34700000000000003,-0.9460000000000001,0.14,7.65,-6.08,-47.35,0.6088,-0.747,-0.047900000000000005,-0.26230000000000003,-0.003,0.007,0.007
2025-11-06 18:37:40.233,324.38,-0.019,0.008,0.012,-0.34800000000000003,-0.9450000000000001,0.138,7.65,-6.08,-47.35,0.6089,-0.747,-0.047900000000000005,-0.26230000000000003,-0.002,0.005,0.009000000000000001
2025-11-06 18:37:40.234,324.385,-0.019,0.009000000000000001,0.012,-0.34800000000000003,-0.9470000000000001,0.138,7.24,-7.86,-48.43,0.6089,-0.7469,-0.047900000000000005,-0.2624,-0.002,0.007,0.008
2025-11-06 18:37:40.234,324.39,-0.017,0.009000000000000001,0.011,-0.352,-0.9440000000000001,0.139,7.24,-7.86,-48.43,0.609,-0.7469,-0.0478,-0.2624,0.001,0.005,0.007
2025-11-06 18:37:40.234,324.395,-0.019,0.003,0.01,-0.352,-0.9440000000000001,0.14,7.24,-7.86,-48.43,0.609,-0.7468,-0.0478,-0.2624,0.001,0.005,0.006
2025-11-06 18:37:40.234,324.4,-0.019,0.004,0.007,-0.354,-0.9450000000000001,0.14100000000000001,7.51,-6.72,-48.230000000000004,0.6091,-0.7468,-0.0478,-0.2625,0.002,0.006,0.005
2025-11-06 18:37:40.234,324.405,-0.018000000000000002,-0.002,0.007,-0.354,-0.9430000000000001,0.14100000000000001,7.51,-6.72,-48.230000000000004,0.6091,-0.7468,-0.0477,-0.2625,0.003,0.004,0.005
2025-11-06 18:37:40.234,324.41,-0.015,-0.003,0.007,-0.355,-0.9430000000000001,0.14100000000000001,7.51,-6.72,-48.230000000000004,0.6091,-0.7467,-0.0477,-0.2625,0.003,0.003,0.005
2025-11-06 18:37:40.234,324.415,-0.017,-0.01,0.005,-0.353,-0.9440000000000001,0.14,8.59,-6.66,-47.88,0.6092000000000001,-0.7467,-0.0477,-0.2625,0.002,0.004,0.005
2025-11-06 18:37:40.234,324.42,-0.016,-0.009000000000000001,0.005,-0.353,-0.9430000000000001,0.14200000000000002,8.59,-6.66,-47.88,0.6092000000000001,-0.7467,-0.0476,-0.2625,0.001,0.004,0.004
2025-11-06 18:37:40.234,324.425,-0.017,-0.014,0.002,-0.353,-0.9430000000000001,0.14200000000000002,7.62,-6.4,-47.7,0.6093000000000001,-0.7466,-0.0476,-0.2625,0.001,0.003,0.004
2025-11-06 18:37:40.234,324.43,-0.015,-0.015,0.001,-0.352,-0.9430000000000001,0.14400000000000002,7.62,-6.4,-47.7,0.6093000000000001,-0.7466,-0.0476,-0.2625,0.0,0.003,0.002
2025-11-06 18:37:40.234,324.435,-0.015,-0.016,0.0,-0.35100000000000003,-0.9430000000000001,0.14400000000000002,7.62,-6.4,-47.7,0.6094,-0.7466,-0.0475,-0.2624,0.0,0.004,0.002
2025-11-06 18:37:40.234,324.44,-0.013000000000000001,-0.019,-0.003,-0.35000000000000003,-0.9440000000000001,0.14400000000000002,8.18,-6.86,-48.28,0.6094,-0.7466,-0.0475,-0.2624,-0.001,0.004,0.002
2025-11-06 18:37:40.234,324.445,-0.016,-0.022,-0.003,-0.34800000000000003,-0.9450000000000001,0.145,8.18,-6.86,-48.28,0.6094,-0.7466,-0.0475,-0.26230000000000003,-0.003,0.005,0.001
2025-11-06 18:37:40.234,324.45,-0.015,-0.022,-0.002,-0.34800000000000003,-0.9460000000000001,0.145,7.71,-6.69,-48.4,0.6095,-0.7465,-0.047400000000000005,-0.26230000000000003,-0.002,0.007,0.001
2025-11-06 18:37:40.234,324.455,-0.014,-0.025,0.0,-0.34700000000000003,-0.9450000000000001,0.14400000000000002,7.71,-6.69,-48.4,0.6095,-0.7465,-0.047400000000000005,-0.2622,-0.003,0.005,0.001
2025-11-06 18:37:40.234,324.46,-0.012,-0.022,-0.001,-0.34600000000000003,-0.9440000000000001,0.146,7.71,-6.69,-48.4,0.6096,-0.7465,-0.047400000000000005,-0.2622,-0.005,0.004,0.0
2025-11-06 18:37:40.234,324.465,-0.008,-0.02,-0.002,-0.34600000000000003,-0.9440000000000001,0.145,7.54,-6.890000000000001,-47.410000000000004,0.6096,-0.7465,-0.047400000000000005,-0.2621,-0.005,0.004,0.0
2025-11-06 18:37:40.234,324.47,-0.008,-0.024,0.0,-0.34600000000000003,-0.9430000000000001,0.146,7.54,-6.890000000000001,-47.410000000000004,0.6096,-0.7465,-0.0473,-0.262,-0.004,0.003,0.0
2025-11-06 18:37:40.234,324.475,-0.006,-0.019,-0.002,-0.34800000000000003,-0.9430000000000001,0.146,8.65,-8.06,-47.76,0.6096,-0.7465,-0.0473,-0.262,-0.003,0.003,0.0
2025-11-06 18:37:40.234,324.48,0.0,-0.022,0.0,-0.35000000000000003,-0.9430000000000001,0.146,8.65,-8.06,-47.76,0.6096,-0.7465,-0.0473,-0.2619,-0.001,0.003,0.0
2025-11-06 18:37:40.234,324.485,-0.001,-0.022,-0.002,-0.34900000000000003,-0.9440000000000001,0.145,8.65,-8.06,-47.76,0.6097,-0.7466,-0.0473,-0.2619,-0.002,0.004,0.0
2025-11-06 18:37:40.234,324.49,0.001,-0.025,-0.001,-0.352,-0.9440000000000001,0.14400000000000002,7.65,-6.6000000000000005,-48.230000000000004,0.6097,-0.7466,-0.0472,-0.26180000000000003,0.0,0.004,0.002
2025-11-06 18:37:40.234,324.495,0.004,-0.02,0.0,-0.354,-0.9440000000000001,0.14400000000000002,7.65,-6.6000000000000005,-48.230000000000004,0.6097,-0.7466,-0.0472,-0.26180000000000003,0.003,0.005,0.001
2025-11-06 18:37:40.234,324.5,0.004,-0.02,-0.002,-0.354,-0.9450000000000001,0.14300000000000002,8.21,-7.33,-48.28,0.6097,-0.7466,-0.0472,-0.2617,0.003,0.005,0.002
2025-11-06 18:37:40.234,324.505,0.004,-0.019,-0.002,-0.354,-0.9440000000000001,0.14200000000000002,8.21,-7.33,-48.28,0.6097,-0.7466,-0.0472,-0.2617,0.002,0.004,0.004
2025-11-06 18:37:40.234,324.51,0.002,-0.017,-0.003,-0.356,-0.9430000000000001,0.14100000000000001,8.21,-7.33,-48.28,0.6097,-0.7466,-0.0471,-0.2617,0.005,0.003,0.004
2025-11-06 18:37:40.234,324.515,0.004,-0.02,-0.003,-0.356,-0.9430000000000001,0.14100000000000001,7.65,-6.98,-47.99,0.6097,-0.7466,-0.0471,-0.2617,0.004,0.003,0.004
2025-11-06 18:37:40.234,324.52,0.002,-0.021,-0.005,-0.357,-0.9440000000000001,0.14100000000000001,7.65,-6.98,-47.99,0.6097,-0.7466,-0.0471,-0.2616,0.006,0.005,0.004
2025-11-06 18:37:40.234,324.525,0.002,-0.021,-0.003,-0.358,-0.9440000000000001,0.14200000000000002,7.74,-6.72,-47.730000000000004,0.6097,-0.7466,-0.0471,-0.2616,0.007,0.004,0.003
2025-11-06 18:37:40.234,324.53,0.001,-0.024,-0.005,-0.358,-0.9440000000000001,0.14300000000000002,7.74,-6.72,-47.730000000000004,0.6097,-0.7467,-0.047,-0.2615,0.007,0.005,0.003
2025-11-06 18:37:40.234,324.535,0.002,-0.022,-0.002,-0.357,-0.9470000000000001,0.14400000000000002,7.74,-6.72,-47.730000000000004,0.6097,-0.7467,-0.047,-0.2615,0.006,0.007,0.002
2025-11-06 18:37:40.234,324.54,0.001,-0.026000000000000002,0.0,-0.357,-0.9480000000000001,0.14400000000000002,7.3,-6.25,-48.230000000000004,0.6097,-0.7467,-0.047,-0.2614,0.006,0.008,0.001
2025-11-06 18:37:40.234,324.545,0.001,-0.03,0.001,-0.359,-0.9470000000000001,0.14400000000000002,7.3,-6.25,-48.230000000000004,0.6097,-0.7467,-0.046900000000000004,-0.2614,0.008,0.007,0.001
2025-11-06 18:37:40.234,324.55,0.001,-0.032,0.004,-0.357,-0.9470000000000001,0.14400000000000002,8.3,-6.890000000000001,-47.67,0.6097,-0.7467,-0.046900000000000004,-0.26130000000000003,0.006,0.007,0.001
2025-11-06 18:37:40.234,324.555,0.001,-0.032,0.004,-0.356,-0.9470000000000001,0.146,8.3,-6.890000000000001,-47.67,0.6097,-0.7468,-0.0468,-0.26130000000000003,0.005,0.007,0.0
2025-11-06 18:37:40.234,324.56,0.001,-0.027,0.007,-0.355,-0.9450000000000001,0.145,8.3,-6.890000000000001,-47.67,0.6097,-0.7468,-0.046700000000000005,-0.26130000000000003,0.004,0.005,0.0
2025-11-06 18:37:40.234,324.565,-0.001,-0.033,0.008,-0.354,-0.9460000000000001,0.14400000000000002,7.95,-7.92,-48.050000000000004,0.6097,-0.7468,-0.046700000000000005,-0.2612,0.003,0.006,0.002
2025-11-06 18:37:40.234,324.57,0.0,-0.026000000000000002,0.01,-0.353,-0.9440000000000001,0.146,7.95,-7.92,-48.050000000000004,0.6097,-0.7468,-0.0466,-0.2612,0.002,0.004,0.0
2025-11-06 18:37:40.234,324.575,0.001,-0.028,0.01,-0.353,-0.9430000000000001,0.147,7.83,-6.75,-47.32,0.6097,-0.7468,-0.0466,-0.2611,0.002,0.004,0.0
2025-11-06 18:37:40.234,324.58,0.004,-0.025,0.013000000000000001,-0.353,-0.9410000000000001,0.147,7.83,-6.75,-47.32,0.6097,-0.7469,-0.0465,-0.2611,0.002,0.001,0.0
2025-11-06 18:37:40.234,324.585,0.007,-0.026000000000000002,0.012,-0.354,-0.9410000000000001,0.148,7.83,-6.75,-47.32,0.6096,-0.7469,-0.046400000000000004,-0.2611,0.003,0.002,-0.001
2025-11-06 18:37:40.234,324.59,0.011,-0.025,0.014,-0.353,-0.9400000000000001,0.148,7.42,-6.4,-47.44,0.6096,-0.7469,-0.046400000000000004,-0.2611,0.002,0.0,-0.001
2025-11-06 18:37:40.234,324.595,0.017,-0.03,0.013000000000000001,-0.356,-0.9400000000000001,0.149,7.42,-6.4,-47.44,0.6096,-0.747,-0.0463,-0.261,0.004,0.001,-0.002
2025-11-06 18:37:40.234,324.6,0.019,-0.028,0.014,-0.356,-0.9390000000000001,0.15,7.22,-6.66,-47.47,0.6095,-0.747,-0.046200000000000005,-0.261,0.004,0.0,-0.003
2025-11-06 18:37:40.234,324.605,0.024,-0.024,0.013000000000000001,-0.357,-0.9390000000000001,0.151,7.22,-6.66,-47.47,0.6095,-0.7471,-0.046200000000000005,-0.261,0.005,0.0,-0.004
2025-11-06 18:37:40.236,324.61,0.031,-0.025,0.012,-0.359,-0.937,0.152,7.22,-6.66,-47.47,0.6094,-0.7472000000000001,-0.0461,-0.2609,0.007,-0.001,-0.004
2025-11-06 18:37:40.236,324.615,0.033,-0.032,0.012,-0.359,-0.937,0.15,7.62,-6.8100000000000005,-47.26,0.6093000000000001,-0.7473000000000001,-0.0461,-0.2609,0.007,-0.002,-0.002
2025-11-06 18:37:40.236,324.62,0.039,-0.025,0.012,-0.359,-0.936,0.15,7.62,-6.8100000000000005,-47.26,0.6092000000000001,-0.7473000000000001,-0.046,-0.2609,0.007,-0.002,-0.002
2025-11-06 18:37:40.236,324.625,0.04,-0.03,0.015,-0.359,-0.935,0.15,7.71,-6.75,-47.52,0.6091,-0.7474000000000001,-0.046,-0.2609,0.007,-0.003,-0.001
2025-11-06 18:37:40.236,324.63,0.047,-0.035,0.014,-0.357,-0.935,0.148,7.71,-6.75,-47.52,0.609,-0.7475,-0.0459,-0.26080000000000003,0.005,-0.003,0.0
2025-11-06 18:37:40.236,324.635,0.054,-0.035,0.014,-0.355,-0.936,0.146,7.71,-6.75,-47.52,0.6089,-0.7476,-0.0459,-0.26080000000000003,0.003,-0.002,0.002
2025-11-06 18:37:40.236,324.64,0.059000000000000004,-0.038,0.018000000000000002,-0.353,-0.937,0.146,7.390000000000001,-6.3100000000000005,-47.67,0.6088,-0.7478,-0.0458,-0.2607,0.001,-0.001,0.003
2025-11-06 18:37:40.236,324.645,0.064,-0.041,0.021,-0.35000000000000003,-0.937,0.146,7.390000000000001,-6.3100000000000005,-47.67,0.6087,-0.7479,-0.0458,-0.2607,-0.001,0.0,0.002
2025-11-06 18:37:40.236,324.65,0.068,-0.042,0.023,-0.34700000000000003,-0.9390000000000001,0.145,7.62,-6.6000000000000005,-47.99,0.6085,-0.748,-0.045700000000000005,-0.2606,-0.004,0.0,0.004
2025-11-06 18:37:40.236,324.655,0.068,-0.046,0.023,-0.34700000000000003,-0.9390000000000001,0.146,7.62,-6.6000000000000005,-47.99,0.6084,-0.7482000000000001,-0.0456,-0.2606,-0.004,0.001,0.003
2025-11-06 18:37:40.236,324.66,0.068,-0.046,0.024,-0.34500000000000003,-0.9400000000000001,0.149,7.62,-6.6000000000000005,-47.99,0.6082000000000001,-0.7483000000000001,-0.0456,-0.2605,-0.007,0.001,0.001
2025-11-06 18:37:40.236,324.665,0.07100000000000001,-0.047,0.027,-0.34400000000000003,-0.9410000000000001,0.152,7.74,-6.8100000000000005,-47.82,0.6081,-0.7484000000000001,-0.0455,-0.2604,-0.008,0.003,0.0
2025-11-06 18:37:40.236,324.67,0.07,-0.049,0.027,-0.343,-0.9420000000000001,0.154,7.74,-6.8100000000000005,-47.82,0.608,-0.7486,-0.0454,-0.26030000000000003,-0.009000000000000001,0.004,-0.003
2025-11-06 18:37:40.236,324.675,0.07,-0.047,0.027,-0.343,-0.9460000000000001,0.155,7.74,-6.8100000000000005,-47.76,0.6078,-0.7487,-0.0454,-0.26030000000000003,-0.008,0.008,-0.002
2025-11-06 18:37:40.236,324.68,0.07200000000000001,-0.043000000000000003,0.025,-0.34500000000000003,-0.9480000000000001,0.157,7.65,-6.86,-47.76,0.6077,-0.7489,-0.0453,-0.2602,-0.007,0.01,-0.004
2025-11-06 18:37:40.236,324.685,0.07200000000000001,-0.044,0.025,-0.34500000000000003,-0.9490000000000001,0.158,7.65,-6.86,-47.76,0.6075,-0.749,-0.045200000000000004,-0.2602,-0.006,0.011,-0.004
2025-11-06 18:37:40.236,324.69,0.07100000000000001,-0.044,0.021,-0.34800000000000003,-0.9500000000000001,0.158,7.2700000000000005,-6.75,-47.47,0.6074,-0.7492000000000001,-0.045200000000000004,-0.2601,-0.003,0.012,-0.004
2025-11-06 18:37:40.236,324.695,0.074,-0.042,0.019,-0.35000000000000003,-0.9500000000000001,0.158,7.2700000000000005,-6.75,-47.47,0.6072000000000001,-0.7493000000000001,-0.0451,-0.26,-0.001,0.012,-0.004
2025-11-06 18:37:40.236,324.7,0.07100000000000001,-0.045,0.02,-0.353,-0.9510000000000001,0.158,7.2700000000000005,-6.75,-47.47,0.6071000000000001,-0.7495,-0.0451,-0.26,0.001,0.013000000000000001,-0.003
2025-11-06 18:37:40.236,324.705,0.075,-0.051000000000000004,0.017,-0.356,-0.9510000000000001,0.156,7.48,-6.63,-47.58,0.6069,-0.7496,-0.045000000000000005,-0.2599,0.003,0.013000000000000001,-0.001
2025-11-06 18:37:40.236,324.71,0.076,-0.051000000000000004,0.017,-0.354,-0.9500000000000001,0.156,7.48,-6.63,-47.58,0.6068,-0.7498,-0.045000000000000005,-0.25980000000000003,0.001,0.012,-0.001
2025-11-06 18:37:40.236,324.715,0.077,-0.049,0.019,-0.357,-0.9500000000000001,0.154,7.22,-6.54,-47.67,0.6066,-0.7499,-0.0449,-0.2597,0.004,0.012,0.001
2025-11-06 18:37:40.236,324.72,0.08,-0.052000000000000005,0.021,-0.356,-0.9470000000000001,0.155,7.22,-6.54,-47.67,0.6065,-0.7501,-0.0448,-0.2597,0.003,0.01,0.0
2025-11-06 18:37:40.236,324.725,0.081,-0.053,0.023,-0.357,-0.9460000000000001,0.158,7.22,-6.54,-47.67,0.6063000000000001,-0.7502000000000001,-0.0448,-0.2596,0.004,0.009000000000000001,-0.001
2025-11-06 18:37:40.236,324.73,0.08,-0.053,0.026000000000000002,-0.355,-0.9450000000000001,0.159,8.71,-7.2700000000000005,-47.410000000000004,0.6061000000000001,-0.7504000000000001,-0.044700000000000004,-0.2595,0.002,0.007,-0.002
2025-11-06 18:37:40.236,324.735,0.079,-0.057,0.029,-0.356,-0.9430000000000001,0.159,8.71,-7.2700000000000005,-47.410000000000004,0.606,-0.7506,-0.0446,-0.2594,0.003,0.006,-0.001
2025-11-06 18:37:40.236,324.74,0.082,-0.051000000000000004,0.03,-0.357,-0.9390000000000001,0.159,7.42,-7.390000000000001,-46.97,0.6058,-0.7507,-0.044500000000000005,-0.2594,0.004,0.002,-0.001
2025-11-06 18:37:40.236,324.745,0.084,-0.054,0.032,-0.357,-0.9380000000000001,0.158,7.42,-7.390000000000001,-46.97,0.6056,-0.7509,-0.0444,-0.25930000000000003,0.003,0.001,0.0
2025-11-06 18:37:40.236,324.75,0.081,-0.059000000000000004,0.033,-0.357,-0.935,0.157,7.42,-7.390000000000001,-46.97,0.6054,-0.7511,-0.0443,-0.2592,0.003,-0.001,0.0
2025-11-06 18:37:40.236,324.755,0.079,-0.061,0.033,-0.355,-0.934,0.159,7.19,-6.51,-46.910000000000004,0.6053000000000001,-0.7512000000000001,-0.0442,-0.2592,0.001,-0.002,0.0
2025-11-06 18:37:40.236,324.76,0.078,-0.063,0.032,-0.353,-0.932,0.158,7.19,-6.51,-46.910000000000004,0.6051000000000001,-0.7514000000000001,-0.0441,-0.2591,0.0,-0.004,0.0
2025-11-06 18:37:40.236,324.765,0.079,-0.063,0.03,-0.352,-0.932,0.158,7.33,-6.86,-47.29,0.6049,-0.7516,-0.044000000000000004,-0.259,-0.001,-0.003,0.001
2025-11-06 18:37:40.236,324.77,0.081,-0.066,0.029,-0.35000000000000003,-0.934,0.158,7.33,-6.86,-47.29,0.6048,-0.7517,-0.0439,-0.2589,-0.003,-0.002,0.002
2025-11-06 18:37:40.236,324.775,0.079,-0.069,0.026000000000000002,-0.34900000000000003,-0.935,0.156,7.33,-6.86,-47.29,0.6046,-0.7519,-0.0438,-0.25880000000000003,-0.004,0.0,0.004
2025-11-06 18:37:40.236,324.78,0.084,-0.07100000000000001,0.025,-0.34800000000000003,-0.936,0.156,7.6000000000000005,-6.4,-47.0,0.6045,-0.7521,-0.0437,-0.2587,-0.006,0.0,0.005
2025-11-06 18:37:40.236,324.785,0.084,-0.074,0.021,-0.34700000000000003,-0.9380000000000001,0.154,7.6000000000000005,-6.4,-47.0,0.6043000000000001,-0.7523000000000001,-0.0436,-0.2586,-0.006,0.002,0.007
2025-11-06 18:37:40.236,324.79,0.082,-0.07100000000000001,0.018000000000000002,-0.34500000000000003,-0.9400000000000001,0.159,7.42,-6.4,-47.7,0.6041000000000001,-0.7524000000000001,-0.0436,-0.2584,-0.008,0.004,0.003
2025-11-06 18:37:40.236,324.795,0.079,-0.067,0.013000000000000001,-0.34600000000000003,-0.9410000000000001,0.161,7.42,-6.4,-47.7,0.604,-0.7526,-0.043500000000000004,-0.25830000000000003,-0.007,0.005,0.001
2025-11-06 18:37:40.236,324.8,0.078,-0.062,0.013000000000000001,-0.34400000000000003,-0.9430000000000001,0.162,7.42,-6.4,-47.7,0.6038,-0.7528,-0.0434,-0.2582,-0.009000000000000001,0.007,0.001
2025-11-06 18:37:40.236,324.805,0.076,-0.061,0.013000000000000001,-0.34600000000000003,-0.9440000000000001,0.163,7.33,-6.43,-47.550000000000004,0.6037,-0.7529,-0.0434,-0.2581,-0.007,0.008,0.0
2025-11-06 18:37:40.236,324.81,0.074,-0.061,0.012,-0.34600000000000003,-0.9460000000000001,0.162,7.33,-6.43,-47.550000000000004,0.6036,-0.7531,-0.043300000000000005,-0.258,-0.007,0.01,0.002
2025-11-06 18:37:40.236,324.815,0.073,-0.058,0.011,-0.34900000000000003,-0.9480000000000001,0.161,7.48,-6.72,-47.0,0.6034,-0.7532,-0.043300000000000005,-0.2579,-0.004,0.013000000000000001,0.004
2025-11-06 18:37:40.236,324.82,0.067,-0.057,0.012,-0.35100000000000003,-0.9490000000000001,0.16,7.48,-6.72,-47.0,0.6033000000000001,-0.7534000000000001,-0.0432,-0.25780000000000003,-0.002,0.013000000000000001,0.005
2025-11-06 18:37:40.236,324.825,0.061,-0.057,0.011,-0.352,-0.9520000000000001,0.16,7.48,-6.72,-47.0,0.6032000000000001,-0.7535000000000001,-0.0431,-0.2577,-0.001,0.016,0.005
2025-11-06 18:37:40.237,324.83,0.057,-0.062,0.011,-0.355,-0.9520000000000001,0.16,7.92,-6.98,-47.58,0.6031000000000001,-0.7536,-0.0431,-0.2575,0.001,0.017,0.006
2025-11-06 18:37:40.237,324.835,0.059000000000000004,-0.063,0.012,-0.355,-0.9520000000000001,0.162,7.92,-6.98,-47.58,0.603,-0.7538,-0.043000000000000003,-0.2574,0.001,0.017,0.004
2025-11-06 18:37:40.237,324.84,0.061,-0.073,0.012,-0.357,-0.9500000000000001,0.164,7.2700000000000005,-6.95,-46.85,0.6028,-0.7539,-0.0429,-0.25730000000000003,0.003,0.014,0.002
2025-11-06 18:37:40.237,324.845,0.062,-0.08,0.013000000000000001,-0.357,-0.9470000000000001,0.169,7.2700000000000005,-6.95,-46.85,0.6027,-0.7541,-0.042800000000000005,-0.25720000000000004,0.003,0.012,-0.001
2025-11-06 18:37:40.237,324.85,0.064,-0.08600000000000001,0.013000000000000001,-0.357,-0.9460000000000001,0.17,7.2700000000000005,-6.95,-46.85,0.6026,-0.7542,-0.0427,-0.257,0.003,0.011,-0.002
2025-11-06 18:37:40.237,324.855,0.07,-0.08,0.015,-0.357,-0.9450000000000001,0.169,7.36,-6.92,-47.14,0.6025,-0.7544000000000001,-0.0426,-0.2569,0.002,0.01,0.0
2025-11-06 18:37:40.237,324.86,0.07100000000000001,-0.083,0.016,-0.357,-0.9450000000000001,0.168,7.36,-6.92,-47.14,0.6023000000000001,-0.7545000000000001,-0.0425,-0.25670000000000004,0.003,0.01,0.001
2025-11-06 18:37:40.237,324.865,0.079,-0.081,0.016,-0.359,-0.9430000000000001,0.168,7.45,-6.72,-47.230000000000004,0.6022000000000001,-0.7547,-0.0424,-0.2566,0.004,0.008,0.001
2025-11-06 18:37:40.237,324.87,0.079,-0.079,0.016,-0.356,-0.9400000000000001,0.166,7.45,-6.72,-47.230000000000004,0.602,-0.7549,-0.042300000000000004,-0.2565,0.001,0.006,0.003
2025-11-06 18:37:40.237,324.875,0.08700000000000001,-0.081,0.016,-0.356,-0.9380000000000001,0.165,7.45,-6.72,-47.230000000000004,0.6019,-0.7551,-0.0422,-0.25630000000000003,0.001,0.003,0.005
2025-11-06 18:37:40.237,324.88,0.084,-0.08600000000000001,0.016,-0.356,-0.937,0.163,7.04,-6.63,-47.06,0.6017,-0.7553000000000001,-0.042100000000000005,-0.25620000000000004,0.002,0.003,0.007
2025-11-06 18:37:40.237,324.885,0.084,-0.085,0.015,-0.355,-0.935,0.163,7.04,-6.63,-47.06,0.6015,-0.7554000000000001,-0.042,-0.256,0.001,0.001,0.008
2025-11-06 18:37:40.237,324.89,0.083,-0.09,0.014,-0.354,-0.937,0.163,8.24,-6.98,-47.06,0.6014,-0.7556,-0.0419,-0.2559,0.0,0.002,0.008
2025-11-06 18:37:40.237,324.895,0.082,-0.093,0.013000000000000001,-0.354,-0.936,0.165,8.24,-6.98,-47.06,0.6012000000000001,-0.7558,-0.041800000000000004,-0.25570000000000004,0.0,0.001,0.007
2025-11-06 18:37:40.237,324.9,0.083,-0.091,0.011,-0.354,-0.934,0.167,8.24,-6.98,-47.06,0.6011000000000001,-0.756,-0.0417,-0.2555,0.0,0.0,0.005
2025-11-06 18:37:40.237,324.905,0.083,-0.096,0.015,-0.353,-0.935,0.168,7.07,-6.51,-46.74,0.6009,-0.7562,-0.0415,-0.2554,0.0,0.001,0.005
2025-11-06 18:37:40.237,324.91,0.081,-0.096,0.014,-0.352,-0.934,0.17,7.07,-6.51,-46.74,0.6008,-0.7564000000000001,-0.0414,-0.25520000000000004,-0.002,0.0,0.003
2025-11-06 18:37:40.237,324.915,0.083,-0.099,0.014,-0.354,-0.935,0.17300000000000001,7.45,-6.63,-47.2,0.6006,-0.7565000000000001,-0.0413,-0.255,0.0,0.001,0.001
2025-11-06 18:37:40.237,324.92,0.084,-0.098,0.016,-0.353,-0.934,0.17400000000000002,7.45,-6.63,-47.2,0.6004,-0.7567,-0.0412,-0.2549,-0.001,0.0,0.0
2025-11-06 18:37:40.237,324.925,0.081,-0.10200000000000001,0.016,-0.355,-0.935,0.17400000000000002,7.45,-6.63,-47.2,0.6003000000000001,-0.7569,-0.041100000000000005,-0.25470000000000004,0.001,0.001,0.001
2025-11-06 18:37:40.237,324.93,0.083,-0.098,0.019,-0.355,-0.936,0.177,7.01,-6.63,-46.88,0.6001000000000001,-0.7571,-0.0409,-0.2545,0.001,0.002,-0.001
2025-11-06 18:37:40.237,324.935,0.078,-0.10200000000000001,0.022,-0.354,-0.937,0.18,7.01,-6.63,-46.88,0.6,-0.7573000000000001,-0.0408,-0.2543,0.0,0.003,-0.002
2025-11-06 18:37:40.237,324.94,0.078,-0.10200000000000001,0.023,-0.355,-0.937,0.182,6.95,-6.63,-47.230000000000004,0.5998,-0.7575000000000001,-0.040600000000000004,-0.25420000000000004,0.001,0.003,-0.004
2025-11-06 18:37:40.237,324.945,0.076,-0.10200000000000001,0.025,-0.356,-0.9380000000000001,0.183,6.95,-6.13,-47.230000000000004,0.5997,-0.7577,-0.0405,-0.254,0.001,0.005,-0.005
2025-11-06 18:37:40.237,324.95,0.07200000000000001,-0.10200000000000001,0.026000000000000002,-0.355,-0.9380000000000001,0.185,6.95,-6.13,-47.230000000000004,0.5995,-0.7579,-0.0403,-0.2538,0.001,0.005,-0.006
2025-11-06 18:37:40.237,324.955,0.07,-0.10400000000000001,0.029,-0.355,-0.9390000000000001,0.185,7.42,-6.25,-47.35,0.5994,-0.758,-0.0402,-0.25370000000000004,0.0,0.006,-0.005
2025-11-06 18:37:40.237,324.96,0.07100000000000001,-0.10200000000000001,0.03,-0.353,-0.9400000000000001,0.183,7.42,-6.25,-47.35,0.5992000000000001,-0.7582,-0.04,-0.2535,0.0,0.007,-0.004
2025-11-06 18:37:40.237,324.965,0.07200000000000001,-0.10200000000000001,0.031,-0.352,-0.9410000000000001,0.185,7.42,-6.25,-47.35,0.5991000000000001,-0.7584000000000001,-0.039900000000000005,-0.2533,-0.001,0.008,-0.005
2025-11-06 18:37:40.237,324.97,0.073,-0.11,0.034,-0.352,-0.9430000000000001,0.184,7.6000000000000005,-7.57,-47.58,0.5989,-0.7586,-0.0397,-0.25320000000000004,-0.002,0.01,-0.003
2025-11-06 18:37:40.237,324.975,0.08,-0.109,0.033,-0.35100000000000003,-0.9450000000000001,0.183,7.6000000000000005,-7.57,-47.58,0.5988,-0.7588,-0.0395,-0.253,-0.002,0.012,-0.002
2025-11-06 18:37:40.237,324.98,0.083,-0.116,0.032,-0.35000000000000003,-0.9450000000000001,0.184,7.22,-6.54,-46.71,0.5986,-0.759,-0.0393,-0.2528,-0.004,0.013000000000000001,-0.002
2025-11-06 18:37:40.237,324.985,0.084,-0.123,0.033,-0.34900000000000003,-0.9470000000000001,0.183,7.22,-6.54,-46.71,0.5984,-0.7592,-0.0391,-0.2526,-0.005,0.015,0.0
2025-11-06 18:37:40.237,324.99,0.089,-0.13,0.031,-0.34800000000000003,-0.9460000000000001,0.184,7.22,-6.54,-46.71,0.5982000000000001,-0.7594000000000001,-0.039,-0.2524,-0.006,0.014,0.0
2025-11-06 18:37:40.237,324.995,0.093,-0.14,0.027,-0.34600000000000003,-0.9450000000000001,0.183,7.22,-6.57,-46.68,0.5981000000000001,-0.7597,-0.0388,-0.25220000000000004,-0.008,0.013000000000000001,0.0
2025-11-06 18:37:40.237,325.0,0.097,-0.151,0.026000000000000002,-0.343,-0.9420000000000001,0.183,7.22,-6.57,-46.68,0.5979,-0.7599,-0.0386,-0.2519,-0.011,0.01,0.001
2025-11-06 18:37:40.237,325.005,0.097,-0.162,0.024,-0.342,-0.9400000000000001,0.185,6.98,-6.1000000000000005,-47.5,0.5977,-0.7601,-0.0383,-0.2516,-0.012,0.009000000000000001,0.0
2025-11-06 18:37:40.237,325.01,0.101,-0.165,0.019,-0.34,-0.936,0.188,6.98,-6.1000000000000005,-47.5,0.5975,-0.7604000000000001,-0.0381,-0.2513,-0.013000000000000001,0.005,-0.001
2025-11-06 18:37:40.237,325.015,0.1,-0.17500000000000002,0.014,-0.335,-0.933,0.191,6.98,-6.1000000000000005,-47.5,0.5973,-0.7607,-0.0379,-0.251,-0.018000000000000002,0.001,-0.004
2025-11-06 18:37:40.237,325.02,0.097,-0.193,0.01,-0.33,-0.927,0.193,6.3100000000000005,-6.3100000000000005,-47.52,0.5971000000000001,-0.7609,-0.037700000000000004,-0.2506,-0.024,-0.003,-0.006
2025-11-06 18:37:40.237,325.025,0.099,-0.20600000000000002,0.005,-0.325,-0.923,0.195,6.3100000000000005,-6.3100000000000005,-47.52,0.597,-0.7612,-0.0375,-0.25020000000000003,-0.028,-0.007,-0.007
2025-11-06 18:37:40.237,325.03,0.10300000000000001,-0.22,0.007,-0.322,-0.918,0.198,6.63,-6.8100000000000005,-46.59,0.5968,-0.7615000000000001,-0.037200000000000004,-0.24980000000000002,-0.032,-0.012,-0.009000000000000001
2025-11-06 18:37:40.237,325.035,0.11,-0.229,0.005,-0.317,-0.915,0.203,6.63,-6.8100000000000005,-46.59,0.5966,-0.7618,-0.0369,-0.24930000000000002,-0.036000000000000004,-0.014,-0.013000000000000001
2025-11-06 18:37:40.237,325.04,0.115,-0.242,0.004,-0.313,-0.912,0.20600000000000002,6.63,-6.8100000000000005,-46.59,0.5964,-0.7622,-0.0366,-0.24880000000000002,-0.04,-0.017,-0.015
2025-11-06 18:37:40.237,325.045,0.117,-0.254,0.004,-0.309,-0.91,0.20700000000000002,6.890000000000001,-6.34,-46.79,0.5962000000000001,-0.7625000000000001,-0.0363,-0.24830000000000002,-0.044,-0.019,-0.016
2025-11-06 18:37:40.237,325.05,0.125,-0.272,0.004,-0.306,-0.908,0.216,6.890000000000001,-6.34,-46.79,0.596,-0.7629,-0.036000000000000004,-0.24780000000000002,-0.047,-0.021,-0.023
2025-11-06 18:37:40.237,325.055,0.134,-0.28600000000000003,0.008,-0.303,-0.904,0.221,7.13,-6.46,-46.71,0.5957,-0.7632,-0.0357,-0.24730000000000002,-0.05,-0.025,-0.028
2025-11-06 18:37:40.237,325.06,0.148,-0.298,0.008,-0.301,-0.902,0.229,7.13,-6.46,-46.71,0.5955,-0.7636000000000001,-0.035300000000000005,-0.2467,-0.051000000000000004,-0.026000000000000002,-0.034
2025-11-06 18:37:40.237,325.065,0.158,-0.313,0.008,-0.298,-0.903,0.234,7.13,-6.46,-46.71,0.5952000000000001,-0.7641,-0.035,-0.2461,-0.054,-0.025,-0.038
2025-11-06 18:37:40.238,325.07,0.17400000000000002,-0.317,0.01,-0.299,-0.9,0.24,7.19,-6.19,-46.94,0.5949,-0.7645000000000001,-0.0346,-0.24550000000000002,-0.053,-0.028,-0.043000000000000003
2025-11-06 18:37:40.238,325.075,0.194,-0.317,0.008,-0.295,-0.901,0.248,7.19,-6.19,-46.94,0.5945,-0.765,-0.0342,-0.24480000000000002,-0.056,-0.027,-0.049
2025-11-06 18:37:40.238,325.08,0.214,-0.314,0.004,-0.293,-0.903,0.255,8.68,-6.95,-46.410000000000004,0.5941000000000001,-0.7656000000000001,-0.0339,-0.2442,-0.058,-0.024,-0.054
2025-11-06 18:37:40.238,325.085,0.23,-0.311,0.001,-0.294,-0.903,0.257,8.68,-6.95,-46.410000000000004,0.5937,-0.7661,-0.033600000000000005,-0.2436,-0.057,-0.024,-0.055
2025-11-06 18:37:40.238,325.09,0.241,-0.298,-0.002,-0.294,-0.905,0.258,8.68,-6.95,-46.410000000000004,0.5933,-0.7666000000000001,-0.0333,-0.24300000000000002,-0.057,-0.022,-0.054
2025-11-06 18:37:40.238,325.095,0.241,-0.28300000000000003,-0.003,-0.298,-0.908,0.256,7.19,-6.48,-46.56,0.5928,-0.7672,-0.033100000000000004,-0.2424,-0.052000000000000005,-0.018000000000000002,-0.051000000000000004
2025-11-06 18:37:40.238,325.1,0.241,-0.271,-0.006,-0.303,-0.908,0.254,7.19,-6.48,-46.56,0.5924,-0.7677,-0.0329,-0.24180000000000001,-0.047,-0.019,-0.047
2025-11-06 18:37:40.238,325.105,0.23700000000000002,-0.251,-0.005,-0.307,-0.91,0.251,7.6000000000000005,-6.34,-46.36,0.5919,-0.7682,-0.0327,-0.24130000000000001,-0.043000000000000003,-0.017,-0.043000000000000003
2025-11-06 18:37:40.238,325.11,0.233,-0.242,-0.004,-0.312,-0.91,0.252,7.6000000000000005,-6.34,-46.36,0.5915,-0.7687,-0.0325,-0.24080000000000001,-0.037,-0.016,-0.042
2025-11-06 18:37:40.238,325.115,0.225,-0.212,0.0,-0.315,-0.916,0.247,7.6000000000000005,-6.34,-46.36,0.5910000000000001,-0.7692,-0.0323,-0.2404,-0.035,-0.011,-0.036000000000000004
2025-11-06 18:37:40.238,325.12,0.222,-0.198,0.004,-0.317,-0.92,0.245,7.24,-6.05,-46.44,0.5906,-0.7697,-0.0322,-0.24000000000000002,-0.031,-0.006,-0.032
2025-11-06 18:37:40.238,325.125,0.222,-0.188,0.009000000000000001,-0.316,-0.925,0.243,7.24,-6.05,-46.44,0.5902000000000001,-0.7701,-0.032,-0.2396,-0.033,-0.001,-0.028
2025-11-06 18:37:40.238,325.13,0.221,-0.188,0.016,-0.315,-0.931,0.24,6.8100000000000005,-6.46,-45.86,0.5898,-0.7706000000000001,-0.031900000000000005,-0.23920000000000002,-0.034,0.005,-0.024
2025-11-06 18:37:40.238,325.135,0.222,-0.184,0.024,-0.314,-0.936,0.23900000000000002,6.8100000000000005,-6.46,-45.86,0.5893,-0.771,-0.0317,-0.2388,-0.034,0.009000000000000001,-0.022
2025-11-06 18:37:40.238,325.14,0.226,-0.185,0.035,-0.307,-0.9460000000000001,0.23900000000000002,6.8100000000000005,-6.46,-45.86,0.5889,-0.7715000000000001,-0.0315,-0.23850000000000002,-0.041,0.02,-0.019
2025-11-06 18:37:40.238,325.145,0.23,-0.184,0.045,-0.301,-0.9490000000000001,0.23900000000000002,6.86,-6.37,-45.83,0.5884,-0.772,-0.0313,-0.23820000000000002,-0.047,0.024,-0.018000000000000002
2025-11-06 18:37:40.238,325.15,0.23600000000000002,-0.185,0.055,-0.295,-0.9530000000000001,0.23800000000000002,6.86,-6.37,-45.83,0.5879,-0.7724000000000001,-0.031100000000000003,-0.2379,-0.053,0.028,-0.015
2025-11-06 18:37:40.238,325.155,0.247,-0.17300000000000001,0.064,-0.29,-0.9570000000000001,0.23800000000000002,7.1000000000000005,-6.43,-46.33,0.5874,-0.7729,-0.0309,-0.2376,-0.057,0.032,-0.014
2025-11-06 18:37:40.238,325.16,0.258,-0.17500000000000002,0.074,-0.28400000000000003,-0.9580000000000001,0.23800000000000002,7.1000000000000005,-6.43,-46.33,0.5869,-0.7734000000000001,-0.030600000000000002,-0.2373,-0.064,0.034,-0.013000000000000001
2025-11-06 18:37:40.238,325.165,0.268,-0.171,0.084,-0.28300000000000003,-0.9590000000000001,0.23700000000000002,7.1000000000000005,-6.43,-46.33,0.5863,-0.7739,-0.0304,-0.2371,-0.066,0.035,-0.01
2025-11-06 18:37:40.238,325.17,0.28600000000000003,-0.163,0.096,-0.28,-0.9530000000000001,0.23800000000000002,8.53,-6.57,-46.68,0.5857,-0.7745000000000001,-0.030100000000000002,-0.2368,-0.068,0.03,-0.009000000000000001
2025-11-06 18:37:40.238,325.175,0.293,-0.153,0.1,-0.28,-0.9480000000000001,0.23900000000000002,8.53,-6.57,-46.68,0.5851000000000001,-0.775,-0.029900000000000003,-0.2366,-0.069,0.024,-0.009000000000000001
2025-11-06 18:37:40.238,325.18,0.308,-0.149,0.106,-0.281,-0.9400000000000001,0.23800000000000002,7.24,-6.19,-46.44,0.5844,-0.7756000000000001,-0.0297,-0.2364,-0.069,0.017,-0.007
2025-11-06 18:37:40.238,325.185,0.323,-0.14100000000000001,0.109,-0.28400000000000003,-0.929,0.242,7.24,-6.19,-46.44,0.5837,-0.7761,-0.029500000000000002,-0.2363,-0.065,0.007,-0.009000000000000001
2025-11-06 18:37:40.238,325.19,0.337,-0.14100000000000001,0.111,-0.28600000000000003,-0.919,0.244,7.24,-6.19,-46.44,0.5830000000000001,-0.7767000000000001,-0.029300000000000003,-0.2361,-0.064,-0.002,-0.009000000000000001
2025-11-06 18:37:40.238,325.195,0.34900000000000003,-0.129,0.117,-0.291,-0.908,0.246,7.36,-7.19,-46.65,0.5823,-0.7774000000000001,-0.0291,-0.23600000000000002,-0.06,-0.012,-0.01
2025-11-06 18:37:40.238,325.2,0.367,-0.122,0.11800000000000001,-0.298,-0.89,0.251,7.36,-7.19,-46.65,0.5815,-0.778,-0.028900000000000002,-0.2359,-0.053,-0.029,-0.013000000000000001
2025-11-06 18:37:40.238,325.205,0.373,-0.116,0.12,-0.304,-0.882,0.253,7.48,-6.95,-45.86,0.5807,-0.7786000000000001,-0.0287,-0.2358,-0.047,-0.037,-0.013000000000000001
2025-11-06 18:37:40.238,325.21,0.382,-0.101,0.122,-0.313,-0.873,0.253,7.48,-6.95,-45.86,0.5798,-0.7793,-0.0285,-0.23570000000000002,-0.039,-0.045,-0.012
2025-11-06 18:37:40.238,325.215,0.39,-0.093,0.125,-0.321,-0.867,0.254,7.48,-6.95,-45.86,0.5790000000000001,-0.7799,-0.0284,-0.23570000000000002,-0.032,-0.051000000000000004,-0.011
2025-11-06 18:37:40.238,325.22,0.398,-0.082,0.128,-0.326,-0.862,0.257,7.1000000000000005,-6.78,-46.06,0.5781000000000001,-0.7806000000000001,-0.028300000000000002,-0.23570000000000002,-0.027,-0.055,-0.012
2025-11-06 18:37:40.238,325.225,0.40800000000000003,-0.067,0.137,-0.333,-0.859,0.26,7.1000000000000005,-6.78,-46.06,0.5772,-0.7812,-0.0281,-0.23570000000000002,-0.021,-0.057,-0.013000000000000001
2025-11-06 18:37:40.238,325.23,0.431,-0.036000000000000004,0.148,-0.34,-0.859,0.266,7.1000000000000005,-6.78,-46.06,0.5763,-0.7819,-0.0281,-0.2358,-0.014,-0.057,-0.017
2025-11-06 18:37:40.238,325.235,0.45,-0.015,0.159,-0.34500000000000003,-0.863,0.269,6.92,-8.76,-45.27,0.5753,-0.7826000000000001,-0.028,-0.23600000000000002,-0.01,-0.052000000000000005,-0.018000000000000002
2025-11-06 18:37:40.238,325.24,0.46900000000000003,0.012,0.17200000000000001,-0.35100000000000003,-0.869,0.273,6.92,-8.76,-45.27,0.5742,-0.7833,-0.0279,-0.23620000000000002,-0.005,-0.045,-0.019
2025-11-06 18:37:40.238,325.245,0.489,0.039,0.186,-0.358,-0.878,0.274,6.66,-6.63,-45.57,0.5731,-0.784,-0.0279,-0.23650000000000002,0.0,-0.035,-0.018000000000000002
2025-11-06 18:37:40.238,325.25,0.505,0.07,0.2,-0.364,-0.886,0.277,6.66,-6.63,-45.57,0.5720000000000001,-0.7847000000000001,-0.0279,-0.2369,0.006,-0.026000000000000002,-0.019
2025-11-06 18:37:40.238,325.255,0.518,0.10200000000000001,0.218,-0.369,-0.898,0.278,6.66,-6.63,-45.57,0.5708,-0.7855000000000001,-0.0279,-0.2373,0.01,-0.013000000000000001,-0.017
2025-11-06 18:37:40.238,325.26,0.524,0.131,0.23,-0.372,-0.908,0.28,6.51,-7.98,-44.75,0.5696,-0.7862,-0.028,-0.2379,0.011,-0.003,-0.017
2025-11-06 18:37:40.238,325.265,0.527,0.171,0.243,-0.371,-0.919,0.281,6.51,-7.98,-44.75,0.5683,-0.7869,-0.028,-0.23850000000000002,0.01,0.009000000000000001,-0.015
2025-11-06 18:37:40.238,325.27,0.524,0.197,0.252,-0.371,-0.924,0.28,6.57,-7.51,-44.13,0.5671,-0.7875000000000001,-0.0281,-0.23920000000000002,0.008,0.015,-0.012
2025-11-06 18:37:40.239,325.275,0.521,0.23,0.257,-0.369,-0.93,0.279,6.57,-7.51,-44.13,0.5659000000000001,-0.7882,-0.028200000000000003,-0.24000000000000002,0.004,0.022,-0.009000000000000001
2025-11-06 18:37:40.239,325.28,0.522,0.261,0.263,-0.367,-0.933,0.28,6.57,-7.51,-44.13,0.5646,-0.7888000000000001,-0.0284,-0.24080000000000001,0.001,0.027,-0.007
2025-11-06 18:37:40.239,325.285,0.525,0.301,0.267,-0.368,-0.935,0.28,6.19,-6.48,-43.46,0.5634,-0.7894,-0.0286,-0.2417,0.0,0.03,-0.006
2025-11-06 18:37:40.239,325.29,0.534,0.354,0.269,-0.37,-0.935,0.279,6.19,-6.48,-43.46,0.5621,-0.79,-0.028800000000000003,-0.2427,0.001,0.031,-0.003
2025-11-06 18:37:40.239,325.295,0.543,0.394,0.269,-0.375,-0.933,0.279,5.93,-6.63,-43.93,0.5608000000000001,-0.7906000000000001,-0.0292,-0.24380000000000002,0.004,0.03,-0.001
2025-11-06 18:37:40.239,325.3,0.555,0.433,0.269,-0.381,-0.93,0.279,5.93,-6.63,-43.93,0.5595,-0.7912,-0.0296,-0.24500000000000002,0.008,0.028,0.0
2025-11-06 18:37:40.239,325.305,0.56,0.466,0.272,-0.389,-0.923,0.28300000000000003,5.93,-6.63,-43.93,0.5581,-0.7917000000000001,-0.030000000000000002,-0.24630000000000002,0.014,0.022,-0.001
2025-11-06 18:37:40.239,325.31,0.5640000000000001,0.511,0.277,-0.399,-0.916,0.28700000000000003,5.75,-7.01,-43.11,0.5567,-0.7922,-0.030500000000000003,-0.24760000000000001,0.023,0.016,-0.004
2025-11-06 18:37:40.239,325.315,0.5750000000000001,0.5690000000000001,0.28300000000000003,-0.419,-0.901,0.296,5.75,-7.01,-43.11,0.5553,-0.7927000000000001,-0.031,-0.24910000000000002,0.041,0.002,-0.012
2025-11-06 18:37:40.239,325.32,0.592,0.636,0.294,-0.439,-0.887,0.301,5.93,-6.66,-42.32,0.5539000000000001,-0.7932,-0.0317,-0.25070000000000003,0.058,-0.01,-0.016
2025-11-06 18:37:40.239,325.325,0.602,0.676,0.307,-0.458,-0.874,0.306,5.93,-6.66,-42.32,0.5524,-0.7937000000000001,-0.0323,-0.2524,0.075,-0.021,-0.019
2025-11-06 18:37:40.239,325.33,0.615,0.716,0.326,-0.47500000000000003,-0.862,0.307,5.93,-6.66,-42.32,0.5508000000000001,-0.7942,-0.033,-0.25420000000000004,0.089,-0.032,-0.019
2025-11-06 18:37:40.239,325.335,0.619,0.744,0.34600000000000003,-0.49,-0.852,0.307,5.43,-6.890000000000001,-42.47,0.5493,-0.7946000000000001,-0.0337,-0.2561,0.101,-0.04,-0.018000000000000002
2025-11-06 18:37:40.239,325.34,0.623,0.77,0.371,-0.501,-0.845,0.305,5.43,-6.890000000000001,-42.47,0.5477000000000001,-0.7951,-0.0344,-0.2581,0.109,-0.045,-0.014
2025-11-06 18:37:40.239,325.345,0.623,0.791,0.406,-0.506,-0.841,0.304,5.11,-6.63,-42.32,0.546,-0.7955,-0.035,-0.2601,0.111,-0.048,-0.012
2025-11-06 18:37:40.239,325.35,0.629,0.8140000000000001,0.445,-0.505,-0.838,0.306,5.11,-6.63,-42.32,0.5444,-0.7959,-0.0356,-0.26230000000000003,0.108,-0.049,-0.013000000000000001
2025-11-06 18:37:40.239,325.355,0.638,0.8290000000000001,0.47600000000000003,-0.501,-0.838,0.307,5.11,-6.63,-42.32,0.5426,-0.7963,-0.0361,-0.2645,0.1,-0.047,-0.013000000000000001
2025-11-06 18:37:40.239,325.36,0.652,0.848,0.505,-0.499,-0.84,0.305,5.67,-6.84,-42.29,0.5409,-0.7967000000000001,-0.0366,-0.26680000000000004,0.094,-0.044,-0.009000000000000001
2025-11-06 18:37:40.239,325.365,0.664,0.856,0.528,-0.488,-0.841,0.303,5.67,-6.84,-42.29,0.5391,-0.7971,-0.0371,-0.2691,0.08,-0.04,-0.005
2025-11-06 18:37:40.239,325.37,0.671,0.861,0.549,-0.481,-0.846,0.295,5.43,-7.1000000000000005,-41.04,0.5372,-0.7976000000000001,-0.0376,-0.2715,0.07,-0.034,0.003
2025-11-06 18:37:40.239,325.375,0.672,0.862,0.5670000000000001,-0.46900000000000003,-0.854,0.28600000000000003,5.43,-7.1000000000000005,-41.04,0.5353,-0.798,-0.038,-0.27390000000000003,0.054,-0.023,0.014
2025-11-06 18:37:40.239,325.38,0.669,0.851,0.5750000000000001,-0.462,-0.863,0.279,5.43,-7.1000000000000005,-41.04,0.5335,-0.7984,-0.038400000000000004,-0.2763,0.043000000000000003,-0.012,0.022
2025-11-06 18:37:40.239,325.385,0.667,0.852,0.5760000000000001,-0.451,-0.873,0.275,4.0,-7.45,-40.86,0.5316000000000001,-0.7988000000000001,-0.0388,-0.2786,0.028,0.0,0.028
2025-11-06 18:37:40.239,325.39,0.664,0.85,0.5690000000000001,-0.439,-0.885,0.275,4.0,-7.45,-40.86,0.5297000000000001,-0.7992,-0.0392,-0.281,0.013000000000000001,0.013000000000000001,0.03
2025-11-06 18:37:40.239,325.395,0.656,0.839,0.558,-0.432,-0.898,0.273,3.88,-6.69,-39.95,0.5279,-0.7996000000000001,-0.0396,-0.2833,0.003,0.028,0.033
2025-11-06 18:37:40.239,325.4,0.646,0.836,0.541,-0.424,-0.912,0.274,3.88,-6.69,-39.95,0.5261,-0.7999,-0.040100000000000004,-0.2856,-0.008,0.044,0.034
2025-11-06 18:37:40.239,325.405,0.637,0.8300000000000001,0.516,-0.417,-0.928,0.277,3.88,-6.69,-39.95,0.5243,-0.8003,-0.0405,-0.2879,-0.018000000000000002,0.062,0.032
2025-11-06 18:37:40.239,325.41,0.607,0.794,0.487,-0.41400000000000003,-0.9450000000000001,0.28500000000000003,3.56,-7.8,-39.92,0.5226000000000001,-0.8006000000000001,-0.041,-0.29000000000000004,-0.024,0.082,0.026000000000000002
2025-11-06 18:37:40.240,325.415,0.586,0.771,0.464,-0.41200000000000003,-0.9550000000000001,0.294,3.56,-7.8,-39.92,0.5209,-0.8009000000000001,-0.0414,-0.2921,-0.029,0.094,0.018000000000000002
2025-11-06 18:37:40.240,325.42,0.5650000000000001,0.744,0.44,-0.41300000000000003,-0.961,0.304,3.56,-6.66,-39.22,0.5194,-0.8012,-0.0419,-0.29410000000000003,-0.031,0.101,0.009000000000000001
2025-11-06 18:37:40.240,325.425,0.536,0.6930000000000001,0.41200000000000003,-0.41300000000000003,-0.961,0.308,3.56,-6.66,-39.22,0.5179,-0.8014,-0.042300000000000004,-0.2959,-0.034,0.10400000000000001,0.006
2025-11-06 18:37:40.240,325.43,0.517,0.679,0.396,-0.425,-0.962,0.326,3.56,-6.66,-39.22,0.5164,-0.8017000000000001,-0.042800000000000005,-0.2977,-0.024,0.106,-0.01
2025-11-06 18:37:40.240,325.435,0.488,0.644,0.372,-0.433,-0.9540000000000001,0.331,3.21,-6.86,-39.22,0.515,-0.8019000000000001,-0.0432,-0.2994,-0.02,0.1,-0.014
2025-11-06 18:37:40.240,325.44,0.46900000000000003,0.608,0.364,-0.444,-0.9460000000000001,0.334,3.21,-6.86,-39.22,0.5137,-0.8021,-0.043500000000000004,-0.301,-0.011,0.094,-0.017
2025-11-06 18:37:40.240,325.445,0.451,0.58,0.359,-0.456,-0.9390000000000001,0.34,2.54,-6.48,-38.730000000000004,0.5124000000000001,-0.8024,-0.0439,-0.30260000000000004,-0.002,0.088,-0.022
2025-11-06 18:37:40.240,325.45,0.445,0.545,0.36,-0.467,-0.929,0.342,2.54,-6.48,-38.730000000000004,0.5112,-0.8026000000000001,-0.0442,-0.304,0.005,0.08,-0.024
2025-11-06 18:37:40.240,325.455,0.445,0.518,0.365,-0.47700000000000004,-0.919,0.34600000000000003,2.54,-6.48,-38.730000000000004,0.5099,-0.8028000000000001,-0.0444,-0.3055,0.014,0.07100000000000001,-0.028
2025-11-06 18:37:40.240,325.46,0.455,0.498,0.373,-0.49,-0.912,0.35000000000000003,2.19,-6.19,-38.7,0.5086,-0.8031,-0.0446,-0.3069,0.024,0.066,-0.03
2025-11-06 18:37:40.240,325.465,0.468,0.466,0.387,-0.508,-0.902,0.35100000000000003,2.19,-6.19,-38.7,0.5073,-0.8034,-0.044700000000000004,-0.30820000000000003,0.039,0.058,-0.03
2025-11-06 18:37:40.240,325.47,0.47600000000000003,0.455,0.395,-0.518,-0.898,0.34900000000000003,1.92,-6.22,-37.76,0.5059,-0.8038000000000001,-0.0449,-0.30960000000000004,0.047,0.055,-0.028
2025-11-06 18:37:40.241,325.475,0.483,0.453,0.403,-0.528,-0.896,0.34900000000000003,1.92,-6.22,-37.76,0.5046,-0.8041,-0.045000000000000005,-0.3109,0.055,0.054,-0.027
2025-11-06 18:37:40.241,325.48,0.484,0.462,0.40700000000000003,-0.535,-0.892,0.34500000000000003,1.92,-6.22,-37.76,0.5032,-0.8044,-0.0451,-0.3123,0.059000000000000004,0.052000000000000005,-0.022
2025-11-06 18:37:40.241,325.485,0.483,0.47400000000000003,0.405,-0.544,-0.889,0.339,1.52,-6.3100000000000005,-37.730000000000004,0.5018,-0.8047000000000001,-0.045200000000000004,-0.31370000000000003,0.066,0.05,-0.015
2025-11-06 18:37:40.241,325.49,0.47700000000000004,0.491,0.399,-0.553,-0.886,0.331,1.52,-6.3100000000000005,-37.730000000000004,0.5004000000000001,-0.805,-0.0454,-0.3151,0.07200000000000001,0.049,-0.006
2025-11-06 18:37:40.241,325.495,0.458,0.523,0.382,-0.56,-0.883,0.323,1.52,-6.3100000000000005,-37.730000000000004,0.49910000000000004,-0.8053,-0.0456,-0.3165,0.077,0.047,0.002
2025-11-06 18:37:40.241,325.5,0.44,0.542,0.364,-0.5640000000000001,-0.88,0.315,1.87,-6.3100000000000005,-37.06,0.4978,-0.8055,-0.0459,-0.318,0.079,0.045,0.011
2025-11-06 18:37:40.241,325.505,0.42,0.555,0.34,-0.5640000000000001,-0.876,0.306,1.87,-6.3100000000000005,-37.06,0.49660000000000004,-0.8056000000000001,-0.046200000000000005,-0.3195,0.076,0.043000000000000003,0.02
2025-11-06 18:37:40.241,325.51,0.39,0.5690000000000001,0.316,-0.5650000000000001,-0.873,0.297,1.43,-6.69,-37.03,0.4955,-0.8057000000000001,-0.0465,-0.321,0.075,0.041,0.029
2025-11-06 18:37:40.241,325.515,0.354,0.5670000000000001,0.292,-0.558,-0.869,0.289,1.43,-6.69,-37.03,0.4944,-0.8058000000000001,-0.046900000000000004,-0.3224,0.066,0.038,0.037
2025-11-06 18:37:40.241,325.52,0.321,0.5680000000000001,0.263,-0.549,-0.86,0.28200000000000003,1.43,-6.69,-37.03,0.4934,-0.8058000000000001,-0.0473,-0.32380000000000003,0.055,0.03,0.044
2025-11-06 18:37:40.241,325.525,0.269,0.561,0.219,-0.542,-0.849,0.28300000000000003,1.19,-6.63,-37.12,0.49260000000000004,-0.8057000000000001,-0.0477,-0.3252,0.046,0.02,0.043000000000000003
2025-11-06 18:37:40.241,325.53,0.24,0.547,0.193,-0.536,-0.838,0.28,1.19,-6.63,-37.12,0.4919,-0.8056000000000001,-0.0482,-0.3265,0.038,0.01,0.045
2025-11-06 18:37:40.241,325.535,0.216,0.528,0.169,-0.53,-0.8290000000000001,0.278,0.52,-6.63,-36.86,0.4912,-0.8054,-0.048600000000000004,-0.32780000000000004,0.031,0.002,0.047
2025-11-06 18:37:40.241,325.54,0.192,0.506,0.15,-0.523,-0.8170000000000001,0.278,0.52,-6.63,-36.86,0.49060000000000004,-0.8053,-0.049100000000000005,-0.3289,0.021,-0.008,0.046
2025-11-06 18:37:40.241,325.545,0.17400000000000002,0.481,0.136,-0.516,-0.804,0.281,0.52,-6.63,-36.86,0.49010000000000004,-0.8051,-0.0495,-0.33,0.014,-0.02,0.043000000000000003
2025-11-06 18:37:40.241,325.55,0.159,0.444,0.123,-0.507,-0.793,0.28600000000000003,0.81,-6.28,-36.83,0.48960000000000004,-0.805,-0.0499,-0.3311,0.003,-0.03,0.038
2025-11-06 18:37:40.241,325.555,0.151,0.405,0.121,-0.499,-0.788,0.291,0.81,-6.28,-36.83,0.48910000000000003,-0.8049000000000001,-0.050300000000000004,-0.332,-0.005,-0.035,0.032
2025-11-06 18:37:40.241,325.56,0.149,0.35000000000000003,0.125,-0.489,-0.786,0.296,0.96,-7.01,-37.26,0.4887,-0.8048000000000001,-0.0506,-0.33280000000000004,-0.016,-0.037,0.026000000000000002
2025-11-06 18:37:40.241,325.565,0.155,0.317,0.131,-0.484,-0.786,0.298,0.96,-7.01,-37.26,0.4882,-0.8048000000000001,-0.050800000000000005,-0.3336,-0.022,-0.035,0.025
2025-11-06 18:37:40.241,325.57,0.166,0.289,0.14300000000000002,-0.48,-0.79,0.298,0.96,-7.01,-37.26,0.4877,-0.8047000000000001,-0.051000000000000004,-0.33430000000000004,-0.027,-0.031,0.025
2025-11-06 18:37:40.242,325.575,0.178,0.261,0.159,-0.48,-0.796,0.299,0.61,-6.25,-37.06,0.48710000000000003,-0.8048000000000001,-0.0511,-0.335,-0.028,-0.024,0.024
2025-11-06 18:37:40.242,325.58,0.188,0.23800000000000002,0.178,-0.485,-0.804,0.297,0.61,-6.25,-37.06,0.48660000000000003,-0.8048000000000001,-0.0512,-0.3357,-0.024,-0.016,0.026000000000000002
2025-11-06 18:37:40.242,325.585,0.185,0.194,0.198,-0.491,-0.8160000000000001,0.296,0.73,-6.08,-36.71,0.48600000000000004,-0.8049000000000001,-0.0512,-0.33630000000000004,-0.019,-0.002,0.028
2025-11-06 18:37:40.242,325.59,0.17500000000000002,0.164,0.213,-0.498,-0.8260000000000001,0.3,0.73,-6.08,-36.71,0.4854,-0.8051,-0.0511,-0.33680000000000004,-0.013000000000000001,0.007,0.025
2025-11-06 18:37:40.242,325.595,0.161,0.136,0.222,-0.503,-0.835,0.301,0.73,-6.08,-36.71,0.4849,-0.8052,-0.0509,-0.33740000000000003,-0.009000000000000001,0.017,0.024
2025-11-06 18:37:40.242,325.6,0.145,0.113,0.23,-0.51,-0.842,0.304,-0.2,-5.9,-36.83,0.4844,-0.8053,-0.0507,-0.3378,-0.003,0.024,0.021
2025-11-06 18:37:40.242,325.605,0.13,0.099,0.233,-0.519,-0.852,0.312,-0.2,-5.9,-36.83,0.4839,-0.8054,-0.0505,-0.3383,0.004,0.035,0.014
2025-11-06 18:37:40.242,325.61,0.111,0.099,0.233,-0.524,-0.859,0.326,-0.2,-6.28,-36.88,0.48350000000000004,-0.8055,-0.0502,-0.3387,0.008,0.044,0.0
2025-11-06 18:37:40.242,325.615,0.08600000000000001,0.107,0.231,-0.526,-0.859,0.335,-0.2,-6.28,-36.88,0.48310000000000003,-0.8056000000000001,-0.0499,-0.3392,0.008,0.045,-0.008
2025-11-06 18:37:40.242,325.62,0.06,0.11800000000000001,0.227,-0.527,-0.857,0.341,-0.2,-6.28,-36.88,0.4827,-0.8056000000000001,-0.0497,-0.3397,0.008,0.043000000000000003,-0.014
2025-11-06 18:37:40.242,325.625,0.034,0.11900000000000001,0.214,-0.528,-0.853,0.34800000000000003,-0.9,-6.08,-36.94,0.48250000000000004,-0.8055,-0.0494,-0.3402,0.008,0.04,-0.021
2025-11-06 18:37:40.242,325.63,0.008,0.115,0.20600000000000002,-0.527,-0.849,0.352,-0.9,-6.08,-36.94,0.4822,-0.8055,-0.049100000000000005,-0.3407,0.006,0.036000000000000004,-0.026000000000000002
2025-11-06 18:37:40.242,325.635,-0.006,0.107,0.196,-0.522,-0.841,0.356,-0.43,-6.13,-36.74,0.48210000000000003,-0.8054,-0.0488,-0.3411,0.0,0.029,-0.029
2025-11-06 18:37:40.242,325.64,-0.016,0.096,0.182,-0.51,-0.8220000000000001,0.355,-0.43,-6.13,-36.74,0.48190000000000005,-0.8053,-0.048600000000000004,-0.3415,-0.012,0.011,-0.03
2025-11-06 18:37:40.242,325.645,-0.022,0.093,0.164,-0.5,-0.799,0.354,-0.43,-6.13,-36.74,0.4818,-0.8053,-0.0483,-0.34190000000000004,-0.023,-0.01,-0.03
2025-11-06 18:37:40.242,325.65,-0.026000000000000002,0.089,0.147,-0.493,-0.779,0.354,-0.84,-6.08,-36.800000000000004,0.4817,-0.8052,-0.048100000000000004,-0.3422,-0.031,-0.03,-0.03
2025-11-06 18:37:40.242,325.655,-0.033,0.08700000000000001,0.133,-0.487,-0.757,0.35100000000000003,-0.84,-6.08,-36.800000000000004,0.4817,-0.8051,-0.047900000000000005,-0.3426,-0.038,-0.052000000000000005,-0.028
2025-11-06 18:37:40.242,325.66,-0.036000000000000004,0.079,0.121,-0.484,-0.737,0.34500000000000003,-0.81,-5.87,-36.94,0.48160000000000003,-0.805,-0.0477,-0.34290000000000004,-0.042,-0.07200000000000001,-0.022
2025-11-06 18:37:40.242,325.665,-0.034,0.068,0.108,-0.487,-0.717,0.336,-0.81,-5.87,-36.94,0.48160000000000003,-0.8049000000000001,-0.0475,-0.3431,-0.039,-0.092,-0.014
2025-11-06 18:37:40.242,325.67,-0.017,0.051000000000000004,0.099,-0.493,-0.6910000000000001,0.325,-0.81,-5.87,-36.94,0.48150000000000004,-0.8049000000000001,-0.047400000000000005,-0.34340000000000004,-0.034,-0.11800000000000001,-0.004
2025-11-06 18:37:40.242,325.675,0.006,0.028,0.096,-0.498,-0.678,0.321,-0.81,-6.13,-36.04,0.48140000000000005,-0.8049000000000001,-0.0472,-0.3435,-0.029,-0.131,-0.001
2025-11-06 18:37:40.242,325.68,0.032,0.007,0.101,-0.509,-0.666,0.321,-0.81,-6.13,-36.04,0.4813,-0.8049000000000001,-0.047,-0.3437,-0.019,-0.14200000000000002,-0.001
2025-11-06 18:37:40.242,325.685,0.065,-0.02,0.111,-0.514,-0.656,0.324,-0.7000000000000001,-6.37,-36.74,0.4811,-0.805,-0.0468,-0.3437,-0.015,-0.152,-0.004
2025-11-06 18:37:40.242,325.69,0.098,-0.046,0.12,-0.519,-0.649,0.329,-0.7000000000000001,-6.37,-36.74,0.4808,-0.8052,-0.0466,-0.3438,-0.01,-0.158,-0.008
2025-11-06 18:37:40.242,325.695,0.135,-0.07100000000000001,0.131,-0.523,-0.648,0.334,-0.7000000000000001,-6.37,-36.74,0.48040000000000005,-0.8054,-0.046400000000000004,-0.3438,-0.007,-0.159,-0.013000000000000001
2025-11-06 18:37:40.242,325.7,0.161,-0.095,0.14300000000000002,-0.528,-0.65,0.342,0.35000000000000003,-6.37,-36.24,0.47990000000000005,-0.8058000000000001,-0.0461,-0.3437,-0.002,-0.156,-0.019
2025-11-06 18:37:40.242,325.705,0.209,-0.132,0.151,-0.528,-0.653,0.34900000000000003,0.35000000000000003,-6.37,-36.24,0.47940000000000005,-0.8061,-0.0459,-0.3436,-0.002,-0.153,-0.025
2025-11-06 18:37:40.242,325.71,0.232,-0.149,0.154,-0.528,-0.656,0.352,-0.93,-6.22,-36.33,0.4788,-0.8066,-0.0456,-0.3435,-0.003,-0.149,-0.027
2025-11-06 18:37:40.242,325.715,0.248,-0.16,0.15,-0.53,-0.661,0.354,-0.93,-6.22,-36.33,0.4782,-0.807,-0.0453,-0.3433,-0.002,-0.14300000000000002,-0.027
2025-11-06 18:37:40.242,325.72,0.259,-0.167,0.14200000000000002,-0.53,-0.668,0.353,-0.93,-6.22,-36.33,0.47750000000000004,-0.8075,-0.045000000000000005,-0.3431,-0.001,-0.135,-0.025
2025-11-06 18:37:40.242,325.725,0.265,-0.17400000000000002,0.131,-0.53,-0.675,0.353,-0.64,-6.3100000000000005,-35.57,0.47690000000000005,-0.808,-0.0448,-0.3428,-0.002,-0.128,-0.023
2025-11-06 18:37:40.242,325.73,0.267,-0.179,0.107,-0.529,-0.687,0.356,-0.64,-6.3100000000000005,-35.57,0.4763,-0.8085,-0.0446,-0.3426,-0.003,-0.114,-0.024
2025-11-06 18:37:40.243,325.735,0.262,-0.183,0.08700000000000001,-0.528,-0.6920000000000001,0.36,-0.55,-7.390000000000001,-36.15,0.4757,-0.809,-0.0444,-0.3423,-0.003,-0.109,-0.026000000000000002
2025-11-06 18:37:40.243,325.74,0.257,-0.17200000000000001,0.066,-0.528,-0.6950000000000001,0.364,-0.55,-7.390000000000001,-36.15,0.4751,-0.8095,-0.0443,-0.34190000000000004,-0.004,-0.105,-0.029
2025-11-06 18:37:40.243,325.745,0.243,-0.176,0.048,-0.532,-0.6990000000000001,0.37,-0.55,-7.390000000000001,-36.15,0.4746,-0.8099000000000001,-0.0442,-0.3416,0.0,-0.1,-0.034
2025-11-06 18:37:40.243,325.75,0.234,-0.17500000000000002,0.029,-0.534,-0.704,0.378,-1.28,-6.78,-35.74,0.4741,-0.8104,-0.0442,-0.3413,0.001,-0.096,-0.04
2025-11-06 18:37:40.243,325.755,0.227,-0.171,0.015,-0.537,-0.706,0.386,-1.28,-6.78,-35.74,0.4736,-0.8108000000000001,-0.0442,-0.34090000000000004,0.005,-0.092,-0.046
2025-11-06 18:37:40.243,325.76,0.213,-0.161,-0.005,-0.538,-0.705,0.393,-1.28,-6.78,-36.24,0.4732,-0.8112,-0.0442,-0.3405,0.006,-0.093,-0.052000000000000005
2025-11-06 18:37:40.243,325.765,0.211,-0.157,-0.015,-0.541,-0.7010000000000001,0.397,-1.05,-5.93,-36.24,0.4728,-0.8116,-0.0442,-0.3402,0.009000000000000001,-0.096,-0.055
2025-11-06 18:37:40.243,325.77,0.212,-0.157,-0.021,-0.542,-0.6970000000000001,0.404,-1.05,-5.93,-36.24,0.47240000000000004,-0.812,-0.0443,-0.3398,0.01,-0.1,-0.061
2025-11-06 18:37:40.243,325.775,0.217,-0.163,-0.025,-0.545,-0.6940000000000001,0.41000000000000003,-0.14,-8.0,-35.86,0.47200000000000003,-0.8124,-0.0443,-0.33940000000000003,0.014,-0.10300000000000001,-0.066
2025-11-06 18:37:40.243,325.78,0.229,-0.168,-0.023,-0.544,-0.6890000000000001,0.41300000000000003,-0.14,-8.0,-35.86,0.47150000000000003,-0.8128000000000001,-0.0444,-0.339,0.013000000000000001,-0.107,-0.068
2025-11-06 18:37:40.243,325.785,0.23500000000000001,-0.182,-0.019,-0.546,-0.687,0.42,-0.14,-8.0,-35.86,0.4711,-0.8132,-0.0444,-0.3386,0.016,-0.109,-0.074
2025-11-06 18:37:40.243,325.79,0.251,-0.20700000000000002,-0.009000000000000001,-0.546,-0.684,0.428,-1.05,-6.3100000000000005,-36.15,0.4706,-0.8137000000000001,-0.0444,-0.3381,0.016,-0.112,-0.08
2025-11-06 18:37:40.243,325.795,0.265,-0.226,0.002,-0.542,-0.687,0.436,-1.05,-6.3100000000000005,-36.15,0.47000000000000003,-0.8142,-0.0444,-0.3376,0.013000000000000001,-0.108,-0.08700000000000001
2025-11-06 18:37:40.243,325.8,0.274,-0.263,0.009000000000000001,-0.533,-0.6910000000000001,0.446,0.76,-6.890000000000001,-35.57,0.46950000000000003,-0.8148000000000001,-0.0443,-0.3371,0.004,-0.10300000000000001,-0.094
2025-11-06 18:37:40.243,325.805,0.28200000000000003,-0.295,0.019,-0.526,-0.6970000000000001,0.451,0.76,-6.890000000000001,-35.57,0.46890000000000004,-0.8154,-0.0442,-0.3365,-0.002,-0.097,-0.097
2025-11-06 18:37:40.243,325.81,0.28600000000000003,-0.329,0.02,-0.51,-0.7030000000000001,0.451,0.76,-6.890000000000001,-35.57,0.46830000000000005,-0.8160000000000001,-0.044000000000000004,-0.33580000000000004,-0.017,-0.09,-0.095
2025-11-06 18:37:40.243,325.815,0.28200000000000003,-0.354,0.02,-0.486,-0.712,0.445,-1.31,-5.72,-35.07,0.46780000000000005,-0.8166,-0.0438,-0.335,-0.04,-0.081,-0.08600000000000001
2025-11-06 18:37:40.243,325.82,0.273,-0.377,0.007,-0.461,-0.72,0.438,-1.31,-5.72,-35.07,0.4672,-0.8173,-0.0436,-0.3342,-0.064,-0.07100000000000001,-0.077
2025-11-06 18:37:40.243,325.825,0.271,-0.381,-0.008,-0.443,-0.725,0.427,0.76,-5.72,-35.480000000000004,0.4667,-0.8179000000000001,-0.0434,-0.33340000000000003,-0.082,-0.066,-0.064
2025-11-06 18:37:40.243,325.83,0.268,-0.385,-0.029,-0.425,-0.727,0.41200000000000003,0.76,-5.72,-35.480000000000004,0.4662,-0.8185,-0.043300000000000005,-0.3326,-0.1,-0.064,-0.047
2025-11-06 18:37:40.243,325.835,0.266,-0.385,-0.05,-0.41000000000000003,-0.724,0.398,0.76,-5.72,-35.480000000000004,0.46580000000000005,-0.8192,-0.0432,-0.3317,-0.114,-0.067,-0.031
2025-11-06 18:37:40.243,325.84,0.263,-0.381,-0.075,-0.397,-0.718,0.382,-1.02,-5.64,-35.480000000000004,0.46530000000000005,-0.8198000000000001,-0.0431,-0.33080000000000004,-0.125,-0.073,-0.013000000000000001
2025-11-06 18:37:40.243,325.845,0.261,-0.376,-0.105,-0.393,-0.706,0.367,-1.02,-5.64,-35.480000000000004,0.46490000000000004,-0.8204,-0.0431,-0.32980000000000004,-0.129,-0.085,0.003
2025-11-06 18:37:40.243,325.85,0.258,-0.374,-0.122,-0.395,-0.6960000000000001,0.359,1.43,-5.64,-34.78,0.4645,-0.8210000000000001,-0.0432,-0.3289,-0.125,-0.094,0.012
2025-11-06 18:37:40.243,325.855,0.253,-0.382,-0.138,-0.40700000000000003,-0.687,0.358,1.43,-5.64,-34.78,0.4642,-0.8216,-0.043300000000000005,-0.3279,-0.112,-0.10400000000000001,0.016
2025-11-06 18:37:40.243,325.86,0.254,-0.388,-0.14300000000000002,-0.422,-0.679,0.364,1.43,-5.64,-34.78,0.46380000000000005,-0.8222,-0.043300000000000005,-0.3269,-0.096,-0.112,0.011
2025-11-06 18:37:40.243,325.865,0.256,-0.397,-0.14200000000000002,-0.435,-0.671,0.372,1.4000000000000001,-5.67,-34.980000000000004,0.46340000000000003,-0.8228000000000001,-0.0434,-0.3259,-0.081,-0.11900000000000001,0.005
2025-11-06 18:37:40.243,325.87,0.259,-0.401,-0.138,-0.452,-0.665,0.382,1.4000000000000001,-5.67,-34.980000000000004,0.463,-0.8234,-0.043500000000000004,-0.3249,-0.064,-0.126,-0.002
2025-11-06 18:37:40.243,325.875,0.256,-0.402,-0.126,-0.47100000000000003,-0.656,0.396,0.05,-6.48,-35.63,0.4627,-0.8240000000000001,-0.043500000000000004,-0.3239,-0.044,-0.135,-0.015
2025-11-06 18:37:40.243,325.88,0.252,-0.42,-0.113,-0.486,-0.646,0.40700000000000003,0.05,-6.48,-35.63,0.46230000000000004,-0.8246,-0.043500000000000004,-0.3229,-0.027,-0.14400000000000002,-0.024
2025-11-06 18:37:40.243,325.885,0.247,-0.424,-0.1,-0.495,-0.641,0.419,0.05,-6.48,-35.63,0.46190000000000003,-0.8252,-0.0434,-0.3219,-0.017,-0.149,-0.035
2025-11-06 18:37:40.243,325.89,0.245,-0.437,-0.088,-0.502,-0.638,0.433,-0.02,-5.08,-33.99,0.4615,-0.8259000000000001,-0.043300000000000005,-0.32080000000000003,-0.009000000000000001,-0.151,-0.046
2025-11-06 18:37:40.243,325.895,0.23700000000000002,-0.449,-0.075,-0.507,-0.639,0.444,-0.02,-5.08,-33.99,0.4611,-0.8265,-0.0432,-0.31980000000000003,-0.003,-0.149,-0.055
2025-11-06 18:37:40.243,325.9,0.23,-0.455,-0.068,-0.509,-0.646,0.451,-0.08,-5.4,-34.75,0.4607,-0.8271000000000001,-0.043000000000000003,-0.31880000000000003,0.0,-0.14300000000000002,-0.06
2025-11-06 18:37:40.243,325.905,0.224,-0.46900000000000003,-0.058,-0.511,-0.656,0.456,-0.08,-5.4,-34.75,0.46040000000000003,-0.8277,-0.042800000000000005,-0.31770000000000004,0.002,-0.132,-0.062
2025-11-06 18:37:40.245,325.91,0.222,-0.485,-0.055,-0.502,-0.67,0.462,-0.08,-5.4,-34.75,0.46,-0.8284,-0.0425,-0.3166,-0.004,-0.11800000000000001,-0.066
2025-11-06 18:37:40.245,325.915,0.23,-0.492,-0.057,-0.496,-0.683,0.47300000000000003,0.99,-5.17,-34.52,0.4596,-0.8290000000000001,-0.042300000000000004,-0.3155,-0.009000000000000001,-0.10400000000000001,-0.075
2025-11-06 18:37:40.245,325.92,0.234,-0.49,-0.067,-0.488,-0.6970000000000001,0.481,0.99,-5.17,-34.52,0.4592,-0.8297,-0.042100000000000005,-0.3144,-0.016,-0.089,-0.081
2025-11-06 18:37:40.245,325.925,0.231,-0.49,-0.084,-0.47900000000000004,-0.711,0.483,-0.38,-5.05,-34.43,0.45890000000000003,-0.8303,-0.0419,-0.31320000000000003,-0.024,-0.075,-0.08
2025-11-06 18:37:40.245,325.93,0.219,-0.491,-0.107,-0.47400000000000003,-0.724,0.47500000000000003,-0.38,-5.05,-34.43,0.4585,-0.8309000000000001,-0.041800000000000004,-0.3121,-0.027,-0.062,-0.07
2025-11-06 18:37:40.245,325.935,0.216,-0.503,-0.14100000000000001,-0.468,-0.736,0.468,-0.38,-5.05,-34.43,0.4582,-0.8316,-0.0417,-0.3108,-0.031,-0.05,-0.06
2025-11-06 18:37:40.245,325.94,0.224,-0.522,-0.179,-0.464,-0.745,0.462,0.43,-6.72,-35.04,0.458,-0.8322,-0.0417,-0.3095,-0.033,-0.041,-0.052000000000000005
2025-11-06 18:37:40.245,325.945,0.23600000000000002,-0.539,-0.20600000000000002,-0.461,-0.751,0.457,0.43,-6.72,-35.04,0.4577,-0.8329000000000001,-0.0417,-0.30810000000000004,-0.034,-0.036000000000000004,-0.044
2025-11-06 18:37:40.245,325.95,0.23800000000000002,-0.547,-0.234,-0.462,-0.754,0.454,0.99,-4.91,-35.34,0.45740000000000003,-0.8335,-0.041800000000000004,-0.30670000000000003,-0.031,-0.032,-0.039
2025-11-06 18:37:40.246,325.955,0.23500000000000001,-0.547,-0.255,-0.465,-0.751,0.448,0.99,-4.91,-35.34,0.4572,-0.8342,-0.0419,-0.3052,-0.027,-0.036000000000000004,-0.031
2025-11-06 18:37:40.246,325.96,0.226,-0.544,-0.272,-0.47000000000000003,-0.749,0.446,0.99,-4.91,-35.34,0.457,-0.8348,-0.042100000000000005,-0.3038,-0.019,-0.038,-0.027
2025-11-06 18:37:40.246,325.965,0.219,-0.529,-0.28400000000000003,-0.487,-0.742,0.448,1.37,-5.26,-35.45,0.45680000000000004,-0.8355,-0.042300000000000004,-0.3023,0.0,-0.046,-0.027
2025-11-06 18:37:40.246,325.97,0.212,-0.521,-0.28200000000000003,-0.501,-0.731,0.449,1.37,-5.26,-35.45,0.4566,-0.8361000000000001,-0.0425,-0.3009,0.015,-0.057,-0.027
2025-11-06 18:37:40.246,325.975,0.225,-0.517,-0.274,-0.512,-0.723,0.452,1.6,-6.48,-35.34,0.45640000000000003,-0.8367,-0.0426,-0.2995,0.028,-0.065,-0.027
2025-11-06 18:37:40.246,325.98,0.23600000000000002,-0.524,-0.26,-0.521,-0.716,0.463,1.6,-6.48,-35.34,0.4561,-0.8373,-0.042800000000000005,-0.29810000000000003,0.039,-0.07200000000000001,-0.037
2025-11-06 18:37:40.246,325.985,0.25,-0.521,-0.24,-0.532,-0.713,0.47600000000000003,1.6,-6.48,-35.34,0.45580000000000004,-0.8380000000000001,-0.0429,-0.2967,0.052000000000000005,-0.075,-0.048
2025-11-06 18:37:40.246,325.99,0.263,-0.512,-0.219,-0.538,-0.709,0.485,1.52,-4.5,-35.04,0.4555,-0.8386,-0.043000000000000003,-0.2954,0.06,-0.079,-0.054
2025-11-06 18:37:40.246,325.995,0.268,-0.512,-0.191,-0.547,-0.7010000000000001,0.497,1.52,-4.5,-35.04,0.4551,-0.8393,-0.0431,-0.29410000000000003,0.07100000000000001,-0.08700000000000001,-0.064
2025-11-06 18:37:40.246,326.0,0.28,-0.457,-0.171,-0.548,-0.6950000000000001,0.511,2.0100000000000002,-4.5600000000000005,-35.51,0.4546,-0.8399000000000001,-0.0431,-0.2929,0.073,-0.092,-0.076
2025-11-06 18:37:40.246,326.005,0.274,-0.433,-0.159,-0.541,-0.6910000000000001,0.516,2.0100000000000002,-4.5600000000000005,-35.51,0.45420000000000005,-0.8406,-0.0432,-0.2918,0.068,-0.095,-0.079
2025-11-06 18:37:40.246,326.01,0.26,-0.4,-0.16,-0.534,-0.6880000000000001,0.511,2.0100000000000002,-4.5600000000000005,-35.51,0.45380000000000004,-0.8411000000000001,-0.043300000000000005,-0.2907,0.062,-0.098,-0.07200000000000001
2025-11-06 18:37:40.249,326.015,0.23800000000000002,-0.372,-0.156,-0.524,-0.6890000000000001,0.5,1.6600000000000001,-4.61,-34.72,0.4534,-0.8417,-0.0434,-0.2898,0.054,-0.098,-0.059000000000000004
2025-11-06 18:37:40.249,326.02,0.219,-0.336,-0.155,-0.508,-0.6880000000000001,0.49,1.6600000000000001,-4.61,-34.72,0.4531,-0.8421000000000001,-0.043500000000000004,-0.2889,0.039,-0.098,-0.048
2025-11-06 18:37:40.249,326.025,0.189,-0.296,-0.165,-0.481,-0.684,0.47600000000000003,1.37,-4.61,-34.28,0.45280000000000004,-0.8426,-0.0437,-0.28800000000000003,0.014,-0.10200000000000001,-0.032
2025-11-06 18:37:40.249,326.03,0.17300000000000001,-0.254,-0.17400000000000002,-0.464,-0.685,0.467,1.37,-4.26,-34.28,0.4526,-0.8429000000000001,-0.0439,-0.2873,-0.001,-0.10200000000000001,-0.022
2025-11-06 18:37:40.249,326.035,0.164,-0.223,-0.187,-0.446,-0.68,0.457,1.37,-4.26,-34.28,0.4524,-0.8432000000000001,-0.0442,-0.2866,-0.018000000000000002,-0.106,-0.011
2025-11-06 18:37:40.249,326.04,0.151,-0.202,-0.201,-0.433,-0.674,0.45,3.04,-4.64,-34.37,0.45230000000000004,-0.8435,-0.044500000000000005,-0.2859,-0.03,-0.113,-0.002
2025-11-06 18:37:40.249,326.045,0.14200000000000002,-0.186,-0.215,-0.42,-0.672,0.45,3.04,-4.64,-34.37,0.4521,-0.8438,-0.0449,-0.2853,-0.042,-0.115,-0.001
2025-11-06 18:37:40.249,326.05,0.129,-0.176,-0.231,-0.41400000000000003,-0.67,0.45,3.04,-4.64,-34.37,0.4521,-0.8440000000000001,-0.0453,-0.2846,-0.046,-0.117,0.0
2025-11-06 18:37:40.249,326.055,0.126,-0.203,-0.25,-0.405,-0.665,0.444,2.42,-4.67,-34.34,0.452,-0.8443,-0.045700000000000005,-0.28390000000000004,-0.054,-0.122,0.005
2025-11-06 18:37:40.249,326.06,0.135,-0.23600000000000002,-0.259,-0.403,-0.669,0.448,2.42,-4.67,-34.34,0.4519,-0.8446,-0.0461,-0.2831,-0.054,-0.11800000000000001,0.002
2025-11-06 18:37:40.249,326.065,0.148,-0.274,-0.27,-0.403,-0.669,0.456,2.42,-4.26,-34.550000000000004,0.45180000000000003,-0.8449000000000001,-0.0465,-0.2822,-0.053,-0.11800000000000001,-0.004
2025-11-06 18:37:40.249,326.07,0.165,-0.3,-0.278,-0.404,-0.675,0.465,2.42,-4.26,-34.550000000000004,0.45170000000000005,-0.8453,-0.046900000000000004,-0.2813,-0.05,-0.113,-0.011
2025-11-06 18:37:40.249,326.075,0.17500000000000002,-0.309,-0.28600000000000003,-0.406,-0.681,0.47500000000000003,2.42,-4.26,-34.550000000000004,0.4516,-0.8457,-0.0473,-0.2803,-0.046,-0.107,-0.02
2025-11-06 18:37:40.249,326.08,0.181,-0.316,-0.294,-0.418,-0.682,0.482,2.54,-4.23,-34.22,0.4514,-0.8460000000000001,-0.0477,-0.2793,-0.032,-0.106,-0.025
2025-11-06 18:37:40.249,326.085,0.17300000000000001,-0.329,-0.309,-0.426,-0.685,0.484,2.54,-4.23,-34.22,0.45130000000000003,-0.8464,-0.048100000000000004,-0.2782,-0.023,-0.10300000000000001,-0.026000000000000002
2025-11-06 18:37:40.249,326.09,0.164,-0.339,-0.313,-0.433,-0.6890000000000001,0.492,2.74,-4.0,-33.96,0.45120000000000005,-0.8468,-0.0485,-0.2771,-0.014,-0.1,-0.032
2025-11-06 18:37:40.249,326.095,0.146,-0.35100000000000003,-0.317,-0.437,-0.6930000000000001,0.494,2.74,-4.0,-33.96,0.45120000000000005,-0.8472000000000001,-0.0489,-0.276,-0.007,-0.096,-0.033
2025-11-06 18:37:40.249,326.1,0.122,-0.353,-0.322,-0.445,-0.7030000000000001,0.5,2.74,-4.0,-33.96,0.45120000000000005,-0.8475,-0.049300000000000004,-0.27490000000000003,0.001,-0.08600000000000001,-0.038
2025-11-06 18:37:40.249,326.105,0.092,-0.34400000000000003,-0.323,-0.455,-0.706,0.499,3.15,-4.76,-34.02,0.45130000000000003,-0.8478,-0.0497,-0.2738,0.014,-0.083,-0.035
2025-11-06 18:37:40.249,326.11,0.065,-0.339,-0.322,-0.462,-0.708,0.501,3.15,-4.76,-34.02,0.4514,-0.8481000000000001,-0.050100000000000006,-0.2727,0.023,-0.082,-0.036000000000000004
2025-11-06 18:37:40.249,326.115,0.025,-0.332,-0.32,-0.462,-0.71,0.499,2.98,-4.12,-33.76,0.4516,-0.8483,-0.0504,-0.2717,0.025,-0.081,-0.034
2025-11-06 18:37:40.249,326.12,0.003,-0.318,-0.317,-0.46900000000000003,-0.713,0.493,2.98,-4.12,-33.76,0.45180000000000003,-0.8484,-0.050800000000000005,-0.2707,0.034,-0.078,-0.027
2025-11-06 18:37:40.251,326.125,-0.012,-0.302,-0.315,-0.47000000000000003,-0.717,0.491,2.98,-4.12,-33.76,0.4521,-0.8486,-0.0511,-0.2697,0.036000000000000004,-0.076,-0.024
2025-11-06 18:37:40.251,326.13,-0.018000000000000002,-0.297,-0.309,-0.468,-0.711,0.484,3.85,-3.71,-34.58,0.4524,-0.8487,-0.0514,-0.2687,0.037,-0.082,-0.017
2025-11-06 18:37:40.251,326.135,-0.019,-0.307,-0.3,-0.464,-0.7010000000000001,0.47600000000000003,3.85,-3.71,-34.58,0.45270000000000005,-0.8488,-0.0517,-0.2677,0.035,-0.093,-0.009000000000000001
2025-11-06 18:37:40.251,326.14,-0.012,-0.307,-0.29,-0.462,-0.683,0.466,3.3000000000000003,-4.15,-34.17,0.453,-0.8490000000000001,-0.052000000000000005,-0.26680000000000004,0.035,-0.111,0.001
2025-11-06 18:37:40.251,326.145,-0.004,-0.319,-0.28500000000000003,-0.458,-0.67,0.46,3.3000000000000003,-4.15,-34.17,0.45320000000000005,-0.8491000000000001,-0.0523,-0.26580000000000004,0.032,-0.125,0.007
2025-11-06 18:37:40.251,326.15,0.006,-0.334,-0.277,-0.452,-0.655,0.466,3.3000000000000003,-4.15,-34.17,0.4534,-0.8493,-0.052500000000000005,-0.26480000000000004,0.028,-0.14100000000000001,0.001
2025-11-06 18:37:40.251,326.155,0.018000000000000002,-0.35000000000000003,-0.27,-0.455,-0.643,0.47800000000000004,3.77,-3.74,-34.72,0.4536,-0.8495,-0.052700000000000004,-0.2637,0.032,-0.154,-0.009000000000000001
2025-11-06 18:37:40.251,326.16,0.026000000000000002,-0.358,-0.263,-0.456,-0.634,0.493,3.77,-3.74,-34.72,0.45380000000000004,-0.8498,-0.0529,-0.2627,0.035,-0.162,-0.024
2025-11-06 18:37:40.251,326.165,0.045,-0.364,-0.259,-0.46,-0.622,0.502,4.12,-3.97,-34.660000000000004,0.4539,-0.8500000000000001,-0.0531,-0.2616,0.041,-0.17500000000000002,-0.032
2025-11-06 18:37:40.251,326.17,0.064,-0.358,-0.262,-0.459,-0.607,0.512,4.12,-3.97,-34.660000000000004,0.454,-0.8503000000000001,-0.0533,-0.2606,0.041,-0.19,-0.042
2025-11-06 18:37:40.251,326.175,0.075,-0.34500000000000003,-0.272,-0.458,-0.602,0.526,4.12,-3.97,-34.660000000000004,0.4541,-0.8505,-0.0536,-0.2595,0.042,-0.195,-0.055
2025-11-06 18:37:40.251,326.18,0.075,-0.319,-0.28,-0.456,-0.605,0.533,4.38,-3.5300000000000002,-34.63,0.45420000000000005,-0.8508,-0.0539,-0.2585,0.043000000000000003,-0.192,-0.061
2025-11-06 18:37:40.251,326.185,0.067,-0.281,-0.28800000000000003,-0.444,-0.614,0.532,4.38,-3.5300000000000002,-34.63,0.45420000000000005,-0.8510000000000001,-0.0543,-0.2576,0.032,-0.183,-0.059000000000000004
2025-11-06 18:37:40.251,326.19,0.044,-0.226,-0.293,-0.436,-0.625,0.523,4.76,-4.32,-34.78,0.4544,-0.8511000000000001,-0.054700000000000006,-0.25680000000000003,0.026000000000000002,-0.17300000000000001,-0.049
2025-11-06 18:37:40.251,326.195,0.004,-0.163,-0.295,-0.425,-0.634,0.508,4.76,-4.32,-34.78,0.4546,-0.8512000000000001,-0.055200000000000006,-0.2561,0.016,-0.165,-0.033
2025-11-06 18:37:40.251,326.2,-0.048,-0.079,-0.297,-0.41000000000000003,-0.644,0.47500000000000003,4.76,-4.32,-34.78,0.4549,-0.8512000000000001,-0.0557,-0.2556,0.004,-0.157,0.0
2025-11-06 18:37:40.251,326.205,-0.094,-0.006,-0.304,-0.391,-0.648,0.453,5.08,-3.47,-34.84,0.45530000000000004,-0.8510000000000001,-0.0563,-0.2553,-0.014,-0.154,0.021
2025-11-06 18:37:40.251,326.21,-0.123,0.043000000000000003,-0.315,-0.38,-0.652,0.436,5.08,-3.47,-34.84,0.45570000000000005,-0.8508,-0.056900000000000006,-0.2551,-0.022,-0.151,0.038
2025-11-06 18:37:40.251,326.215,-0.15,0.07100000000000001,-0.328,-0.371,-0.654,0.425,5.43,-3.39,-34.72,0.45630000000000004,-0.8505,-0.057600000000000005,-0.2549,-0.03,-0.149,0.048
2025-11-06 18:37:40.251,326.22,-0.186,0.07,-0.343,-0.362,-0.661,0.423,5.43,-3.39,-34.72,0.45690000000000003,-0.8502000000000001,-0.058300000000000005,-0.25470000000000004,-0.039,-0.14400000000000002,0.05
2025-11-06 18:37:40.251,326.225,-0.227,0.059000000000000004,-0.356,-0.353,-0.668,0.426,5.43,-3.39,-34.72,0.4576,-0.8498,-0.059000000000000004,-0.2545,-0.046,-0.138,0.046
2025-11-06 18:37:40.251,326.23,-0.275,0.041,-0.377,-0.34500000000000003,-0.68,0.45,5.11,-3.88,-34.550000000000004,0.45840000000000003,-0.8494,-0.0597,-0.25420000000000004,-0.053,-0.127,0.02
2025-11-06 18:37:40.251,326.235,-0.318,0.003,-0.394,-0.328,-0.6900000000000001,0.454,5.11,-3.88,-34.550000000000004,0.45940000000000003,-0.8490000000000001,-0.0603,-0.2538,-0.068,-0.117,0.016
2025-11-06 18:37:40.251,326.24,-0.34700000000000003,-0.054,-0.406,-0.325,-0.6940000000000001,0.47600000000000003,5.26,-3.5,-34.58,0.46040000000000003,-0.8485,-0.0609,-0.2533,-0.069,-0.114,-0.007
2025-11-06 18:37:40.251,326.245,-0.369,-0.089,-0.42,-0.322,-0.685,0.491,5.26,-3.5,-34.58,0.4615,-0.8481000000000001,-0.061500000000000006,-0.25270000000000004,-0.07100000000000001,-0.125,-0.024
2025-11-06 18:37:40.251,326.25,-0.381,-0.126,-0.444,-0.321,-0.671,0.493,5.26,-3.5,-34.58,0.4626,-0.8476,-0.062,-0.252,-0.07,-0.14,-0.027
2025-11-06 18:37:40.251,326.255,-0.392,-0.159,-0.461,-0.314,-0.658,0.489,5.32,-3.5300000000000002,-34.52,0.46380000000000005,-0.8472000000000001,-0.0626,-0.25120000000000003,-0.074,-0.155,-0.025
2025-11-06 18:37:40.251,326.26,-0.40900000000000003,-0.196,-0.498,-0.318,-0.631,0.515,5.32,-3.5300000000000002,-34.52,0.465,-0.8467,-0.0632,-0.2503,-0.068,-0.184,-0.053
2025-11-06 18:37:40.251,326.265,-0.439,-0.198,-0.528,-0.328,-0.609,0.53,5.67,-3.56,-35.42,0.46640000000000004,-0.8462000000000001,-0.06380000000000001,-0.2494,-0.056,-0.20700000000000002,-0.07
2025-11-06 18:37:40.251,326.27,-0.46900000000000003,-0.17300000000000001,-0.553,-0.331,-0.599,0.52,5.67,-3.56,-35.42,0.46780000000000005,-0.8456,-0.0645,-0.2485,-0.051000000000000004,-0.22,-0.061
2025-11-06 18:37:40.251,326.275,-0.494,-0.137,-0.579,-0.336,-0.591,0.502,5.67,-3.56,-35.42,0.4692,-0.8450000000000001,-0.0653,-0.24760000000000001,-0.043000000000000003,-0.23,-0.045
2025-11-06 18:37:40.251,326.28,-0.498,-0.089,-0.6,-0.341,-0.587,0.487,6.3100000000000005,-3.47,-35.51,0.4707,-0.8444,-0.06620000000000001,-0.2469,-0.035,-0.23600000000000002,-0.033
2025-11-06 18:37:40.251,326.285,-0.48,-0.057,-0.615,-0.343,-0.584,0.466,6.3100000000000005,-3.47,-35.51,0.4721,-0.8437,-0.0671,-0.2461,-0.03,-0.243,-0.014
2025-11-06 18:37:40.251,326.29,-0.46,-0.035,-0.636,-0.34500000000000003,-0.587,0.431,6.3100000000000005,-3.47,-35.51,0.47350000000000003,-0.8431000000000001,-0.0682,-0.2454,-0.026000000000000002,-0.243,0.018000000000000002
2025-11-06 18:37:40.251,326.295,-0.424,-0.021,-0.657,-0.328,-0.586,0.4,6.28,-3.36,-36.27,0.47490000000000004,-0.8424,-0.0693,-0.2447,-0.04,-0.246,0.047
2025-11-06 18:37:40.251,326.3,-0.43,-0.017,-0.667,-0.32,-0.589,0.37,6.28,-3.36,-36.27,0.4762,-0.8418,-0.0704,-0.24400000000000002,-0.045,-0.245,0.076
2025-11-06 18:37:40.251,326.305,-0.47000000000000003,-0.019,-0.678,-0.311,-0.597,0.34600000000000003,6.48,-3.88,-36.01,0.4776,-0.8411000000000001,-0.07150000000000001,-0.24330000000000002,-0.052000000000000005,-0.24,0.098
2025-11-06 18:37:40.251,326.31,-0.527,-0.036000000000000004,-0.684,-0.308,-0.604,0.33,6.48,-3.88,-36.01,0.4792,-0.8403,-0.0726,-0.24250000000000002,-0.052000000000000005,-0.23600000000000002,0.111
2025-11-06 18:37:40.251,326.315,-0.605,-0.056,-0.6890000000000001,-0.306,-0.614,0.327,6.48,-3.88,-36.01,0.48090000000000005,-0.8395,-0.0737,-0.2417,-0.05,-0.228,0.112
2025-11-06 18:37:40.251,326.32,-0.734,-0.084,-0.6980000000000001,-0.315,-0.624,0.358,7.19,-3.3000000000000003,-36.42,0.48300000000000004,-0.8385,-0.0746,-0.2409,-0.038,-0.22,0.079
2025-11-06 18:37:40.251,326.325,-0.8270000000000001,-0.09,-0.706,-0.322,-0.622,0.4,7.19,-3.3000000000000003,-36.42,0.4852,-0.8373,-0.0755,-0.24000000000000002,-0.028,-0.225,0.033
2025-11-06 18:37:40.251,326.33,-0.927,-0.055,-0.711,-0.314,-0.624,0.446,8.36,-3.94,-36.910000000000004,0.48760000000000003,-0.8361000000000001,-0.07640000000000001,-0.2393,-0.033,-0.225,-0.016
2025-11-06 18:37:40.251,326.335,-1.032,-0.013000000000000001,-0.717,-0.314,-0.627,0.47300000000000003,8.36,-3.94,-36.910000000000004,0.4903,-0.8346,-0.07730000000000001,-0.2386,-0.03,-0.224,-0.047
2025-11-06 18:37:40.251,326.34,-1.115,0.03,-0.724,-0.328,-0.629,0.468,8.36,-3.94,-36.910000000000004,0.49310000000000004,-0.8330000000000001,-0.0782,-0.2381,-0.013000000000000001,-0.226,-0.046
2025-11-06 18:37:40.251,326.345,-1.155,0.062,-0.742,-0.359,-0.656,0.46,7.48,-3.3000000000000003,-37.5,0.496,-0.8314,-0.0791,-0.23750000000000002,0.02,-0.203,-0.044
2025-11-06 18:37:40.251,326.35,-1.166,0.07100000000000001,-0.773,-0.404,-0.757,0.508,7.48,-3.3000000000000003,-37.5,0.4989,-0.8297,-0.0801,-0.23700000000000002,0.069,-0.105,-0.094
2025-11-06 18:37:40.251,326.355,-1.197,0.092,-0.797,-0.422,-0.838,0.5710000000000001,8.09,-3.24,-37.76,0.5019,-0.8279000000000001,-0.08120000000000001,-0.23650000000000002,0.091,-0.026000000000000002,-0.162
2025-11-06 18:37:40.251,326.36,-1.26,0.124,-0.8180000000000001,-0.446,-0.9470000000000001,0.614,8.09,-3.24,-37.76,0.505,-0.8260000000000001,-0.0823,-0.2361,0.11900000000000001,0.079,-0.20800000000000002
2025-11-06 18:37:40.251,326.365,-1.328,0.189,-0.8290000000000001,-0.448,-1.0190000000000001,0.632,8.09,-3.24,-37.76,0.5083,-0.8240000000000001,-0.0835,-0.23570000000000002,0.125,0.148,-0.231
2025-11-06 18:37:40.251,326.37,-1.416,0.289,-0.8290000000000001,-0.449,-1.068,0.594,8.120000000000001,-3.12,-38.96,0.5117,-0.8218000000000001,-0.0847,-0.2356,0.129,0.192,-0.198
2025-11-06 18:37:40.251,326.375,-1.5070000000000001,0.41200000000000003,-0.8220000000000001,-0.427,-1.104,0.491,8.120000000000001,-3.12,-38.96,0.5153,-0.8194,-0.08600000000000001,-0.2358,0.112,0.222,-0.10200000000000001
2025-11-06 18:37:40.251,326.38,-1.598,0.622,-0.796,-0.399,-1.1360000000000001,0.362,8.03,-3.21,-39.52,0.5189,-0.8167000000000001,-0.08750000000000001,-0.23650000000000002,0.08600000000000001,0.248,0.019
2025-11-06 18:37:40.251,326.385,-1.621,0.74,-0.771,-0.37,-1.154,0.268,8.03,-3.21,-39.52,0.5226000000000001,-0.8139000000000001,-0.08900000000000001,-0.2374,0.06,0.26,0.106
2025-11-06 18:37:40.251,326.39,-1.607,0.807,-0.749,-0.357,-1.176,0.179,8.03,-3.21,-39.52,0.5262,-0.8111,-0.0906,-0.23850000000000002,0.049,0.276,0.187
2025-11-06 18:37:40.251,326.395,-1.568,0.8170000000000001,-0.713,-0.356,-1.206,0.123,9.700000000000001,-4.58,-39.660000000000004,0.5297000000000001,-0.8083,-0.0922,-0.2396,0.05,0.302,0.23500000000000001
2025-11-06 18:37:40.251,326.4,-1.512,0.74,-0.677,-0.378,-1.245,0.09,9.700000000000001,-4.58,-39.660000000000004,0.533,-0.8056000000000001,-0.0936,-0.2406,0.075,0.336,0.261
2025-11-06 18:37:40.251,326.405,-1.452,0.586,-0.632,-0.40900000000000003,-1.305,0.11800000000000001,8.91,-2.86,-40.86,0.5363,-0.8031,-0.09480000000000001,-0.2414,0.108,0.393,0.226
2025-11-06 18:37:40.251,326.41,-1.4060000000000001,0.278,-0.558,-0.444,-1.374,0.202,8.91,-2.86,-40.86,0.5394,-0.8009000000000001,-0.0954,-0.2416,0.145,0.461,0.136
2025-11-06 18:37:40.251,326.415,-1.383,0.11800000000000001,-0.508,-0.439,-1.416,0.291,8.91,-2.86,-40.86,0.5426,-0.7987000000000001,-0.09570000000000001,-0.24150000000000002,0.14200000000000002,0.502,0.041
2025-11-06 18:37:40.251,326.42,-1.365,0.022,-0.467,-0.432,-1.467,0.37,9.35,-3.3000000000000003,-40.980000000000004,0.5456,-0.7967000000000001,-0.0959,-0.24130000000000001,0.138,0.551,-0.042
2025-11-06 18:37:40.251,326.425,-1.324,0.032,-0.434,-0.41200000000000003,-1.516,0.432,9.35,-3.3000000000000003,-40.980000000000004,0.5486,-0.7947000000000001,-0.096,-0.2411,0.121,0.599,-0.109
2025-11-06 18:37:40.251,326.43,-1.268,0.12,-0.41200000000000003,-0.392,-1.559,0.47300000000000003,9.700000000000001,-3.77,-41.68,0.5514,-0.7927000000000001,-0.09620000000000001,-0.2411,0.10200000000000001,0.641,-0.156
2025-11-06 18:37:40.251,326.435,-1.193,0.258,-0.383,-0.372,-1.588,0.486,9.700000000000001,-3.77,-41.68,0.554,-0.7908000000000001,-0.0966,-0.2414,0.085,0.668,-0.17400000000000002
2025-11-06 18:37:40.251,326.44,-1.114,0.388,-0.367,-0.366,-1.591,0.47700000000000004,9.700000000000001,-3.77,-41.68,0.5563,-0.7889,-0.09720000000000001,-0.24200000000000002,0.079,0.669,-0.171
2025-11-06 18:37:40.251,326.445,-1.0,0.536,-0.356,-0.371,-1.592,0.447,9.82,-3.39,-42.64,0.5584,-0.787,-0.098,-0.24280000000000002,0.085,0.668,-0.146
2025-11-06 18:37:40.251,326.45,-0.923,0.556,-0.369,-0.375,-1.597,0.425,9.82,-3.39,-42.64,0.5604,-0.7853,-0.0989,-0.2437,0.091,0.67,-0.129
2025-11-06 18:37:40.251,326.455,-0.852,0.52,-0.381,-0.388,-1.612,0.405,9.76,-3.24,-42.26,0.5622,-0.7836000000000001,-0.0998,-0.2444,0.10400000000000001,0.683,-0.114
2025-11-06 18:37:40.251,326.46,-0.801,0.442,-0.40800000000000003,-0.384,-1.6400000000000001,0.397,9.76,-3.24,-42.26,0.5639000000000001,-0.7821,-0.1008,-0.2449,0.10200000000000001,0.709,-0.11
2025-11-06 18:37:40.251,326.465,-0.748,0.343,-0.405,-0.399,-1.697,0.391,9.76,-3.24,-42.26,0.5656,-0.7807000000000001,-0.10160000000000001,-0.24530000000000002,0.11900000000000001,0.764,-0.107
2025-11-06 18:37:40.251,326.47,-0.714,0.211,-0.394,-0.39,-1.74,0.387,10.4,-3.62,-42.35,0.5672,-0.7794000000000001,-0.1022,-0.24530000000000002,0.112,0.806,-0.106
2025-11-06 18:37:40.251,326.475,-0.665,0.164,-0.369,-0.397,-1.7690000000000001,0.391,10.4,-3.62,-42.35,0.5687,-0.7782,-0.1027,-0.24530000000000002,0.121,0.834,-0.113
2025-11-06 18:37:40.251,326.48,-0.588,0.189,-0.34400000000000003,-0.384,-1.778,0.39,10.49,-3.36,-42.58,0.5700000000000001,-0.7772,-0.1033,-0.2454,0.11,0.842,-0.115
2025-11-06 18:37:40.251,326.485,-0.508,0.267,-0.326,-0.366,-1.7710000000000001,0.388,10.49,-3.36,-42.58,0.5712,-0.7762,-0.10400000000000001,-0.2456,0.093,0.834,-0.116
2025-11-06 18:37:40.251,326.49,-0.426,0.372,-0.309,-0.367,-1.756,0.377,10.49,-3.36,-42.58,0.5721,-0.7752,-0.10490000000000001,-0.24600000000000002,0.095,0.8180000000000001,-0.108
2025-11-06 18:37:40.251,326.495,-0.34900000000000003,0.512,-0.292,-0.356,-1.696,0.362,10.11,-3.85,-42.79,0.5729000000000001,-0.7743,-0.10590000000000001,-0.2467,0.084,0.757,-0.096
2025-11-06 18:37:40.251,326.5,-0.296,0.629,-0.289,-0.35000000000000003,-1.613,0.342,10.11,-3.85,-42.79,0.5734,-0.7734000000000001,-0.1072,-0.24760000000000001,0.077,0.672,-0.08
2025-11-06 18:37:40.251,326.505,-0.246,0.675,-0.28400000000000003,-0.373,-1.5310000000000001,0.327,10.52,-3.12,-43.050000000000004,0.5739000000000001,-0.7726000000000001,-0.1085,-0.24860000000000002,0.101,0.59,-0.069
2025-11-06 18:37:40.251,326.51,-0.183,0.683,-0.273,-0.39,-1.45,0.309,10.52,-3.12,-43.050000000000004,0.5742,-0.7718,-0.10990000000000001,-0.24960000000000002,0.117,0.507,-0.055
2025-11-06 18:37:40.251,326.515,-0.098,0.656,-0.252,-0.423,-1.372,0.305,10.52,-3.12,-43.050000000000004,0.5744,-0.7712,-0.11130000000000001,-0.2505,0.15,0.428,-0.054
2025-11-06 18:37:40.251,326.52,0.001,0.613,-0.226,-0.44,-1.297,0.298,10.64,-3.5,-43.43,0.5744,-0.7708,-0.1126,-0.2514,0.166,0.353,-0.05
2025-11-06 18:37:40.251,326.525,0.129,0.535,-0.191,-0.465,-1.215,0.294,10.64,-3.5,-43.43,0.5741,-0.7706000000000001,-0.11380000000000001,-0.2521,0.191,0.27,-0.048
2025-11-06 18:37:40.251,326.53,0.247,0.486,-0.151,-0.47800000000000004,-1.1420000000000001,0.304,10.64,-3.24,-42.79,0.5735,-0.7706000000000001,-0.1149,-0.2528,0.20400000000000001,0.198,-0.059000000000000004
2025-11-06 18:37:40.251,326.535,0.318,0.482,-0.121,-0.486,-1.092,0.305,10.64,-3.24,-42.79,0.5728,-0.7707,-0.116,-0.2534,0.211,0.148,-0.06
2025-11-06 18:37:40.251,326.54,0.367,0.483,-0.10200000000000001,-0.492,-1.049,0.297,10.64,-3.24,-42.79,0.5720000000000001,-0.7709,-0.11710000000000001,-0.2541,0.217,0.105,-0.053
2025-11-06 18:37:40.251,326.545,0.401,0.489,-0.091,-0.487,-1.0070000000000001,0.28,10.49,-2.86,-42.61,0.5711,-0.7712,-0.1182,-0.2548,0.211,0.062,-0.035
2025-11-06 18:37:40.251,326.55,0.42,0.496,-0.091,-0.47800000000000004,-0.971,0.261,10.49,-2.86,-42.61,0.5702,-0.7715000000000001,-0.1194,-0.2555,0.202,0.027,-0.015
2025-11-06 18:37:40.251,326.555,0.423,0.495,-0.111,-0.451,-0.926,0.229,10.28,-3.44,-42.730000000000004,0.5693,-0.7718,-0.12050000000000001,-0.25620000000000004,0.17500000000000002,-0.017,0.016
2025-11-06 18:37:40.251,326.56,0.41000000000000003,0.491,-0.145,-0.423,-0.899,0.20500000000000002,10.28,-3.44,-42.730000000000004,0.5684,-0.772,-0.1217,-0.25680000000000003,0.147,-0.044,0.041
2025-11-06 18:37:40.251,326.565,0.382,0.47600000000000003,-0.187,-0.386,-0.874,0.183,10.28,-3.44,-42.730000000000004,0.5676,-0.7722,-0.12300000000000001,-0.2574,0.11,-0.069,0.064
2025-11-06 18:37:40.251,326.57,0.342,0.447,-0.234,-0.34500000000000003,-0.852,0.163,10.43,-3.15,-42.47,0.5669000000000001,-0.7723,-0.12430000000000001,-0.25780000000000003,0.069,-0.091,0.085
2025-11-06 18:37:40.251,326.575,0.296,0.41400000000000003,-0.28300000000000003,-0.3,-0.8300000000000001,0.15,10.43,-3.15,-42.47,0.5664,-0.7724000000000001,-0.12560000000000002,-0.2581,0.025,-0.113,0.098
2025-11-06 18:37:40.251,326.58,0.244,0.365,-0.329,-0.25,-0.804,0.14,10.43,-3.15,-42.47,0.5660000000000001,-0.7724000000000001,-0.1269,-0.25830000000000003,-0.024,-0.139,0.109
2025-11-06 18:37:40.251,326.585,0.202,0.318,-0.38,-0.188,-0.781,0.131,11.040000000000001,-3.21,-41.910000000000004,0.5657,-0.7724000000000001,-0.1283,-0.25830000000000003,-0.084,-0.162,0.11800000000000001
2025-11-06 18:37:40.251,326.59,0.112,0.20800000000000002,-0.424,-0.128,-0.76,0.128,11.040000000000001,-3.21,-41.910000000000004,0.5657,-0.7723,-0.12940000000000002,-0.2581,-0.14300000000000002,-0.183,0.121
2025-11-06 18:37:40.251,326.595,0.07,0.147,-0.446,-0.078,-0.749,0.129,10.93,-2.45,-41.59,0.5658000000000001,-0.7722,-0.1306,-0.2577,-0.191,-0.193,0.121
2025-11-06 18:37:40.251,326.6,0.037,0.093,-0.461,-0.036000000000000004,-0.744,0.136,10.93,-2.45,-41.59,0.5660000000000001,-0.772,-0.1316,-0.25730000000000003,-0.231,-0.199,0.113
2025-11-06 18:37:40.251,326.605,0.001,0.043000000000000003,-0.468,0.001,-0.744,0.147,10.93,-2.45,-41.59,0.5663,-0.7718,-0.1326,-0.25670000000000004,-0.267,-0.198,0.10200000000000001
2025-11-06 18:37:40.251,326.61,-0.046,0.017,-0.46900000000000003,0.033,-0.756,0.167,10.81,-4.8500000000000005,-41.910000000000004,0.5667,-0.7716000000000001,-0.1335,-0.2561,-0.296,-0.187,0.082
2025-11-06 18:37:40.251,326.615,-0.137,0.002,-0.449,0.057,-0.783,0.20700000000000002,10.81,-4.8500000000000005,-41.910000000000004,0.5672,-0.7712,-0.1343,-0.2555,-0.318,-0.159,0.043000000000000003
2025-11-06 18:37:40.251,326.62,-0.203,-0.002,-0.432,0.061,-0.812,0.226,11.34,-2.89,-41.85,0.5679000000000001,-0.7707,-0.135,-0.255,-0.32,-0.131,0.024
2025-11-06 18:37:40.251,326.625,-0.262,-0.024,-0.41000000000000003,0.059000000000000004,-0.847,0.23500000000000001,11.34,-2.89,-41.85,0.5687,-0.7702,-0.1356,-0.2545,-0.315,-0.096,0.014
2025-11-06 18:37:40.251,326.63,-0.307,-0.054,-0.388,0.041,-0.878,0.23700000000000002,11.34,-2.89,-41.85,0.5696,-0.7697,-0.1361,-0.254,-0.295,-0.066,0.011
2025-11-06 18:37:40.251,326.635,-0.34800000000000003,-0.09,-0.366,0.014,-0.92,0.23600000000000002,11.8,-2.45,-41.94,0.5705,-0.7691,-0.1365,-0.2534,-0.267,-0.025,0.011
2025-11-06 18:37:40.251,326.64,-0.386,-0.125,-0.34400000000000003,-0.018000000000000002,-0.963,0.245,11.8,-2.45,-41.94,0.5716,-0.7685000000000001,-0.1368,-0.2528,-0.231,0.016,0.002
2025-11-06 18:37:40.251,326.645,-0.435,-0.134,-0.319,-0.073,-1.024,0.248,11.31,-2.8000000000000003,-42.58,0.5727,-0.7678,-0.137,-0.25220000000000004,-0.17400000000000002,0.076,-0.001
2025-11-06 18:37:40.251,326.65,-0.465,-0.127,-0.303,-0.11,-1.052,0.251,11.31,-2.8000000000000003,-42.58,0.5738,-0.7671,-0.1371,-0.25170000000000003,-0.135,0.10200000000000001,-0.006
2025-11-06 18:37:40.251,326.655,-0.494,-0.101,-0.292,-0.148,-1.061,0.251,11.31,-2.8000000000000003,-42.58,0.5750000000000001,-0.7663000000000001,-0.13720000000000002,-0.2513,-0.095,0.11,-0.008
2025-11-06 18:37:40.251,326.66,-0.522,-0.08,-0.28500000000000003,-0.189,-1.054,0.25,11.75,-3.42,-42.15,0.5762,-0.7655000000000001,-0.1373,-0.2509,-0.053,0.10200000000000001,-0.01
2025-11-06 18:37:40.251,326.665,-0.547,-0.069,-0.278,-0.228,-1.041,0.245,11.75,-3.42,-42.15,0.5775,-0.7646000000000001,-0.1374,-0.2506,-0.013000000000000001,0.08700000000000001,-0.008
2025-11-06 18:37:40.251,326.67,-0.5710000000000001,-0.058,-0.272,-0.271,-1.0190000000000001,0.241,11.83,-2.16,-42.76,0.5788,-0.7637,-0.1375,-0.2503,0.03,0.064,-0.007
2025-11-06 18:37:40.251,326.675,-0.593,-0.052000000000000005,-0.266,-0.306,-0.988,0.234,11.83,-2.16,-42.76,0.5802,-0.7627,-0.1375,-0.2501,0.067,0.032,-0.004
2025-11-06 18:37:40.251,326.68,-0.594,-0.051000000000000004,-0.261,-0.33,-0.972,0.225,11.83,-2.16,-42.76,0.5815,-0.7618,-0.1376,-0.24980000000000002,0.091,0.015,0.001
2025-11-06 18:37:40.251,326.685,-0.583,-0.06,-0.258,-0.34600000000000003,-0.9530000000000001,0.21,12.56,-2.16,-42.99,0.5828,-0.7608,-0.1376,-0.24960000000000002,0.108,-0.005,0.013000000000000001
2025-11-06 18:37:40.251,326.69,-0.553,-0.079,-0.25,-0.36,-0.935,0.193,12.56,-2.16,-42.99,0.5841000000000001,-0.76,-0.1376,-0.24930000000000002,0.123,-0.024,0.027
2025-11-06 18:37:40.251,326.695,-0.51,-0.091,-0.242,-0.367,-0.919,0.177,12.77,-4.0,-43.26,0.5853,-0.7592,-0.1376,-0.249,0.132,-0.041,0.04
2025-11-06 18:37:40.251,326.7,-0.457,-0.105,-0.23700000000000002,-0.366,-0.904,0.165,12.77,-4.0,-43.26,0.5863,-0.7585000000000001,-0.13770000000000002,-0.24860000000000002,0.132,-0.058,0.049
2025-11-06 18:37:40.251,326.705,-0.381,-0.107,-0.228,-0.358,-0.888,0.155,12.77,-4.0,-43.26,0.5873,-0.7579,-0.13770000000000002,-0.24830000000000002,0.125,-0.074,0.057
2025-11-06 18:37:40.251,326.71,-0.332,-0.097,-0.224,-0.34600000000000003,-0.877,0.15,12.39,-2.68,-43.34,0.5881000000000001,-0.7573000000000001,-0.1378,-0.2479,0.113,-0.08600000000000001,0.06
2025-11-06 18:37:40.251,326.715,-0.28800000000000003,-0.08600000000000001,-0.22,-0.331,-0.871,0.149,12.39,-2.68,-43.34,0.5888,-0.7569,-0.1379,-0.24750000000000003,0.1,-0.092,0.06
2025-11-06 18:37:40.251,326.72,-0.25,-0.069,-0.218,-0.311,-0.87,0.148,12.92,-2.16,-43.96,0.5895,-0.7564000000000001,-0.1381,-0.2472,0.081,-0.094,0.059000000000000004
2025-11-06 18:37:40.251,326.725,-0.218,-0.058,-0.213,-0.294,-0.87,0.148,12.92,-2.16,-43.96,0.5900000000000001,-0.7561,-0.1383,-0.24680000000000002,0.065,-0.094,0.059000000000000004
2025-11-06 18:37:40.251,326.73,-0.188,-0.056,-0.20800000000000002,-0.267,-0.877,0.14,12.92,-2.16,-43.96,0.5906,-0.7557,-0.1385,-0.24650000000000002,0.039,-0.08700000000000001,0.065
2025-11-06 18:37:40.251,326.735,-0.161,-0.059000000000000004,-0.20700000000000002,-0.244,-0.886,0.138,13.06,-2.92,-43.67,0.5910000000000001,-0.7555000000000001,-0.13870000000000002,-0.2461,0.017,-0.078,0.067
2025-11-06 18:37:40.251,326.74,-0.121,-0.061,-0.20700000000000002,-0.221,-0.901,0.138,13.06,-2.92,-43.67,0.5914,-0.7552,-0.1389,-0.24580000000000002,-0.004,-0.064,0.067
2025-11-06 18:37:40.251,326.745,-0.1,-0.057,-0.213,-0.203,-0.916,0.14400000000000002,12.94,-2.48,-44.02,0.5918,-0.755,-0.13920000000000002,-0.2454,-0.02,-0.049,0.061
2025-11-06 18:37:40.251,326.75,-0.083,-0.047,-0.223,-0.188,-0.935,0.151,12.94,-2.48,-44.02,0.5921000000000001,-0.7548,-0.1395,-0.24500000000000002,-0.034,-0.029,0.054
2025-11-06 18:37:40.258,326.755,-0.08700000000000001,-0.045,-0.23700000000000002,-0.177,-0.9560000000000001,0.159,12.94,-2.48,-44.02,0.5924,-0.7547,-0.1398,-0.2446,-0.043000000000000003,-0.009000000000000001,0.046
2025-11-06 18:37:40.258,326.76,-0.117,-0.034,-0.256,-0.163,-0.983,0.17300000000000001,12.77,-3.12,-43.64,0.5928,-0.7544000000000001,-0.14020000000000002,-0.2442,-0.055,0.018000000000000002,0.033
2025-11-06 18:37:40.258,326.765,-0.16,-0.041,-0.277,-0.153,-1.0070000000000001,0.185,12.77,-3.12,-43.64,0.5933,-0.7541,-0.1406,-0.24380000000000002,-0.065,0.042,0.02
2025-11-06 18:37:40.258,326.77,-0.197,-0.039,-0.296,-0.14,-1.024,0.191,13.32,-2.33,-43.81,0.5939,-0.7537,-0.14100000000000001,-0.24330000000000002,-0.076,0.058,0.013000000000000001
2025-11-06 18:37:40.258,326.775,-0.23700000000000002,-0.035,-0.311,-0.133,-1.046,0.195,13.32,-2.33,-43.81,0.5946,-0.7532,-0.1414,-0.2429,-0.081,0.08,0.009000000000000001
2025-11-06 18:37:40.258,326.78,-0.267,-0.03,-0.325,-0.127,-1.06,0.195,13.32,-2.33,-43.81,0.5953,-0.7527,-0.1418,-0.24250000000000002,-0.08600000000000001,0.093,0.008
2025-11-06 18:37:40.258,326.785,-0.291,-0.032,-0.339,-0.128,-1.07,0.189,13.32,-2.2800000000000002,-44.25,0.5961000000000001,-0.7521,-0.1422,-0.24200000000000002,-0.082,0.10200000000000001,0.013000000000000001
2025-11-06 18:37:40.258,326.79,-0.315,-0.058,-0.343,-0.131,-1.088,0.176,13.32,-2.2800000000000002,-44.25,0.5969,-0.7516,-0.1426,-0.24150000000000002,-0.078,0.12,0.025
2025-11-06 18:37:40.258,326.795,-0.334,-0.091,-0.34700000000000003,-0.14,-1.11,0.167,13.68,-2.13,-43.78,0.5978,-0.751,-0.1429,-0.24100000000000002,-0.066,0.14100000000000001,0.033
2025-11-06 18:37:40.258,326.8,-0.339,-0.11900000000000001,-0.34400000000000003,-0.148,-1.1300000000000001,0.166,13.68,-2.13,-43.78,0.5987,-0.7504000000000001,-0.1432,-0.2404,-0.056,0.16,0.033
2025-11-06 18:37:40.258,326.805,-0.34,-0.161,-0.33,-0.157,-1.149,0.165,13.68,-2.13,-43.78,0.5996,-0.7498,-0.1434,-0.23970000000000002,-0.046,0.178,0.032
2025-11-06 18:37:40.258,326.81,-0.342,-0.195,-0.303,-0.168,-1.163,0.17300000000000001,13.85,-1.92,-44.78,0.6005,-0.7493000000000001,-0.14350000000000002,-0.23900000000000002,-0.033,0.192,0.023
2025-11-06 18:37:40.258,326.815,-0.34,-0.219,-0.275,-0.18,-1.169,0.17300000000000001,13.85,-1.92,-44.78,0.6014,-0.7488,-0.14350000000000002,-0.2384,-0.019,0.197,0.021
2025-11-06 18:37:40.258,326.82,-0.34400000000000003,-0.253,-0.234,-0.199,-1.168,0.17400000000000002,14.35,-2.13,-45.300000000000004,0.6023000000000001,-0.7483000000000001,-0.1434,-0.23770000000000002,0.0,0.196,0.019
2025-11-06 18:37:40.258,326.825,-0.34500000000000003,-0.278,-0.198,-0.209,-1.159,0.17200000000000001,14.35,-2.13,-45.300000000000004,0.6032000000000001,-0.7479,-0.1431,-0.23700000000000002,0.012,0.186,0.019
2025-11-06 18:37:40.258,326.83,-0.341,-0.293,-0.171,-0.214,-1.143,0.168,14.35,-2.13,-45.300000000000004,0.6041000000000001,-0.7474000000000001,-0.1428,-0.2363,0.018000000000000002,0.17,0.021
2025-11-06 18:37:40.258,326.835,-0.342,-0.299,-0.149,-0.217,-1.122,0.161,13.82,-2.16,-45.89,0.6049,-0.747,-0.14250000000000002,-0.23570000000000002,0.021,0.148,0.026000000000000002
2025-11-06 18:37:40.258,326.84,-0.34600000000000003,-0.296,-0.133,-0.218,-1.101,0.158,13.82,-2.16,-45.89,0.6058,-0.7466,-0.1421,-0.23500000000000001,0.022,0.127,0.028
2025-11-06 18:37:40.258,326.845,-0.35000000000000003,-0.28700000000000003,-0.126,-0.215,-1.077,0.156,13.82,-2.16,-45.89,0.6066,-0.7462000000000001,-0.14170000000000002,-0.23450000000000001,0.021,0.10200000000000001,0.027
2025-11-06 18:37:40.259,326.85,-0.34900000000000003,-0.28700000000000003,-0.122,-0.219,-1.038,0.156,14.030000000000001,-2.1,-45.800000000000004,0.6075,-0.7457,-0.1413,-0.23390000000000002,0.025,0.062,0.025
2025-11-06 18:37:40.259,326.855,-0.335,-0.298,-0.132,-0.22,-1.012,0.157,14.030000000000001,-2.1,-45.800000000000004,0.6083000000000001,-0.7453000000000001,-0.1409,-0.23320000000000002,0.026000000000000002,0.036000000000000004,0.023
2025-11-06 18:37:40.259,326.86,-0.314,-0.299,-0.151,-0.218,-0.987,0.154,14.030000000000001,-1.4000000000000001,-46.09,0.6091,-0.7449,-0.1406,-0.2326,0.025,0.011,0.023
2025-11-06 18:37:40.259,326.865,-0.29,-0.313,-0.17400000000000002,-0.213,-0.962,0.154,14.030000000000001,-1.4000000000000001,-46.09,0.6099,-0.7446,-0.1403,-0.2318,0.021,-0.014,0.022
2025-11-06 18:37:40.259,326.87,-0.263,-0.32,-0.2,-0.211,-0.9400000000000001,0.148,14.030000000000001,-1.4000000000000001,-46.09,0.6106,-0.7443000000000001,-0.14,-0.231,0.02,-0.036000000000000004,0.026000000000000002
2025-11-06 18:37:40.259,326.875,-0.243,-0.334,-0.229,-0.20700000000000002,-0.918,0.147,14.26,-1.16,-45.980000000000004,0.6114,-0.744,-0.1398,-0.23020000000000002,0.017,-0.059000000000000004,0.026000000000000002
2025-11-06 18:37:40.259,326.88,-0.23,-0.34700000000000003,-0.265,-0.199,-0.896,0.14200000000000002,14.26,-1.16,-45.980000000000004,0.6121,-0.7437,-0.13970000000000002,-0.22920000000000001,0.011,-0.08,0.029
2025-11-06 18:37:40.259,326.885,-0.225,-0.391,-0.3,-0.185,-0.881,0.139,13.85,-1.6300000000000001,-46.27,0.6128,-0.7435,-0.1395,-0.2281,-0.001,-0.096,0.031
2025-11-06 18:37:40.260,326.89,-0.227,-0.41300000000000003,-0.325,-0.177,-0.877,0.135,13.85,-1.6300000000000001,-46.27,0.6136,-0.7432000000000001,-0.1394,-0.22690000000000002,-0.007,-0.101,0.034
2025-11-06 18:37:40.260,326.895,-0.227,-0.43,-0.34900000000000003,-0.169,-0.879,0.135,13.85,-1.6300000000000001,-46.27,0.6144000000000001,-0.743,-0.1393,-0.2257,-0.013000000000000001,-0.099,0.034
2025-11-06 18:37:40.260,326.9,-0.223,-0.438,-0.367,-0.161,-0.884,0.134,14.290000000000001,-1.84,-46.56,0.6152000000000001,-0.7427,-0.13920000000000002,-0.22440000000000002,-0.018000000000000002,-0.095,0.033
2025-11-06 18:37:40.260,326.905,-0.218,-0.442,-0.382,-0.156,-0.889,0.137,14.290000000000001,-1.84,-46.56,0.616,-0.7425,-0.1391,-0.22310000000000002,-0.022,-0.09,0.03
2025-11-06 18:37:40.260,326.91,-0.211,-0.431,-0.394,-0.148,-0.904,0.138,14.58,-1.52,-46.68,0.6167,-0.7422000000000001,-0.1391,-0.2218,-0.027,-0.075,0.029
2025-11-06 18:37:40.260,326.915,-0.199,-0.42,-0.397,-0.138,-0.915,0.139,14.58,-1.52,-46.68,0.6175,-0.742,-0.1391,-0.2205,-0.035,-0.065,0.027
2025-11-06 18:37:40.260,326.92,-0.188,-0.40800000000000003,-0.396,-0.13,-0.928,0.14100000000000001,14.58,-1.52,-46.68,0.6182000000000001,-0.7418,-0.13920000000000002,-0.2192,-0.04,-0.052000000000000005,0.025
2025-11-06 18:37:40.260,326.925,-0.169,-0.4,-0.391,-0.11900000000000001,-0.9380000000000001,0.14,14.61,-1.43,-47.17,0.6189,-0.7416,-0.13920000000000002,-0.2179,-0.049,-0.042,0.025
2025-11-06 18:37:40.260,326.93,-0.149,-0.393,-0.384,-0.111,-0.9480000000000001,0.139,14.61,-1.43,-47.17,0.6195,-0.7414000000000001,-0.1393,-0.21660000000000001,-0.055,-0.033,0.026000000000000002
2025-11-06 18:37:40.260,326.935,-0.132,-0.39,-0.372,-0.10400000000000001,-0.9550000000000001,0.139,14.700000000000001,-1.75,-46.88,0.6201,-0.7412000000000001,-0.1393,-0.2154,-0.06,-0.026000000000000002,0.026000000000000002
2025-11-06 18:37:40.260,326.94,-0.111,-0.387,-0.354,-0.093,-0.96,0.146,14.700000000000001,-1.75,-46.88,0.6207,-0.7411,-0.1394,-0.2142,-0.068,-0.021,0.019
2025-11-06 18:37:40.260,326.945,-0.1,-0.385,-0.338,-0.082,-0.964,0.14200000000000002,14.700000000000001,-1.75,-46.88,0.6212,-0.741,-0.1394,-0.21300000000000002,-0.077,-0.018000000000000002,0.022
2025-11-06 18:37:40.260,326.95,-0.098,-0.391,-0.325,-0.073,-0.966,0.134,14.870000000000001,-0.96,-47.58,0.6217,-0.741,-0.1393,-0.21180000000000002,-0.084,-0.016,0.03
2025-11-06 18:37:40.260,326.955,-0.089,-0.402,-0.312,-0.065,-0.966,0.122,14.870000000000001,-0.96,-47.58,0.6222,-0.7409,-0.1393,-0.2106,-0.09,-0.017,0.042
2025-11-06 18:37:40.260,326.96,-0.083,-0.422,-0.299,-0.057,-0.965,0.109,15.98,-1.11,-47.09,0.6227,-0.7409,-0.13920000000000002,-0.2094,-0.096,-0.018000000000000002,0.055
2025-11-06 18:37:40.260,326.965,-0.077,-0.449,-0.28800000000000003,-0.053,-0.9590000000000001,0.1,15.98,-1.11,-47.09,0.6231,-0.7409,-0.139,-0.2081,-0.099,-0.024,0.064
2025-11-06 18:37:40.260,326.97,-0.073,-0.493,-0.278,-0.047,-0.9550000000000001,0.092,15.98,-1.11,-47.09,0.6236,-0.7409,-0.1388,-0.2068,-0.10300000000000001,-0.029,0.07200000000000001
2025-11-06 18:37:40.260,326.975,-0.069,-0.531,-0.274,-0.043000000000000003,-0.9510000000000001,0.093,15.46,-0.99,-47.82,0.6241,-0.7409,-0.1384,-0.2054,-0.105,-0.033,0.07100000000000001
2025-11-06 18:37:40.260,326.98,-0.064,-0.561,-0.275,-0.04,-0.9510000000000001,0.089,15.46,-0.99,-47.82,0.6245,-0.741,-0.1381,-0.20400000000000001,-0.106,-0.033,0.075
2025-11-06 18:37:40.260,326.985,-0.056,-0.584,-0.279,-0.034,-0.9510000000000001,0.084,14.99,-0.81,-47.82,0.625,-0.7411,-0.13770000000000002,-0.2025,-0.111,-0.034,0.08
2025-11-06 18:37:40.260,326.99,-0.053,-0.598,-0.28400000000000003,-0.034,-0.9490000000000001,0.08700000000000001,14.99,-0.81,-47.82,0.6255000000000001,-0.7412000000000001,-0.1373,-0.20090000000000002,-0.109,-0.035,0.077
2025-11-06 18:37:40.260,326.995,-0.056,-0.613,-0.292,-0.034,-0.9490000000000001,0.085,14.99,-0.81,-47.82,0.626,-0.7413000000000001,-0.1369,-0.19940000000000002,-0.107,-0.036000000000000004,0.079
2025-11-06 18:37:40.260,327.0,-0.067,-0.639,-0.298,-0.042,-0.9500000000000001,0.088,15.52,-0.58,-47.67,0.6265000000000001,-0.7414000000000001,-0.1365,-0.19770000000000001,-0.096,-0.036000000000000004,0.076
2025-11-06 18:37:40.260,327.005,-0.076,-0.654,-0.3,-0.05,-0.9440000000000001,0.092,15.52,-0.58,-47.67,0.627,-0.7415,-0.136,-0.1961,-0.08700000000000001,-0.042,0.07200000000000001
2025-11-06 18:37:40.260,327.01,-0.083,-0.667,-0.298,-0.059000000000000004,-0.9380000000000001,0.097,15.58,-0.4,-47.96,0.6275000000000001,-0.7415,-0.1355,-0.19440000000000002,-0.076,-0.048,0.067
2025-11-06 18:37:40.260,327.015,-0.082,-0.6900000000000001,-0.296,-0.066,-0.935,0.10300000000000001,15.58,-0.4,-47.96,0.6281,-0.7416,-0.135,-0.1927,-0.067,-0.05,0.06
2025-11-06 18:37:40.260,327.02,-0.069,-0.707,-0.294,-0.07,-0.932,0.11,15.58,-0.4,-47.96,0.6286,-0.7417,-0.13440000000000002,-0.191,-0.062,-0.054,0.053
2025-11-06 18:37:40.260,327.025,-0.053,-0.727,-0.289,-0.074,-0.929,0.11800000000000001,15.93,-0.96,-48.11,0.6291,-0.7419,-0.1338,-0.1892,-0.055,-0.057,0.045
2025-11-06 18:37:40.260,327.03,-0.034,-0.737,-0.28400000000000003,-0.078,-0.928,0.125,15.93,-0.96,-48.11,0.6296,-0.742,-0.1332,-0.1874,-0.049,-0.058,0.038
2025-11-06 18:37:40.260,327.035,-0.004,-0.749,-0.27,-0.081,-0.934,0.132,16.66,-2.57,-48.52,0.63,-0.7423000000000001,-0.1326,-0.18560000000000001,-0.044,-0.053,0.032
2025-11-06 18:37:40.260,327.04,0.013000000000000001,-0.741,-0.256,-0.083,-0.9410000000000001,0.136,16.66,-2.57,-48.52,0.6303000000000001,-0.7425,-0.132,-0.18380000000000002,-0.04,-0.045,0.028
2025-11-06 18:37:40.260,327.045,0.038,-0.734,-0.241,-0.08600000000000001,-0.9510000000000001,0.139,16.66,-2.57,-48.52,0.6306,-0.7428,-0.1313,-0.182,-0.036000000000000004,-0.035,0.026000000000000002
2025-11-06 18:37:40.260,327.05,0.068,-0.721,-0.221,-0.08700000000000001,-0.969,0.137,15.84,-0.81,-49.02,0.6308,-0.7432000000000001,-0.1307,-0.18030000000000002,-0.032,-0.018000000000000002,0.029
2025-11-06 18:37:40.260,327.055,0.10400000000000001,-0.704,-0.192,-0.09,-0.99,0.14,15.84,-0.81,-49.02,0.631,-0.7436,-0.13,-0.1787,-0.028,0.003,0.028
2025-11-06 18:37:40.260,327.06,0.13,-0.6900000000000001,-0.158,-0.096,-1.012,0.14200000000000002,16.8,-1.6,-48.9,0.631,-0.744,-0.1293,-0.1771,-0.02,0.024,0.027
2025-11-06 18:37:40.260,327.065,0.14400000000000002,-0.681,-0.129,-0.1,-1.031,0.145,16.8,-1.6,-48.9,0.631,-0.7445,-0.12860000000000002,-0.1756,-0.015,0.044,0.026000000000000002
2025-11-06 18:37:40.262,327.07,0.15,-0.664,-0.10200000000000001,-0.10400000000000001,-1.047,0.147,16.8,-1.6,-48.9,0.631,-0.745,-0.1278,-0.1741,-0.01,0.059000000000000004,0.024
2025-11-06 18:37:40.262,327.075,0.14300000000000002,-0.639,-0.074,-0.111,-1.063,0.145,16.98,-0.26,-48.72,0.631,-0.7455,-0.12710000000000002,-0.17270000000000002,-0.002,0.075,0.028
2025-11-06 18:37:40.262,327.08,0.133,-0.614,-0.053,-0.121,-1.072,0.139,16.98,-0.26,-48.72,0.631,-0.7459,-0.1263,-0.1715,0.008,0.084,0.035
2025-11-06 18:37:40.262,327.085,0.112,-0.578,-0.027,-0.133,-1.077,0.127,16.830000000000002,0.0,-49.13,0.6309,-0.7463000000000001,-0.1255,-0.1703,0.021,0.089,0.048
2025-11-06 18:37:40.262,327.09,0.092,-0.55,-0.007,-0.14400000000000002,-1.078,0.117,16.830000000000002,0.0,-49.13,0.6309,-0.7467,-0.1247,-0.16920000000000002,0.032,0.09,0.059000000000000004
2025-11-06 18:37:40.262,327.095,0.075,-0.532,0.005,-0.155,-1.074,0.114,16.830000000000002,0.0,-49.13,0.631,-0.747,-0.12390000000000001,-0.16820000000000002,0.044,0.08600000000000001,0.063
2025-11-06 18:37:40.262,327.1,0.061,-0.513,0.01,-0.17200000000000001,-1.07,0.112,16.19,-0.73,-49.1,0.631,-0.7473000000000001,-0.1231,-0.16720000000000002,0.061,0.081,0.065
2025-11-06 18:37:40.264,327.105,0.054,-0.512,0.017,-0.157,-1.058,0.095,16.19,-0.73,-49.1,0.6311,-0.7476,-0.1223,-0.1663,0.046,0.07,0.082
2025-11-06 18:37:40.264,327.11,0.041,-0.49,0.039,-0.191,-1.051,0.128,16.19,-0.73,-49.51,0.6311,-0.7479,-0.12150000000000001,-0.16540000000000002,0.08,0.063,0.049
2025-11-06 18:37:40.264,327.115,0.037,-0.437,0.045,-0.187,-1.035,0.122,15.93,0.14,-49.51,0.6312,-0.7482000000000001,-0.1208,-0.1647,0.077,0.047,0.055
2025-11-06 18:37:40.264,327.12,0.033,-0.405,0.051000000000000004,-0.184,-1.0190000000000001,0.124,15.93,0.14,-49.51,0.6312,-0.7484000000000001,-0.12010000000000001,-0.164,0.074,0.031,0.054
2025-11-06 18:37:40.264,327.125,0.034,-0.388,0.056,-0.184,-1.006,0.129,17.36,-0.46,-48.84,0.6313000000000001,-0.7486,-0.1194,-0.1633,0.073,0.018000000000000002,0.049
2025-11-06 18:37:40.264,327.13,0.035,-0.377,0.062,-0.179,-0.995,0.133,17.36,-0.46,-48.84,0.6313000000000001,-0.7488,-0.1187,-0.1627,0.068,0.007,0.044
2025-11-06 18:37:40.264,327.135,0.038,-0.359,0.07100000000000001,-0.17400000000000002,-0.979,0.135,17.36,-0.46,-48.84,0.6313000000000001,-0.749,-0.11800000000000001,-0.1622,0.063,-0.007,0.043000000000000003
2025-11-06 18:37:40.264,327.14,0.041,-0.334,0.076,-0.162,-0.966,0.126,17.36,0.43,-49.63,0.6313000000000001,-0.7492000000000001,-0.1173,-0.1617,0.051000000000000004,-0.021,0.051000000000000004
2025-11-06 18:37:40.264,327.145,0.054,-0.313,0.081,-0.139,-0.9460000000000001,0.106,17.36,0.43,-49.63,0.6313000000000001,-0.7495,-0.11670000000000001,-0.1612,0.027,-0.041,0.07200000000000001
2025-11-06 18:37:40.264,327.15,0.069,-0.307,0.083,-0.125,-0.935,0.094,16.63,0.0,-49.57,0.6312,-0.7497,-0.11610000000000001,-0.1607,0.013000000000000001,-0.052000000000000005,0.084
2025-11-06 18:37:40.264,327.155,0.08600000000000001,-0.305,0.079,-0.111,-0.927,0.08600000000000001,16.63,0.0,-49.57,0.6311,-0.75,-0.1155,-0.1602,0.0,-0.06,0.092
2025-11-06 18:37:40.264,327.16,0.094,-0.317,0.076,-0.096,-0.924,0.082,16.63,0.0,-49.57,0.631,-0.7503000000000001,-0.115,-0.1597,-0.015,-0.062,0.097
2025-11-06 18:37:40.264,327.165,0.101,-0.333,0.069,-0.084,-0.927,0.082,16.42,-0.2,-49.51,0.6309,-0.7506,-0.1144,-0.1592,-0.027,-0.059000000000000004,0.097
2025-11-06 18:37:40.264,327.17,0.10400000000000001,-0.352,0.063,-0.074,-0.933,0.08700000000000001,16.42,-0.2,-49.51,0.6307,-0.7509,-0.11370000000000001,-0.15860000000000002,-0.037,-0.053,0.094
2025-11-06 18:37:40.264,327.175,0.11,-0.358,0.05,-0.068,-0.9440000000000001,0.095,16.16,-0.64,-49.480000000000004,0.6306,-0.7513000000000001,-0.1131,-0.1579,-0.043000000000000003,-0.042,0.08600000000000001
2025-11-06 18:37:40.264,327.18,0.097,-0.389,0.035,-0.062,-0.96,0.105,16.16,-0.64,-49.480000000000004,0.6305000000000001,-0.7516,-0.1125,-0.1572,-0.049,-0.025,0.078
2025-11-06 18:37:40.264,327.185,0.082,-0.399,0.024,-0.061,-0.974,0.109,16.16,-0.64,-49.480000000000004,0.6305000000000001,-0.7519,-0.1119,-0.1565,-0.05,-0.012,0.075
2025-11-06 18:37:40.264,327.19,0.068,-0.41300000000000003,0.015,-0.059000000000000004,-0.989,0.111,15.84,0.11,-49.370000000000005,0.6305000000000001,-0.7521,-0.11130000000000001,-0.1557,-0.051000000000000004,0.003,0.073
2025-11-06 18:37:40.264,327.195,0.053,-0.419,0.008,-0.062,-1.004,0.113,15.84,0.11,-49.370000000000005,0.6306,-0.7523000000000001,-0.1106,-0.1549,-0.048,0.018000000000000002,0.07200000000000001
2025-11-06 18:37:40.264,327.2,0.036000000000000004,-0.43,0.004,-0.066,-1.02,0.113,15.780000000000001,-0.76,-50.24,0.6306,-0.7525000000000001,-0.11,-0.15410000000000001,-0.042,0.033,0.07200000000000001
2025-11-06 18:37:40.264,327.205,0.008,-0.446,0.006,-0.073,-1.045,0.115,15.780000000000001,-0.76,-50.24,0.6307,-0.7527,-0.10930000000000001,-0.1532,-0.035,0.059000000000000004,0.07100000000000001
2025-11-06 18:37:40.264,327.21,-0.017,-0.456,0.012,-0.078,-1.062,0.11800000000000001,15.780000000000001,-0.76,-50.24,0.6309,-0.7528,-0.1086,-0.1524,-0.03,0.076,0.069
2025-11-06 18:37:40.265,327.215,-0.047,-0.464,0.023,-0.08700000000000001,-1.083,0.123,16.1,-0.02,-50.160000000000004,0.6311,-0.7529,-0.1078,-0.1516,-0.02,0.097,0.064
2025-11-06 18:37:40.265,327.22,-0.079,-0.46900000000000003,0.034,-0.096,-1.098,0.129,16.1,-0.02,-50.160000000000004,0.6314000000000001,-0.753,-0.10700000000000001,-0.1507,-0.011,0.112,0.058
2025-11-06 18:37:40.265,327.225,-0.11,-0.48,0.051000000000000004,-0.105,-1.113,0.14,15.81,0.0,-50.24,0.6317,-0.753,-0.1061,-0.1499,-0.002,0.127,0.048
2025-11-06 18:37:40.265,327.23,-0.138,-0.488,0.07,-0.113,-1.123,0.152,15.81,0.0,-50.24,0.6321,-0.753,-0.1052,-0.1492,0.006,0.137,0.036000000000000004
2025-11-06 18:37:40.265,327.235,-0.17200000000000001,-0.47100000000000003,0.10400000000000001,-0.121,-1.129,0.156,15.81,0.0,-50.24,0.6325000000000001,-0.7529,-0.1042,-0.14850000000000002,0.013000000000000001,0.14300000000000002,0.03
2025-11-06 18:37:40.265,327.24,-0.188,-0.444,0.126,-0.123,-1.123,0.156,15.46,0.4,-50.480000000000004,0.633,-0.7528,-0.1032,-0.1479,0.015,0.137,0.029
2025-11-06 18:37:40.265,327.245,-0.20700000000000002,-0.41400000000000003,0.153,-0.127,-1.111,0.152,15.46,0.4,-50.480000000000004,0.6334000000000001,-0.7526,-0.1022,-0.1474,0.019,0.125,0.033
2025-11-06 18:37:40.265,327.25,-0.221,-0.377,0.177,-0.129,-1.094,0.14200000000000002,15.84,0.11,-50.36,0.6339,-0.7524000000000001,-0.1012,-0.14700000000000002,0.021,0.108,0.041
2025-11-06 18:37:40.265,327.255,-0.23700000000000002,-0.35100000000000003,0.2,-0.13,-1.074,0.13,15.84,0.11,-50.36,0.6344000000000001,-0.7522000000000001,-0.10020000000000001,-0.1467,0.02,0.08700000000000001,0.052000000000000005
