System_Time,Timestamp,Gyro_X,Gyro_Y,Gyro_Z,Acc_X,Acc_Y,Acc_Z,Mag_X,Mag_Y,Mag_Z,Quat_W,Quat_X,Quat_Y,Quat_Z,Linear_Acc_X,Linear_Acc_Y,Linear_Acc_Z
2025-11-06 18:34:30.436,134.94,-0.038,-0.005,-0.001,-0.342,-0.93,0.23,7.65,-8.0,-44.54,0.5943,-0.7743,-0.0126,-0.2169,0.003,0.002,-0.004
2025-11-06 18:34:30.436,134.945,-0.036000000000000004,-0.004,0.0,-0.343,-0.93,0.229,9.5,-6.8100000000000005,-44.63,0.5943,-0.7742,-0.0126,-0.2169,0.004,0.002,-0.003
2025-11-06 18:34:30.436,134.95,-0.039,-0.006,0.001,-0.343,-0.93,0.23,9.5,-6.8100000000000005,-44.63,0.5944,-0.7742,-0.0125,-0.2169,0.004,0.001,-0.004
2025-11-06 18:34:30.436,134.955,-0.039,-0.008,0.002,-0.343,-0.927,0.227,9.5,-6.8100000000000005,-44.63,0.5945,-0.7741,-0.0125,-0.2169,0.004,0.0,-0.001
2025-11-06 18:34:30.436,134.96,-0.037,-0.008,0.002,-0.343,-0.927,0.227,8.5,-7.51,-44.51,0.5945,-0.7741,-0.012400000000000001,-0.2169,0.004,-0.001,-0.001
2025-11-06 18:34:30.436,134.965,-0.038,-0.01,0.004,-0.34400000000000003,-0.927,0.228,8.5,-7.51,-44.51,0.5946,-0.774,-0.012400000000000001,-0.2169,0.005,0.0,-0.003
2025-11-06 18:34:30.436,134.97,-0.039,-0.013000000000000001,0.006,-0.34400000000000003,-0.927,0.227,7.83,-7.13,-45.1,0.5946,-0.774,-0.0123,-0.2169,0.005,-0.001,-0.002
2025-11-06 18:34:30.436,134.975,-0.042,-0.016,0.007,-0.343,-0.927,0.226,7.83,-7.13,-45.1,0.5947,-0.7739,-0.0122,-0.2169,0.004,-0.001,-0.002
2025-11-06 18:34:30.436,134.98,-0.041,-0.015,0.008,-0.34500000000000003,-0.927,0.228,7.83,-7.13,-45.1,0.5948,-0.7739,-0.012100000000000001,-0.2169,0.006,-0.001,-0.003
2025-11-06 18:34:30.436,134.985,-0.041,-0.016,0.011,-0.34600000000000003,-0.929,0.228,8.09,-7.86,-45.6,0.5949,-0.7738,-0.012100000000000001,-0.2169,0.006,0.0,-0.004
2025-11-06 18:34:30.436,134.99,-0.039,-0.01,0.01,-0.34600000000000003,-0.928,0.23,8.09,-7.86,-45.6,0.5949,-0.7738,-0.012,-0.2169,0.006,0.0,-0.005
2025-11-06 18:34:30.436,134.995,-0.038,-0.006,0.009000000000000001,-0.34500000000000003,-0.93,0.228,8.09,-7.86,-45.6,0.595,-0.7737,-0.0119,-0.2169,0.005,0.001,-0.004
2025-11-06 18:34:30.436,135.0,-0.037,-0.007,0.01,-0.34800000000000003,-0.93,0.226,8.15,-7.07,-44.63,0.595,-0.7737,-0.0119,-0.2169,0.008,0.001,-0.001
2025-11-06 18:34:30.436,135.005,-0.028,0.0,0.006,-0.35000000000000003,-0.932,0.222,8.15,-7.07,-44.63,0.5951000000000001,-0.7736000000000001,-0.0118,-0.2169,0.01,0.002,0.001
2025-11-06 18:34:30.436,135.01,-0.025,-0.003,0.003,-0.35000000000000003,-0.933,0.22,8.24,-7.22,-44.92,0.5951000000000001,-0.7736000000000001,-0.0118,-0.2169,0.011,0.004,0.003
2025-11-06 18:34:30.436,135.015,-0.022,-0.004,0.002,-0.353,-0.932,0.22,8.24,-7.22,-44.92,0.5952000000000001,-0.7736000000000001,-0.0118,-0.217,0.013000000000000001,0.003,0.003
2025-11-06 18:34:30.436,135.02,-0.02,-0.001,0.001,-0.354,-0.932,0.22,8.24,-7.22,-44.92,0.5952000000000001,-0.7735000000000001,-0.0117,-0.217,0.014,0.003,0.003
2025-11-06 18:34:30.436,135.025,-0.019,0.0,0.001,-0.353,-0.93,0.219,8.38,-6.66,-44.54,0.5953,-0.7735000000000001,-0.0117,-0.217,0.013000000000000001,0.001,0.003
2025-11-06 18:34:30.436,135.03,-0.019,0.003,-0.002,-0.353,-0.932,0.218,8.38,-6.66,-44.54,0.5953,-0.7734000000000001,-0.0117,-0.217,0.013000000000000001,0.003,0.004
2025-11-06 18:34:30.436,135.035,-0.02,0.004,-0.002,-0.353,-0.931,0.219,8.38,-6.84,-44.4,0.5953,-0.7734000000000001,-0.0117,-0.21710000000000002,0.013000000000000001,0.001,0.003
2025-11-06 18:34:30.436,135.04,-0.02,0.004,-0.003,-0.353,-0.93,0.219,8.38,-6.84,-44.4,0.5954,-0.7734000000000001,-0.0117,-0.21710000000000002,0.013000000000000001,0.001,0.003
2025-11-06 18:34:30.436,135.045,-0.021,0.007,-0.002,-0.354,-0.929,0.219,8.38,-6.84,-44.4,0.5954,-0.7733,-0.011600000000000001,-0.21710000000000002,0.014,0.0,0.003
2025-11-06 18:34:30.436,135.05,-0.02,0.007,-0.002,-0.353,-0.929,0.22,8.15,-6.69,-44.46,0.5955,-0.7733,-0.011600000000000001,-0.2172,0.013000000000000001,0.0,0.001
2025-11-06 18:34:30.436,135.055,-0.02,0.007,0.0,-0.353,-0.928,0.223,8.15,-6.69,-44.46,0.5955,-0.7732,-0.011600000000000001,-0.2172,0.013000000000000001,0.0,0.0
2025-11-06 18:34:30.436,135.06,-0.026000000000000002,0.007,0.0,-0.352,-0.929,0.224,7.86,-6.72,-44.95,0.5955,-0.7732,-0.011600000000000001,-0.21730000000000002,0.012,0.0,-0.001
2025-11-06 18:34:30.436,135.065,-0.03,0.005,0.002,-0.35100000000000003,-0.928,0.224,7.86,-6.72,-44.95,0.5956,-0.7732,-0.011600000000000001,-0.21730000000000002,0.01,0.0,-0.001
2025-11-06 18:34:30.436,135.07,-0.032,0.002,0.002,-0.35000000000000003,-0.93,0.223,7.86,-6.72,-44.95,0.5956,-0.7731,-0.0115,-0.21730000000000002,0.009000000000000001,0.001,-0.001
2025-11-06 18:34:30.436,135.075,-0.034,0.001,0.002,-0.34900000000000003,-0.928,0.224,8.41,-6.66,-44.54,0.5957,-0.7731,-0.0115,-0.2174,0.008,0.0,-0.001
2025-11-06 18:34:30.437,135.08,-0.034,0.004,0.001,-0.34700000000000003,-0.929,0.223,8.41,-6.66,-44.54,0.5958,-0.773,-0.0115,-0.2174,0.007,0.0,-0.001
2025-11-06 18:34:30.437,135.085,-0.032,0.004,0.001,-0.34600000000000003,-0.93,0.222,8.27,-7.01,-44.660000000000004,0.5958,-0.773,-0.0114,-0.2174,0.006,0.001,0.0
2025-11-06 18:34:30.437,135.09,-0.025,0.003,0.001,-0.34600000000000003,-0.931,0.221,8.27,-7.01,-44.660000000000004,0.5959,-0.7729,-0.0114,-0.2174,0.005,0.002,0.0
2025-11-06 18:34:30.437,135.095,-0.02,0.002,0.0,-0.34800000000000003,-0.931,0.22,8.27,-7.01,-44.660000000000004,0.5959,-0.7729,-0.0114,-0.2174,0.007,0.002,0.001
2025-11-06 18:34:30.437,135.1,-0.019,0.0,-0.002,-0.34700000000000003,-0.931,0.22,8.18,-6.8100000000000005,-44.69,0.5959,-0.7728,-0.0114,-0.2175,0.006,0.002,0.001
2025-11-06 18:34:30.437,135.105,-0.015,0.0,-0.003,-0.34800000000000003,-0.934,0.221,8.18,-6.8100000000000005,-44.69,0.596,-0.7728,-0.0114,-0.2175,0.007,0.005,0.0
2025-11-06 18:34:30.437,135.11,-0.011,-0.003,-0.003,-0.34800000000000003,-0.935,0.222,8.27,-6.66,-45.19,0.596,-0.7728,-0.0114,-0.2175,0.007,0.006,0.0
2025-11-06 18:34:30.437,135.115,-0.008,-0.006,-0.002,-0.34900000000000003,-0.936,0.222,8.27,-6.66,-45.19,0.596,-0.7728,-0.011300000000000001,-0.2174,0.008,0.007,0.0
2025-11-06 18:34:30.437,135.12,-0.013000000000000001,-0.004,-0.001,-0.34800000000000003,-0.936,0.223,8.27,-6.66,-45.19,0.596,-0.7728,-0.011300000000000001,-0.2174,0.007,0.007,-0.001
2025-11-06 18:34:30.437,135.125,-0.016,0.0,-0.001,-0.34800000000000003,-0.937,0.221,8.97,-6.63,-44.89,0.5961000000000001,-0.7727,-0.011300000000000001,-0.2174,0.007,0.007,0.0
2025-11-06 18:34:30.437,135.13,-0.018000000000000002,0.0,0.0,-0.34900000000000003,-0.937,0.222,8.97,-6.63,-44.89,0.5961000000000001,-0.7727,-0.011300000000000001,-0.2174,0.009000000000000001,0.008,0.0
2025-11-06 18:34:30.437,135.135,-0.019,0.0,0.0,-0.34500000000000003,-0.937,0.222,9.06,-7.57,-44.6,0.5961000000000001,-0.7727,-0.011300000000000001,-0.2174,0.005,0.008,-0.001
2025-11-06 18:34:30.437,135.14,-0.025,0.002,-0.001,-0.34500000000000003,-0.9380000000000001,0.222,9.06,-7.57,-44.6,0.5962000000000001,-0.7726000000000001,-0.011300000000000001,-0.2175,0.004,0.008,-0.001
2025-11-06 18:34:30.437,135.145,-0.03,-0.002,0.001,-0.343,-0.937,0.221,9.06,-7.57,-44.6,0.5963,-0.7726000000000001,-0.011300000000000001,-0.2175,0.002,0.008,0.0
2025-11-06 18:34:30.437,135.15,-0.032,-0.003,0.0,-0.34,-0.937,0.221,8.18,-8.74,-44.54,0.5963,-0.7725000000000001,-0.0112,-0.2174,0.0,0.008,0.0
2025-11-06 18:34:30.437,135.155,-0.034,-0.004,-0.002,-0.338,-0.936,0.222,8.18,-8.74,-44.54,0.5964,-0.7725000000000001,-0.0112,-0.2174,-0.002,0.007,-0.001
2025-11-06 18:34:30.437,135.16,-0.034,-0.008,-0.004,-0.336,-0.937,0.222,8.85,-7.36,-44.6,0.5965,-0.7724000000000001,-0.0112,-0.2174,-0.004,0.007,-0.001
2025-11-06 18:34:30.437,135.165,-0.036000000000000004,-0.015,-0.005,-0.334,-0.9380000000000001,0.221,8.85,-7.36,-44.6,0.5965,-0.7724000000000001,-0.0112,-0.2174,-0.005,0.008,-0.001
2025-11-06 18:34:30.437,135.17,-0.036000000000000004,-0.016,-0.005,-0.331,-0.937,0.223,8.85,-7.36,-44.6,0.5966,-0.7724000000000001,-0.0112,-0.21730000000000002,-0.008,0.007,-0.003
2025-11-06 18:34:30.437,135.175,-0.034,-0.015,-0.009000000000000001,-0.328,-0.936,0.225,8.09,-6.57,-44.54,0.5967,-0.7723,-0.0112,-0.2172,-0.011,0.007,-0.005
2025-11-06 18:34:30.437,135.18,-0.037,-0.022,-0.013000000000000001,-0.326,-0.936,0.226,8.09,-6.57,-44.54,0.5968,-0.7723,-0.0111,-0.21710000000000002,-0.014,0.006,-0.006
2025-11-06 18:34:30.437,135.185,-0.035,-0.022,-0.014,-0.326,-0.936,0.226,8.3,-7.65,-44.43,0.5969,-0.7722,-0.0111,-0.21710000000000002,-0.013000000000000001,0.007,-0.006
2025-11-06 18:34:30.437,135.19,-0.036000000000000004,-0.021,-0.015,-0.325,-0.935,0.226,8.3,-7.65,-44.43,0.5969,-0.7722,-0.0111,-0.217,-0.014,0.006,-0.006
2025-11-06 18:34:30.437,135.195,-0.038,-0.021,-0.017,-0.326,-0.933,0.224,8.3,-7.65,-44.43,0.597,-0.7722,-0.0111,-0.2169,-0.013000000000000001,0.004,-0.004
2025-11-06 18:34:30.437,135.2,-0.04,-0.016,-0.016,-0.327,-0.932,0.225,7.98,-7.3,-44.84,0.5971000000000001,-0.7721,-0.0112,-0.21680000000000002,-0.012,0.002,-0.006
2025-11-06 18:34:30.437,135.205,-0.043000000000000003,-0.014,-0.015,-0.328,-0.932,0.227,7.98,-7.3,-44.84,0.5972000000000001,-0.7721,-0.0112,-0.2167,-0.011,0.002,-0.008
2025-11-06 18:34:30.437,135.21,-0.048,-0.01,-0.015,-0.33,-0.932,0.226,7.98,-7.7700000000000005,-45.19,0.5973,-0.772,-0.0112,-0.21660000000000001,-0.008,0.002,-0.007
2025-11-06 18:34:30.437,135.215,-0.051000000000000004,-0.011,-0.014,-0.331,-0.932,0.226,7.98,-7.7700000000000005,-45.19,0.5974,-0.772,-0.0112,-0.21660000000000001,-0.008,0.002,-0.007
2025-11-06 18:34:30.437,135.22,-0.056,-0.016,-0.013000000000000001,-0.332,-0.931,0.224,7.98,-7.7700000000000005,-45.19,0.5975,-0.7719,-0.0111,-0.2165,-0.006,0.001,-0.006
2025-11-06 18:34:30.437,135.225,-0.058,-0.017,-0.01,-0.333,-0.932,0.226,8.27,-7.36,-45.07,0.5976,-0.7718,-0.0111,-0.2164,-0.005,0.001,-0.008
2025-11-06 18:34:30.437,135.23,-0.059000000000000004,-0.017,-0.006,-0.334,-0.931,0.227,8.27,-7.36,-45.07,0.5977,-0.7717,-0.0111,-0.2164,-0.004,0.001,-0.009000000000000001
2025-11-06 18:34:30.437,135.235,-0.058,-0.02,-0.002,-0.334,-0.932,0.228,8.5,-6.8100000000000005,-45.1,0.5979,-0.7717,-0.011000000000000001,-0.21630000000000002,-0.004,0.002,-0.01
2025-11-06 18:34:30.437,135.24,-0.055,-0.025,0.002,-0.334,-0.932,0.23,8.5,-6.8100000000000005,-45.1,0.5979,-0.7716000000000001,-0.011000000000000001,-0.21630000000000002,-0.004,0.001,-0.012
2025-11-06 18:34:30.437,135.245,-0.049,-0.032,0.004,-0.333,-0.932,0.231,8.5,-6.8100000000000005,-45.1,0.598,-0.7716000000000001,-0.0109,-0.2162,-0.005,0.001,-0.013000000000000001
2025-11-06 18:34:30.437,135.25,-0.042,-0.036000000000000004,0.004,-0.329,-0.929,0.232,9.120000000000001,-7.16,-46.03,0.5981000000000001,-0.7716000000000001,-0.0108,-0.21610000000000001,-0.009000000000000001,0.0,-0.014
2025-11-06 18:34:30.437,135.255,-0.032,-0.042,0.006,-0.327,-0.929,0.232,9.120000000000001,-7.16,-46.03,0.5981000000000001,-0.7716000000000001,-0.010700000000000001,-0.216,-0.011,0.0,-0.014
2025-11-06 18:34:30.437,135.26,-0.023,-0.049,0.002,-0.324,-0.93,0.234,9.120000000000001,-7.16,-46.03,0.5982000000000001,-0.7716000000000001,-0.010700000000000001,-0.2159,-0.013000000000000001,0.0,-0.016
2025-11-06 18:34:30.437,135.265,-0.014,-0.05,0.001,-0.322,-0.931,0.234,8.53,-6.890000000000001,-45.71,0.5982000000000001,-0.7716000000000001,-0.0106,-0.21580000000000002,-0.016,0.001,-0.016
2025-11-06 18:34:30.437,135.27,-0.014,-0.05,0.0,-0.319,-0.933,0.23500000000000001,8.53,-6.890000000000001,-45.71,0.5982000000000001,-0.7716000000000001,-0.0106,-0.2156,-0.019,0.002,-0.017
2025-11-06 18:34:30.437,135.275,-0.015,-0.049,-0.003,-0.316,-0.934,0.233,8.21,-7.24,-45.95,0.5982000000000001,-0.7717,-0.0105,-0.2154,-0.021,0.004,-0.015
2025-11-06 18:34:30.437,135.28,-0.023,-0.05,-0.006,-0.312,-0.937,0.234,8.21,-7.24,-45.95,0.5982000000000001,-0.7717,-0.0105,-0.21530000000000002,-0.025,0.007,-0.015
2025-11-06 18:34:30.437,135.285,-0.027,-0.044,-0.005,-0.309,-0.9390000000000001,0.231,8.21,-7.24,-45.95,0.5983,-0.7717,-0.010400000000000001,-0.2151,-0.027,0.009000000000000001,-0.013000000000000001
2025-11-06 18:34:30.437,135.29,-0.036000000000000004,-0.041,-0.004,-0.307,-0.9420000000000001,0.23,8.41,-7.390000000000001,-45.36,0.5984,-0.7717,-0.010400000000000001,-0.215,-0.03,0.012,-0.012
2025-11-06 18:34:30.437,135.295,-0.037,-0.036000000000000004,-0.005,-0.306,-0.9440000000000001,0.228,8.41,-7.390000000000001,-45.36,0.5985,-0.7716000000000001,-0.010400000000000001,-0.2149,-0.03,0.013000000000000001,-0.01
2025-11-06 18:34:30.437,135.3,-0.042,-0.033,-0.001,-0.308,-0.9470000000000001,0.225,8.27,-7.51,-45.77,0.5985,-0.7716000000000001,-0.0103,-0.21480000000000002,-0.029,0.016,-0.007
2025-11-06 18:34:30.437,135.305,-0.044,-0.03,0.0,-0.308,-0.9470000000000001,0.224,8.27,-7.51,-45.77,0.5986,-0.7715000000000001,-0.0103,-0.2147,-0.028,0.016,-0.006
2025-11-06 18:34:30.437,135.31,-0.044,-0.025,0.002,-0.311,-0.9470000000000001,0.221,8.27,-7.51,-45.77,0.5987,-0.7715000000000001,-0.0102,-0.2147,-0.025,0.016,-0.004
2025-11-06 18:34:30.437,135.315,-0.044,-0.024,0.005,-0.312,-0.9460000000000001,0.218,8.44,-7.16,-45.300000000000004,0.5988,-0.7714000000000001,-0.0102,-0.2146,-0.024,0.015,0.0
2025-11-06 18:34:30.437,135.32,-0.045,-0.024,0.01,-0.315,-0.9460000000000001,0.216,8.44,-7.16,-45.300000000000004,0.5989,-0.7714000000000001,-0.010100000000000001,-0.21450000000000002,-0.021,0.014,0.001
2025-11-06 18:34:30.437,135.325,-0.044,-0.029,0.018000000000000002,-0.318,-0.9440000000000001,0.215,8.65,-7.16,-45.71,0.599,-0.7713,-0.01,-0.21450000000000002,-0.018000000000000002,0.012,0.001
2025-11-06 18:34:30.439,135.33,-0.039,-0.033,0.021,-0.319,-0.9420000000000001,0.215,8.65,-7.16,-45.71,0.5991000000000001,-0.7713,-0.0099,-0.2144,-0.017,0.01,0.001
2025-11-06 18:34:30.439,135.335,-0.035,-0.031,0.029,-0.321,-0.9410000000000001,0.216,8.65,-7.16,-45.71,0.5991000000000001,-0.7712,-0.0098,-0.2144,-0.015,0.01,0.0
2025-11-06 18:34:30.439,135.34,-0.032,-0.026000000000000002,0.034,-0.321,-0.9380000000000001,0.22,8.21,-6.92,-45.77,0.5992000000000001,-0.7712,-0.0097,-0.2144,-0.015,0.007,-0.003
2025-11-06 18:34:30.439,135.345,-0.027,-0.021,0.038,-0.324,-0.937,0.221,8.21,-6.92,-45.77,0.5992000000000001,-0.7712,-0.009600000000000001,-0.2144,-0.012,0.006,-0.005
2025-11-06 18:34:30.439,135.35,-0.025,-0.017,0.041,-0.324,-0.936,0.224,8.0,-6.69,-45.04,0.5993,-0.7712,-0.0095,-0.2144,-0.013000000000000001,0.005,-0.007
2025-11-06 18:34:30.439,135.355,-0.026000000000000002,-0.021,0.047,-0.323,-0.933,0.227,8.0,-6.69,-45.04,0.5993,-0.7711,-0.0094,-0.2144,-0.014,0.002,-0.011
2025-11-06 18:34:30.439,135.36,-0.026000000000000002,-0.023,0.049,-0.323,-0.931,0.23,8.0,-6.69,-45.04,0.5993,-0.7711,-0.0092,-0.2144,-0.013000000000000001,0.0,-0.013000000000000001
2025-11-06 18:34:30.439,135.365,-0.025,-0.024,0.049,-0.322,-0.929,0.23500000000000001,7.390000000000001,-6.37,-45.01,0.5993,-0.7711,-0.0091,-0.2144,-0.015,0.0,-0.019
2025-11-06 18:34:30.439,135.37,-0.024,-0.028,0.051000000000000004,-0.322,-0.928,0.23600000000000002,7.390000000000001,-6.37,-45.01,0.5993,-0.7711,-0.009000000000000001,-0.2144,-0.016,-0.002,-0.02
2025-11-06 18:34:30.439,135.375,-0.026000000000000002,-0.036000000000000004,0.048,-0.322,-0.925,0.23900000000000002,8.18,-6.66,-44.89,0.5993,-0.7711,-0.0088,-0.2144,-0.016,-0.005,-0.023
2025-11-06 18:34:30.439,135.38,-0.022,-0.046,0.046,-0.32,-0.924,0.241,8.18,-6.66,-44.89,0.5993,-0.7711,-0.008700000000000001,-0.21430000000000002,-0.017,-0.005,-0.025
2025-11-06 18:34:30.439,135.385,-0.02,-0.052000000000000005,0.041,-0.317,-0.921,0.241,8.18,-6.66,-44.89,0.5993,-0.7711,-0.0085,-0.21430000000000002,-0.02,-0.008,-0.025
2025-11-06 18:34:30.439,135.39,-0.018000000000000002,-0.054,0.039,-0.319,-0.92,0.24,8.06,-6.72,-44.6,0.5993,-0.7712,-0.0083,-0.2142,-0.019,-0.009000000000000001,-0.024
2025-11-06 18:34:30.439,135.395,-0.012,-0.058,0.034,-0.318,-0.918,0.23900000000000002,8.06,-6.72,-44.6,0.5993,-0.7712,-0.0082,-0.2141,-0.02,-0.012,-0.023
2025-11-06 18:34:30.439,135.4,-0.003,-0.063,0.029,-0.315,-0.919,0.23900000000000002,7.68,-6.86,-45.27,0.5993,-0.7712,-0.008,-0.21400000000000002,-0.023,-0.011,-0.023
2025-11-06 18:34:30.439,135.405,0.003,-0.066,0.026000000000000002,-0.314,-0.918,0.23800000000000002,7.68,-6.86,-45.27,0.5993,-0.7713,-0.0079,-0.2139,-0.024,-0.011,-0.021
2025-11-06 18:34:30.439,135.41,0.009000000000000001,-0.066,0.023,-0.309,-0.917,0.24,7.68,-6.86,-45.27,0.5993,-0.7713,-0.0078000000000000005,-0.21380000000000002,-0.029,-0.013000000000000001,-0.023
2025-11-06 18:34:30.439,135.415,0.019,-0.07200000000000001,0.022,-0.305,-0.914,0.24,7.890000000000001,-7.1000000000000005,-45.51,0.5992000000000001,-0.7714000000000001,-0.0076,-0.2137,-0.033,-0.015,-0.023
2025-11-06 18:34:30.439,135.42,0.028,-0.062,0.022,-0.302,-0.913,0.23900000000000002,7.890000000000001,-7.1000000000000005,-45.51,0.5991000000000001,-0.7715000000000001,-0.007500000000000001,-0.2136,-0.036000000000000004,-0.016,-0.022
2025-11-06 18:34:30.439,135.425,0.037,-0.064,0.025,-0.3,-0.91,0.23800000000000002,7.62,-7.54,-44.980000000000004,0.5991000000000001,-0.7716000000000001,-0.0074,-0.21350000000000002,-0.038,-0.019,-0.021
2025-11-06 18:34:30.439,135.43,0.043000000000000003,-0.061,0.027,-0.298,-0.91,0.23700000000000002,7.62,-7.54,-44.980000000000004,0.599,-0.7717,-0.0073,-0.21350000000000002,-0.04,-0.019,-0.02
2025-11-06 18:34:30.439,135.435,0.05,-0.056,0.032,-0.299,-0.909,0.23600000000000002,7.62,-7.54,-44.980000000000004,0.5988,-0.7718,-0.0071,-0.2134,-0.039,-0.02,-0.018000000000000002
2025-11-06 18:34:30.439,135.44,0.056,-0.052000000000000005,0.038,-0.296,-0.911,0.234,8.27,-7.45,-45.01,0.5987,-0.7719,-0.007,-0.21330000000000002,-0.042,-0.017,-0.016
2025-11-06 18:34:30.439,135.445,0.062,-0.052000000000000005,0.046,-0.295,-0.911,0.233,8.27,-7.45,-45.01,0.5986,-0.772,-0.006900000000000001,-0.21330000000000002,-0.044,-0.017,-0.015
2025-11-06 18:34:30.439,135.45,0.079,-0.051000000000000004,0.057,-0.293,-0.912,0.232,8.03,-7.1000000000000005,-45.45,0.5984,-0.7722,-0.0068000000000000005,-0.21330000000000002,-0.046,-0.017,-0.013000000000000001
2025-11-06 18:34:30.439,135.455,0.09,-0.053,0.066,-0.293,-0.914,0.232,8.03,-7.1000000000000005,-45.45,0.5982000000000001,-0.7723,-0.0066,-0.21330000000000002,-0.045,-0.014,-0.012
2025-11-06 18:34:30.439,135.46,0.098,-0.052000000000000005,0.076,-0.294,-0.918,0.233,8.03,-7.1000000000000005,-45.45,0.5979,-0.7725000000000001,-0.0064,-0.21330000000000002,-0.045,-0.01,-0.013000000000000001
2025-11-06 18:34:30.439,135.465,0.106,-0.053,0.085,-0.297,-0.92,0.233,8.15,-7.83,-45.160000000000004,0.5977,-0.7727,-0.006200000000000001,-0.21330000000000002,-0.042,-0.008,-0.012
2025-11-06 18:34:30.439,135.47,0.11800000000000001,-0.049,0.097,-0.299,-0.924,0.23500000000000001,8.15,-7.83,-45.160000000000004,0.5974,-0.7729,-0.0061,-0.21330000000000002,-0.041,-0.004,-0.013000000000000001
2025-11-06 18:34:30.439,135.475,0.125,-0.052000000000000005,0.109,-0.303,-0.929,0.23600000000000002,7.68,-6.86,-44.69,0.5971000000000001,-0.7732,-0.0058000000000000005,-0.21330000000000002,-0.037,0.001,-0.013000000000000001
2025-11-06 18:34:30.439,135.48,0.131,-0.05,0.117,-0.306,-0.933,0.234,7.68,-6.86,-44.69,0.5968,-0.7734000000000001,-0.0056,-0.2134,-0.034,0.005,-0.011
2025-11-06 18:34:30.439,135.485,0.135,-0.058,0.123,-0.306,-0.936,0.232,7.68,-6.86,-44.69,0.5964,-0.7737,-0.0054,-0.2134,-0.035,0.008,-0.008
2025-11-06 18:34:30.439,135.49,0.14100000000000001,-0.057,0.129,-0.308,-0.9380000000000001,0.232,8.44,-7.8,-44.81,0.5961000000000001,-0.7739,-0.0051,-0.21350000000000002,-0.033,0.01,-0.007
2025-11-06 18:34:30.439,135.495,0.145,-0.056,0.135,-0.308,-0.9380000000000001,0.232,8.44,-7.8,-44.81,0.5957,-0.7742,-0.0049,-0.2136,-0.034,0.011,-0.006
2025-11-06 18:34:30.439,135.5,0.153,-0.057,0.139,-0.31,-0.937,0.229,8.3,-6.6000000000000005,-44.95,0.5953,-0.7744000000000001,-0.0046,-0.2136,-0.033,0.01,-0.002
2025-11-06 18:34:30.439,135.505,0.158,-0.055,0.138,-0.309,-0.9380000000000001,0.229,8.3,-6.6000000000000005,-44.95,0.595,-0.7747,-0.0043,-0.2137,-0.034,0.011,-0.002
2025-11-06 18:34:30.439,135.51,0.165,-0.052000000000000005,0.139,-0.311,-0.937,0.227,8.3,-6.6000000000000005,-44.95,0.5946,-0.775,-0.0041,-0.21380000000000002,-0.033,0.011,0.0
2025-11-06 18:34:30.439,135.515,0.169,-0.052000000000000005,0.137,-0.31,-0.933,0.227,8.18,-7.48,-44.84,0.5942000000000001,-0.7753,-0.0039000000000000003,-0.2139,-0.034,0.007,0.001
2025-11-06 18:34:30.439,135.52,0.17300000000000001,-0.051000000000000004,0.138,-0.311,-0.93,0.226,8.18,-7.48,-44.84,0.5937,-0.7756000000000001,-0.0036000000000000003,-0.2139,-0.033,0.005,0.003
2025-11-06 18:34:30.439,135.525,0.18,-0.053,0.14200000000000002,-0.312,-0.928,0.225,8.18,-7.48,-44.84,0.5933,-0.7759,-0.0034000000000000002,-0.21400000000000002,-0.033,0.003,0.004
2025-11-06 18:34:30.439,135.53,0.185,-0.052000000000000005,0.146,-0.311,-0.924,0.226,7.95,-7.01,-45.51,0.5929,-0.7762,-0.0031000000000000003,-0.2141,-0.035,0.0,0.005
2025-11-06 18:34:30.439,135.535,0.188,-0.052000000000000005,0.148,-0.313,-0.918,0.228,7.95,-7.01,-45.51,0.5924,-0.7765000000000001,-0.0028,-0.2142,-0.033,-0.005,0.004
2025-11-06 18:34:30.439,135.54,0.194,-0.053,0.153,-0.312,-0.917,0.228,8.09,-7.01,-44.81,0.5919,-0.7768,-0.0026000000000000003,-0.21430000000000002,-0.035,-0.006,0.004
2025-11-06 18:34:30.439,135.545,0.2,-0.054,0.157,-0.313,-0.914,0.229,8.09,-7.01,-44.81,0.5915,-0.7772,-0.0023,-0.21450000000000002,-0.035,-0.008,0.004
2025-11-06 18:34:30.439,135.55,0.20800000000000002,-0.051000000000000004,0.161,-0.315,-0.911,0.232,8.09,-7.01,-44.81,0.5910000000000001,-0.7775000000000001,-0.002,-0.2146,-0.034,-0.011,0.002
2025-11-06 18:34:30.439,135.555,0.218,-0.055,0.164,-0.316,-0.908,0.233,7.8,-7.16,-44.78,0.5904,-0.7779,-0.0017000000000000001,-0.2147,-0.033,-0.013000000000000001,0.003
2025-11-06 18:34:30.439,135.56,0.226,-0.049,0.167,-0.32,-0.906,0.233,7.8,-7.16,-44.78,0.5899,-0.7783,-0.0014,-0.21480000000000002,-0.03,-0.015,0.003
2025-11-06 18:34:30.439,135.565,0.248,-0.046,0.171,-0.326,-0.901,0.23500000000000001,7.45,-6.890000000000001,-44.28,0.5893,-0.7787000000000001,-0.0012000000000000001,-0.215,-0.025,-0.019,0.002
2025-11-06 18:34:30.439,135.57,0.26,-0.045,0.17300000000000001,-0.335,-0.896,0.23700000000000002,7.45,-6.890000000000001,-44.28,0.5887,-0.7791,-0.0009000000000000001,-0.2151,-0.017,-0.023,0.001
2025-11-06 18:34:30.439,135.575,0.28,-0.033,0.17200000000000001,-0.338,-0.895,0.24,7.45,-6.890000000000001,-44.28,0.5880000000000001,-0.7795000000000001,-0.0007,-0.21530000000000002,-0.015,-0.024,0.0
2025-11-06 18:34:30.439,135.58,0.291,-0.025,0.176,-0.34400000000000003,-0.893,0.243,7.65,-7.42,-44.37,0.5874,-0.78,-0.0004,-0.2155,-0.009000000000000001,-0.026000000000000002,-0.001
2025-11-06 18:34:30.439,135.585,0.31,-0.013000000000000001,0.176,-0.34600000000000003,-0.892,0.244,7.65,-7.42,-44.37,0.5866,-0.7805000000000001,-0.0002,-0.2157,-0.008,-0.025,-0.001
2025-11-06 18:34:30.439,135.59,0.323,0.0,0.18,-0.354,-0.893,0.246,7.19,-7.51,-44.13,0.5859,-0.781,-0.0001,-0.216,-0.001,-0.024,-0.001
2025-11-06 18:34:30.439,135.595,0.353,0.043000000000000003,0.186,-0.363,-0.892,0.245,7.19,-7.51,-44.13,0.5851000000000001,-0.7815000000000001,0.0,-0.21630000000000002,0.006,-0.025,0.0
2025-11-06 18:34:30.439,135.6,0.37,0.059000000000000004,0.191,-0.366,-0.893,0.245,7.19,-7.51,-44.13,0.5842,-0.782,0.0,-0.2167,0.008,-0.023,0.003
2025-11-06 18:34:30.439,135.605,0.385,0.082,0.198,-0.368,-0.893,0.244,7.57,-6.890000000000001,-44.37,0.5833,-0.7826000000000001,0.0001,-0.2172,0.009000000000000001,-0.022,0.005
2025-11-06 18:34:30.439,135.61,0.403,0.11,0.20500000000000002,-0.37,-0.894,0.244,7.57,-6.890000000000001,-44.37,0.5824,-0.7831,0.0002,-0.2177,0.01,-0.021,0.007
2025-11-06 18:34:30.439,135.615,0.41600000000000004,0.134,0.214,-0.377,-0.895,0.248,7.42,-7.01,-43.81,0.5815,-0.7837000000000001,0.0002,-0.2182,0.016,-0.018000000000000002,0.005
2025-11-06 18:34:30.440,135.62,0.434,0.17,0.225,-0.388,-0.901,0.251,7.42,-7.01,-43.81,0.5805,-0.7842,0.0001,-0.2189,0.026000000000000002,-0.011,0.003
2025-11-06 18:34:30.440,135.625,0.449,0.209,0.23500000000000001,-0.398,-0.904,0.252,7.42,-7.01,-43.81,0.5794,-0.7848,0.0001,-0.21960000000000002,0.034,-0.007,0.004
2025-11-06 18:34:30.440,135.63,0.46,0.245,0.244,-0.403,-0.908,0.256,6.86,-7.33,-43.550000000000004,0.5783,-0.7853,0.0,-0.2205,0.038,-0.003,0.002
2025-11-06 18:34:30.440,135.635,0.466,0.28200000000000003,0.256,-0.41000000000000003,-0.912,0.259,6.86,-7.33,-43.550000000000004,0.5773,-0.7859,-0.0001,-0.2214,0.044,0.001,0.001
2025-11-06 18:34:30.440,135.64,0.467,0.321,0.267,-0.417,-0.914,0.26,6.98,-6.86,-43.050000000000004,0.5762,-0.7864,-0.00030000000000000003,-0.22240000000000001,0.049,0.004,0.001
2025-11-06 18:34:30.440,135.645,0.464,0.367,0.277,-0.427,-0.915,0.26,6.98,-6.86,-43.050000000000004,0.5750000000000001,-0.7869,-0.0005,-0.2235,0.058,0.007,0.003
2025-11-06 18:34:30.440,135.65,0.455,0.417,0.298,-0.435,-0.916,0.263,6.98,-6.86,-43.050000000000004,0.5739000000000001,-0.7873,-0.0007,-0.2247,0.064,0.009000000000000001,0.002
2025-11-06 18:34:30.440,135.655,0.445,0.453,0.312,-0.44,-0.916,0.266,6.46,-6.890000000000001,-42.67,0.5729000000000001,-0.7878000000000001,-0.001,-0.22610000000000002,0.067,0.01,0.0
2025-11-06 18:34:30.440,135.66,0.442,0.492,0.328,-0.445,-0.916,0.268,6.46,-6.890000000000001,-42.67,0.5718,-0.7881,-0.0012000000000000001,-0.2275,0.07,0.011,0.0
2025-11-06 18:34:30.440,135.665,0.442,0.528,0.34,-0.452,-0.913,0.27,6.37,-6.72,-42.410000000000004,0.5707,-0.7885000000000001,-0.0015,-0.229,0.074,0.01,-0.001
2025-11-06 18:34:30.440,135.67,0.444,0.5750000000000001,0.357,-0.456,-0.907,0.272,6.37,-6.72,-42.410000000000004,0.5695,-0.7888000000000001,-0.0019,-0.2306,0.076,0.005,-0.002
2025-11-06 18:34:30.440,135.675,0.451,0.609,0.371,-0.463,-0.904,0.275,6.37,-6.72,-42.410000000000004,0.5684,-0.7892,-0.0022,-0.2323,0.08,0.003,-0.004
2025-11-06 18:34:30.440,135.68,0.47300000000000003,0.653,0.387,-0.468,-0.898,0.277,6.19,-7.07,-42.47,0.5672,-0.7895000000000001,-0.0026000000000000003,-0.23420000000000002,0.082,-0.001,-0.005
2025-11-06 18:34:30.440,135.685,0.489,0.676,0.397,-0.46900000000000003,-0.895,0.277,6.19,-7.07,-42.47,0.5659000000000001,-0.7898000000000001,-0.003,-0.23600000000000002,0.081,-0.003,-0.004
2025-11-06 18:34:30.440,135.69,0.509,0.6910000000000001,0.406,-0.47200000000000003,-0.895,0.275,5.72,-7.19,-41.800000000000004,0.5646,-0.7902,-0.0035,-0.23800000000000002,0.082,-0.001,-0.001
2025-11-06 18:34:30.440,135.695,0.53,0.7010000000000001,0.418,-0.47500000000000003,-0.894,0.27,5.72,-7.19,-41.800000000000004,0.5633,-0.7906000000000001,-0.0039000000000000003,-0.2399,0.082,-0.001,0.005
2025-11-06 18:34:30.440,135.7,0.554,0.708,0.429,-0.47500000000000003,-0.895,0.263,5.72,-7.19,-41.800000000000004,0.5619000000000001,-0.791,-0.0043,-0.2419,0.079,0.0,0.012
2025-11-06 18:34:30.440,135.705,0.577,0.712,0.439,-0.47500000000000003,-0.898,0.257,5.55,-7.3,-41.5,0.5604,-0.7914,-0.0048000000000000004,-0.2439,0.076,0.005,0.02
2025-11-06 18:34:30.440,135.71,0.595,0.712,0.445,-0.47400000000000003,-0.901,0.252,5.55,-7.3,-41.5,0.5589000000000001,-0.7918000000000001,-0.005200000000000001,-0.2459,0.073,0.01,0.027
2025-11-06 18:34:30.440,135.715,0.614,0.7020000000000001,0.45,-0.47300000000000003,-0.908,0.242,5.0200000000000005,-7.1000000000000005,-41.94,0.5573,-0.7923,-0.0056,-0.2479,0.068,0.018000000000000002,0.038
2025-11-06 18:34:30.440,135.72,0.615,0.682,0.452,-0.47100000000000003,-0.912,0.234,5.0200000000000005,-7.1000000000000005,-41.94,0.5558000000000001,-0.7928000000000001,-0.006,-0.2499,0.064,0.024,0.048
2025-11-06 18:34:30.440,135.725,0.608,0.655,0.453,-0.465,-0.92,0.226,5.0200000000000005,-7.1000000000000005,-41.94,0.5542,-0.7933,-0.0064,-0.2518,0.055,0.033,0.057
2025-11-06 18:34:30.440,135.73,0.602,0.622,0.45,-0.459,-0.929,0.219,4.88,-6.95,-41.71,0.5527000000000001,-0.7937000000000001,-0.0067,-0.2536,0.046,0.044,0.066
2025-11-06 18:34:30.440,135.735,0.581,0.589,0.439,-0.447,-0.9420000000000001,0.216,4.88,-6.95,-41.71,0.5512,-0.7942,-0.007,-0.2553,0.031,0.058,0.07100000000000001
2025-11-06 18:34:30.440,135.74,0.555,0.538,0.43,-0.433,-0.9540000000000001,0.217,4.82,-7.16,-40.45,0.5498000000000001,-0.7947000000000001,-0.007200000000000001,-0.257,0.015,0.073,0.07200000000000001
2025-11-06 18:34:30.440,135.745,0.528,0.509,0.42,-0.418,-0.963,0.219,4.82,-7.16,-40.45,0.5484,-0.7951,-0.0073,-0.2585,-0.002,0.083,0.07100000000000001
2025-11-06 18:34:30.440,135.75,0.499,0.47200000000000003,0.40900000000000003,-0.40700000000000003,-0.97,0.223,4.82,-7.16,-40.45,0.5471,-0.7955,-0.007500000000000001,-0.26,-0.015,0.092,0.069
2025-11-06 18:34:30.440,135.755,0.462,0.434,0.393,-0.39,-0.971,0.229,4.29,-7.42,-40.39,0.5459,-0.7959,-0.007500000000000001,-0.2614,-0.034,0.095,0.064
2025-11-06 18:34:30.440,135.76,0.426,0.405,0.378,-0.377,-0.97,0.242,4.29,-7.42,-40.39,0.5447000000000001,-0.7963,-0.0076,-0.2627,-0.049,0.096,0.052000000000000005
2025-11-06 18:34:30.440,135.765,0.386,0.377,0.358,-0.362,-0.968,0.257,4.26,-7.42,-39.660000000000004,0.5437000000000001,-0.7966000000000001,-0.0076,-0.2639,-0.067,0.095,0.038
2025-11-06 18:34:30.440,135.77,0.35100000000000003,0.34900000000000003,0.338,-0.34900000000000003,-0.962,0.272,4.26,-6.72,-39.660000000000004,0.5427000000000001,-0.7969,-0.0076,-0.265,-0.081,0.091,0.025
2025-11-06 18:34:30.440,135.775,0.325,0.306,0.318,-0.34400000000000003,-0.9560000000000001,0.28,4.26,-6.72,-39.660000000000004,0.5418000000000001,-0.7971,-0.0076,-0.266,-0.088,0.08600000000000001,0.017
2025-11-06 18:34:30.440,135.78,0.331,0.302,0.311,-0.35000000000000003,-0.9500000000000001,0.305,4.76,-6.6000000000000005,-39.92,0.5409,-0.7974,-0.0076,-0.267,-0.085,0.081,-0.007
2025-11-06 18:34:30.440,135.785,0.343,0.28700000000000003,0.305,-0.353,-0.9410000000000001,0.315,4.76,-6.6000000000000005,-39.92,0.54,-0.7977000000000001,-0.0076,-0.268,-0.083,0.074,-0.015
2025-11-06 18:34:30.440,135.79,0.359,0.264,0.303,-0.362,-0.928,0.324,4.76,-6.6000000000000005,-39.92,0.5391,-0.7981,-0.0076,-0.26890000000000003,-0.076,0.062,-0.024
2025-11-06 18:34:30.440,135.795,0.376,0.229,0.304,-0.381,-0.913,0.329,4.47,-7.24,-39.52,0.5381,-0.7984,-0.007500000000000001,-0.2697,-0.059000000000000004,0.049,-0.028
2025-11-06 18:34:30.440,135.8,0.378,0.187,0.31,-0.398,-0.897,0.326,4.47,-7.24,-39.52,0.5371,-0.7988000000000001,-0.0074,-0.2705,-0.044,0.033,-0.024
2025-11-06 18:34:30.440,135.805,0.382,0.165,0.308,-0.419,-0.885,0.324,3.77,-9.0,-39.08,0.5361,-0.7993,-0.007200000000000001,-0.2712,-0.024,0.022,-0.021
2025-11-06 18:34:30.440,135.81,0.378,0.135,0.316,-0.421,-0.871,0.312,3.77,-9.0,-39.08,0.5351,-0.7997000000000001,-0.007,-0.27190000000000003,-0.024,0.009000000000000001,-0.008
2025-11-06 18:34:30.440,135.815,0.368,0.10200000000000001,0.322,-0.44,-0.864,0.313,3.77,-9.0,-39.08,0.5341,-0.8002,-0.0068000000000000005,-0.2725,-0.006,0.003,-0.008
2025-11-06 18:34:30.440,135.82,0.36,0.08700000000000001,0.322,-0.447,-0.857,0.307,3.8200000000000003,-7.54,-38.43,0.5331,-0.8006000000000001,-0.006500000000000001,-0.2731,-0.002,-0.002,-0.001
2025-11-06 18:34:30.440,135.825,0.353,0.093,0.314,-0.463,-0.85,0.303,3.8200000000000003,-7.54,-38.43,0.5322,-0.8011,-0.006200000000000001,-0.2736,0.012,-0.008,0.004
2025-11-06 18:34:30.440,135.83,0.342,0.11,0.296,-0.47900000000000004,-0.851,0.294,4.0600000000000005,-7.95,-38.46,0.5313,-0.8015,-0.006,-0.2742,0.026000000000000002,-0.006,0.014
2025-11-06 18:34:30.440,135.835,0.323,0.116,0.28400000000000003,-0.485,-0.846,0.28800000000000003,4.0600000000000005,-7.95,-38.46,0.5304,-0.8018000000000001,-0.0058000000000000005,-0.2748,0.031,-0.01,0.021
2025-11-06 18:34:30.440,135.84,0.302,0.107,0.262,-0.501,-0.848,0.28600000000000003,4.0600000000000005,-7.95,-38.46,0.5296000000000001,-0.8022,-0.0056,-0.27540000000000003,0.046,-0.007,0.024
2025-11-06 18:34:30.440,135.845,0.289,0.134,0.242,-0.515,-0.85,0.28300000000000003,3.65,-7.86,-38.26,0.5288,-0.8025,-0.0054,-0.276,0.058,-0.004,0.028
2025-11-06 18:34:30.440,135.85,0.277,0.153,0.214,-0.519,-0.85,0.275,3.65,-7.86,-38.26,0.5281,-0.8028000000000001,-0.0054,-0.2766,0.062,-0.003,0.037
2025-11-06 18:34:30.440,135.855,0.266,0.163,0.176,-0.523,-0.843,0.265,3.09,-7.92,-38.550000000000004,0.5274,-0.803,-0.0054,-0.2771,0.064,-0.01,0.047
2025-11-06 18:34:30.440,135.86,0.24,0.17500000000000002,0.14,-0.521,-0.8310000000000001,0.261,3.09,-7.92,-38.550000000000004,0.5268,-0.8032,-0.0055000000000000005,-0.2777,0.061,-0.021,0.052000000000000005
2025-11-06 18:34:30.440,135.865,0.223,0.17200000000000001,0.111,-0.512,-0.8250000000000001,0.261,3.09,-7.92,-38.550000000000004,0.5263,-0.8034,-0.0057,-0.2782,0.052000000000000005,-0.026000000000000002,0.052000000000000005
2025-11-06 18:34:30.440,135.87,0.203,0.168,0.082,-0.502,-0.8180000000000001,0.263,3.5300000000000002,-7.36,-38.08,0.5258,-0.8036000000000001,-0.0058000000000000005,-0.2786,0.041,-0.033,0.051000000000000004
2025-11-06 18:34:30.440,135.875,0.192,0.165,0.063,-0.496,-0.807,0.262,3.5300000000000002,-7.36,-38.08,0.5254,-0.8037000000000001,-0.006,-0.279,0.034,-0.043000000000000003,0.052000000000000005
2025-11-06 18:34:30.441,135.88,0.187,0.161,0.046,-0.483,-0.8,0.264,3.74,-7.13,-38.0,0.5249,-0.8038000000000001,-0.0063,-0.27940000000000004,0.02,-0.05,0.051000000000000004
2025-11-06 18:34:30.441,135.885,0.18,0.147,0.034,-0.458,-0.794,0.268,3.74,-7.13,-38.0,0.5245000000000001,-0.804,-0.006500000000000001,-0.2798,-0.003,-0.055,0.047
2025-11-06 18:34:30.441,135.89,0.178,0.121,0.034,-0.448,-0.792,0.272,3.74,-7.13,-38.0,0.5241,-0.8042,-0.0067,-0.28,-0.014,-0.056,0.044
2025-11-06 18:34:30.441,135.895,0.179,0.106,0.043000000000000003,-0.44,-0.793,0.278,2.74,-7.45,-38.17,0.5237,-0.8043,-0.006900000000000001,-0.2803,-0.023,-0.055,0.038
2025-11-06 18:34:30.441,135.9,0.187,0.08700000000000001,0.054,-0.432,-0.796,0.28700000000000003,2.74,-7.45,-38.17,0.5233,-0.8045,-0.0071,-0.2806,-0.031,-0.051000000000000004,0.03
2025-11-06 18:34:30.441,135.905,0.197,0.069,0.073,-0.425,-0.799,0.296,2.83,-6.95,-38.17,0.5228,-0.8047000000000001,-0.0071,-0.2808,-0.038,-0.047,0.022
2025-11-06 18:34:30.441,135.91,0.211,0.055,0.093,-0.421,-0.806,0.307,2.83,-6.95,-38.17,0.5223,-0.805,-0.007200000000000001,-0.281,-0.043000000000000003,-0.04,0.012
2025-11-06 18:34:30.441,135.915,0.231,0.039,0.125,-0.421,-0.8160000000000001,0.316,2.83,-6.95,-38.17,0.5218,-0.8053,-0.0071,-0.2812,-0.044,-0.029,0.004
2025-11-06 18:34:30.441,135.92,0.247,0.029,0.14200000000000002,-0.425,-0.8260000000000001,0.323,3.0100000000000002,-7.04,-38.26,0.5211,-0.8056000000000001,-0.007,-0.28150000000000003,-0.039,-0.019,-0.001
2025-11-06 18:34:30.441,135.925,0.255,0.02,0.159,-0.432,-0.834,0.332,3.0100000000000002,-7.04,-38.26,0.5205000000000001,-0.8059000000000001,-0.006900000000000001,-0.2817,-0.033,-0.009000000000000001,-0.009000000000000001
2025-11-06 18:34:30.441,135.93,0.258,0.007,0.17300000000000001,-0.438,-0.849,0.34,2.68,-7.13,-37.79,0.5198,-0.8063,-0.0068000000000000005,-0.28190000000000004,-0.028,0.005,-0.016
2025-11-06 18:34:30.441,135.935,0.259,0.0,0.18,-0.447,-0.858,0.34600000000000003,2.68,-7.13,-37.79,0.5192,-0.8066,-0.0066,-0.2821,-0.02,0.015,-0.02
2025-11-06 18:34:30.441,135.94,0.263,-0.004,0.188,-0.46,-0.868,0.34800000000000003,2.68,-7.13,-37.79,0.5185000000000001,-0.807,-0.0064,-0.2823,-0.007,0.026000000000000002,-0.021
2025-11-06 18:34:30.441,135.945,0.262,-0.019,0.194,-0.47600000000000003,-0.88,0.35100000000000003,2.33,-7.48,-37.38,0.5178,-0.8074,-0.006200000000000001,-0.28250000000000003,0.007,0.038,-0.022
2025-11-06 18:34:30.441,135.95,0.263,-0.025,0.194,-0.487,-0.884,0.35000000000000003,2.33,-7.48,-37.38,0.5171,-0.8077000000000001,-0.0059,-0.2827,0.017,0.044,-0.02
2025-11-06 18:34:30.441,135.955,0.263,-0.03,0.19,-0.502,-0.885,0.35000000000000003,2.45,-7.2700000000000005,-37.26,0.5164,-0.8081,-0.0057,-0.28290000000000004,0.032,0.045,-0.019
2025-11-06 18:34:30.441,135.96,0.258,-0.03,0.183,-0.517,-0.887,0.34700000000000003,2.45,-7.2700000000000005,-37.26,0.5158,-0.8085,-0.0055000000000000005,-0.28300000000000003,0.045,0.048,-0.015
2025-11-06 18:34:30.441,135.965,0.252,-0.03,0.17500000000000002,-0.532,-0.882,0.34900000000000003,2.45,-7.2700000000000005,-37.26,0.5151,-0.8089000000000001,-0.005200000000000001,-0.2832,0.06,0.044,-0.016
2025-11-06 18:34:30.441,135.97,0.244,-0.029,0.164,-0.548,-0.877,0.354,2.13,-6.75,-36.910000000000004,0.5145000000000001,-0.8092,-0.005,-0.2833,0.076,0.039,-0.02
2025-11-06 18:34:30.441,135.975,0.23700000000000002,-0.022,0.149,-0.559,-0.868,0.359,2.13,-6.75,-36.910000000000004,0.5139,-0.8095,-0.0049,-0.28350000000000003,0.085,0.031,-0.024
2025-11-06 18:34:30.441,135.98,0.226,-0.011,0.128,-0.5670000000000001,-0.854,0.364,2.71,-7.19,-36.94,0.5133,-0.8099000000000001,-0.0048000000000000004,-0.2836,0.093,0.017,-0.028
2025-11-06 18:34:30.441,135.985,0.216,-0.007,0.113,-0.5670000000000001,-0.838,0.368,2.71,-7.19,-36.94,0.5128,-0.8102,-0.0047,-0.2837,0.093,0.003,-0.032
2025-11-06 18:34:30.441,135.99,0.20800000000000002,-0.002,0.095,-0.5650000000000001,-0.8190000000000001,0.372,2.71,-7.19,-36.94,0.5123,-0.8104,-0.0046,-0.2838,0.09,-0.015,-0.035
2025-11-06 18:34:30.441,135.995,0.20500000000000002,0.02,0.081,-0.559,-0.796,0.372,1.92,-6.95,-37.44,0.5118,-0.8107000000000001,-0.0046,-0.28400000000000003,0.083,-0.038,-0.035
2025-11-06 18:34:30.441,136.0,0.20500000000000002,0.025,0.064,-0.544,-0.767,0.368,1.92,-6.95,-37.44,0.5113,-0.811,-0.0046,-0.2841,0.067,-0.066,-0.031
2025-11-06 18:34:30.441,136.005,0.21,0.023,0.056,-0.53,-0.741,0.367,2.13,-6.92,-37.0,0.5108,-0.8112,-0.0047,-0.2842,0.053,-0.091,-0.029
2025-11-06 18:34:30.441,136.01,0.219,0.019,0.051000000000000004,-0.516,-0.71,0.365,2.13,-6.92,-37.0,0.5103,-0.8115,-0.0048000000000000004,-0.2843,0.038,-0.121,-0.027
2025-11-06 18:34:30.441,136.015,0.234,0.007,0.049,-0.503,-0.6900000000000001,0.363,2.13,-6.92,-37.0,0.5098,-0.8118000000000001,-0.0049,-0.2844,0.025,-0.14100000000000001,-0.024
2025-11-06 18:34:30.441,136.02,0.253,-0.005,0.048,-0.492,-0.671,0.363,2.16,-7.48,-37.64,0.5092,-0.8121,-0.0049,-0.28450000000000003,0.014,-0.16,-0.023
2025-11-06 18:34:30.441,136.025,0.277,-0.022,0.049,-0.483,-0.658,0.364,2.16,-7.48,-37.64,0.5086,-0.8125,-0.005,-0.28450000000000003,0.004,-0.17200000000000001,-0.024
2025-11-06 18:34:30.441,136.03,0.312,-0.03,0.052000000000000005,-0.47300000000000003,-0.648,0.368,2.16,-7.48,-37.64,0.5079,-0.8130000000000001,-0.0051,-0.28450000000000003,-0.005,-0.181,-0.027
2025-11-06 18:34:30.441,136.035,0.35000000000000003,-0.052000000000000005,0.055,-0.468,-0.641,0.372,2.45,-7.74,-36.83,0.5072,-0.8135,-0.005200000000000001,-0.2844,-0.01,-0.188,-0.029
2025-11-06 18:34:30.441,136.04,0.382,-0.061,0.059000000000000004,-0.46900000000000003,-0.635,0.375,2.45,-7.74,-36.83,0.5063,-0.8140000000000001,-0.005200000000000001,-0.2843,-0.009000000000000001,-0.192,-0.031
2025-11-06 18:34:30.441,136.045,0.405,-0.074,0.062,-0.47400000000000003,-0.634,0.376,2.54,-7.83,-36.5,0.5054000000000001,-0.8146,-0.0053,-0.2843,-0.005,-0.192,-0.029
2025-11-06 18:34:30.441,136.05,0.426,-0.096,0.065,-0.47700000000000004,-0.631,0.378,2.54,-7.83,-36.5,0.5045000000000001,-0.8152,-0.0054,-0.2841,-0.002,-0.195,-0.029
2025-11-06 18:34:30.441,136.055,0.439,-0.112,0.068,-0.484,-0.63,0.381,2.54,-7.83,-36.5,0.5035000000000001,-0.8159000000000001,-0.0054,-0.28400000000000003,0.004,-0.195,-0.031
2025-11-06 18:34:30.441,136.06,0.452,-0.131,0.073,-0.492,-0.631,0.392,2.0100000000000002,-7.19,-36.15,0.5025000000000001,-0.8165,-0.0054,-0.2838,0.012,-0.193,-0.039
2025-11-06 18:34:30.441,136.065,0.463,-0.154,0.079,-0.497,-0.634,0.406,2.0100000000000002,-7.19,-36.15,0.5015000000000001,-0.8172,-0.0054,-0.2836,0.018000000000000002,-0.188,-0.051000000000000004
2025-11-06 18:34:30.441,136.07,0.47000000000000003,-0.168,0.085,-0.501,-0.637,0.421,2.1,-6.98,-35.72,0.5005000000000001,-0.8180000000000001,-0.0054,-0.2833,0.021,-0.184,-0.064
2025-11-06 18:34:30.441,136.075,0.484,-0.183,0.094,-0.505,-0.645,0.438,2.1,-6.98,-35.72,0.4994,-0.8187000000000001,-0.0053,-0.28300000000000003,0.025,-0.17500000000000002,-0.079
2025-11-06 18:34:30.441,136.08,0.5,-0.195,0.106,-0.51,-0.653,0.453,2.1,-6.98,-35.72,0.4983,-0.8195,-0.005200000000000001,-0.2827,0.03,-0.165,-0.091
2025-11-06 18:34:30.441,136.085,0.515,-0.211,0.12,-0.509,-0.663,0.468,2.0100000000000002,-7.22,-36.04,0.49710000000000004,-0.8203,-0.0051,-0.28240000000000004,0.029,-0.154,-0.10300000000000001
2025-11-06 18:34:30.441,136.09,0.532,-0.22,0.136,-0.513,-0.683,0.487,2.0100000000000002,-7.22,-36.04,0.4959,-0.8212,-0.0049,-0.2821,0.033,-0.133,-0.11900000000000001
2025-11-06 18:34:30.441,136.095,0.551,-0.225,0.147,-0.509,-0.6940000000000001,0.498,2.3000000000000003,-6.92,-35.28,0.49460000000000004,-0.8220000000000001,-0.0047,-0.2818,0.029,-0.12,-0.126
2025-11-06 18:34:30.441,136.1,0.556,-0.231,0.156,-0.51,-0.704,0.506,2.3000000000000003,-6.92,-35.28,0.4933,-0.8229000000000001,-0.0045000000000000005,-0.28150000000000003,0.03,-0.108,-0.131
2025-11-06 18:34:30.441,136.105,0.553,-0.229,0.154,-0.51,-0.715,0.511,2.3000000000000003,-6.92,-35.28,0.49200000000000005,-0.8238000000000001,-0.0043,-0.2812,0.029,-0.096,-0.133
2025-11-06 18:34:30.441,136.11,0.547,-0.226,0.151,-0.509,-0.72,0.516,1.95,-6.75,-35.51,0.4907,-0.8247,-0.0041,-0.28090000000000004,0.029,-0.09,-0.136
2025-11-06 18:34:30.441,136.115,0.541,-0.225,0.146,-0.508,-0.729,0.518,1.95,-6.75,-35.51,0.4894,-0.8255,-0.0039000000000000003,-0.2806,0.028,-0.079,-0.134
2025-11-06 18:34:30.441,136.12,0.538,-0.217,0.14,-0.505,-0.738,0.516,2.04,-6.92,-35.19,0.4882,-0.8264,-0.0037,-0.2803,0.024,-0.069,-0.129
2025-11-06 18:34:30.441,136.125,0.528,-0.213,0.12,-0.499,-0.739,0.509,2.04,-6.92,-35.19,0.48700000000000004,-0.8272,-0.0036000000000000003,-0.28,0.019,-0.066,-0.12
2025-11-06 18:34:30.441,136.13,0.519,-0.20600000000000002,0.107,-0.496,-0.738,0.5,2.04,-6.92,-35.19,0.4858,-0.8280000000000001,-0.0035,-0.2797,0.015,-0.066,-0.107
2025-11-06 18:34:30.441,136.135,0.514,-0.198,0.094,-0.49,-0.734,0.489,1.98,-6.95,-35.51,0.48460000000000003,-0.8288000000000001,-0.0034000000000000002,-0.27940000000000004,0.01,-0.07,-0.094
2025-11-06 18:34:30.441,136.14,0.511,-0.188,0.078,-0.485,-0.729,0.47800000000000004,1.98,-6.95,-35.51,0.4834,-0.8296,-0.0034000000000000002,-0.2791,0.004,-0.074,-0.08
2025-11-06 18:34:30.441,136.145,0.511,-0.177,0.065,-0.47800000000000004,-0.72,0.47100000000000003,1.9000000000000001,-6.34,-34.52,0.4823,-0.8304,-0.0034000000000000002,-0.2787,-0.002,-0.081,-0.07100000000000001
2025-11-06 18:34:30.442,136.15,0.519,-0.157,0.038,-0.468,-0.71,0.456,1.9000000000000001,-6.34,-34.52,0.4812,-0.8311000000000001,-0.0035,-0.2785,-0.012,-0.091,-0.054
2025-11-06 18:34:30.442,136.155,0.533,-0.14200000000000002,0.027,-0.463,-0.7020000000000001,0.446,1.9000000000000001,-6.34,-34.52,0.48000000000000004,-0.8319000000000001,-0.0037,-0.2782,-0.016,-0.098,-0.042
2025-11-06 18:34:30.442,136.16,0.542,-0.129,0.016,-0.463,-0.6960000000000001,0.436,2.2800000000000002,-6.22,-34.28,0.4788,-0.8326,-0.0039000000000000003,-0.27790000000000004,-0.017,-0.10200000000000001,-0.029
2025-11-06 18:34:30.442,136.165,0.55,-0.117,0.011,-0.46,-0.6910000000000001,0.424,2.2800000000000002,-6.22,-34.28,0.4777,-0.8334,-0.0041,-0.2777,-0.019,-0.107,-0.015
2025-11-06 18:34:30.442,136.17,0.551,-0.109,0.005,-0.457,-0.687,0.41300000000000003,1.98,-7.36,-34.22,0.47650000000000003,-0.8342,-0.0044,-0.27740000000000004,-0.022,-0.11,-0.001
2025-11-06 18:34:30.442,136.175,0.548,-0.088,0.004,-0.455,-0.687,0.401,1.98,-7.36,-34.22,0.4753,-0.8349000000000001,-0.0047,-0.2772,-0.024,-0.109,0.012
2025-11-06 18:34:30.442,136.18,0.532,-0.077,0.009000000000000001,-0.454,-0.685,0.393,1.98,-7.36,-34.22,0.4742,-0.8356,-0.0049,-0.2771,-0.025,-0.11,0.023
2025-11-06 18:34:30.442,136.185,0.519,-0.068,0.015,-0.455,-0.6890000000000001,0.39,2.42,-6.25,-33.76,0.47300000000000003,-0.8363,-0.005200000000000001,-0.27690000000000003,-0.023,-0.105,0.028
2025-11-06 18:34:30.442,136.19,0.5,-0.074,0.025,-0.456,-0.6920000000000001,0.385,2.42,-6.25,-33.76,0.47190000000000004,-0.8369000000000001,-0.0054,-0.2768,-0.022,-0.1,0.035
2025-11-06 18:34:30.442,136.195,0.483,-0.079,0.036000000000000004,-0.452,-0.6990000000000001,0.384,1.84,-7.51,-33.06,0.47090000000000004,-0.8376,-0.0056,-0.2767,-0.026000000000000002,-0.093,0.039
2025-11-06 18:34:30.442,136.2,0.464,-0.093,0.046,-0.449,-0.704,0.384,1.84,-7.51,-33.06,0.46990000000000004,-0.8382000000000001,-0.0057,-0.2765,-0.029,-0.08700000000000001,0.041
2025-11-06 18:34:30.442,136.205,0.445,-0.105,0.059000000000000004,-0.442,-0.708,0.389,1.84,-7.51,-33.06,0.46890000000000004,-0.8388,-0.0058000000000000005,-0.2763,-0.036000000000000004,-0.082,0.038
2025-11-06 18:34:30.442,136.21,0.41500000000000004,-0.11800000000000001,0.07100000000000001,-0.434,-0.711,0.395,1.84,-5.96,-32.88,0.46790000000000004,-0.8394,-0.0058000000000000005,-0.2762,-0.044,-0.078,0.034
2025-11-06 18:34:30.442,136.215,0.395,-0.132,0.078,-0.428,-0.71,0.404,1.84,-5.96,-32.88,0.467,-0.8400000000000001,-0.0057,-0.276,-0.05,-0.077,0.027
2025-11-06 18:34:30.442,136.22,0.376,-0.14300000000000002,0.078,-0.42,-0.704,0.41500000000000004,1.9000000000000001,-6.86,-33.29,0.4662,-0.8405,-0.0057,-0.2757,-0.059000000000000004,-0.081,0.018000000000000002
2025-11-06 18:34:30.442,136.225,0.35000000000000003,-0.168,0.075,-0.41100000000000003,-0.6980000000000001,0.425,1.9000000000000001,-6.86,-33.29,0.46530000000000005,-0.8411000000000001,-0.0056,-0.2755,-0.067,-0.08700000000000001,0.01
2025-11-06 18:34:30.442,136.23,0.331,-0.195,0.07100000000000001,-0.401,-0.6880000000000001,0.434,1.9000000000000001,-6.86,-33.29,0.4646,-0.8416,-0.0054,-0.2751,-0.077,-0.096,0.002
2025-11-06 18:34:30.442,136.235,0.316,-0.228,0.068,-0.389,-0.677,0.439,3.15,-5.84,-33.99,0.46390000000000003,-0.8421000000000001,-0.005200000000000001,-0.2747,-0.09,-0.105,0.0
2025-11-06 18:34:30.442,136.24,0.312,-0.292,0.06,-0.379,-0.672,0.44,3.15,-5.84,-33.99,0.4632,-0.8427,-0.005,-0.2741,-0.099,-0.11,0.0
2025-11-06 18:34:30.442,136.245,0.316,-0.339,0.053,-0.374,-0.673,0.44,1.87,-5.46,-33.35,0.4625,-0.8433,-0.0047,-0.2735,-0.10300000000000001,-0.108,0.001
2025-11-06 18:34:30.442,136.25,0.332,-0.383,0.045,-0.374,-0.674,0.441,1.87,-5.46,-33.35,0.4617,-0.8440000000000001,-0.0045000000000000005,-0.2727,-0.10300000000000001,-0.106,0.002
2025-11-06 18:34:30.442,136.255,0.34800000000000003,-0.41500000000000004,0.038,-0.377,-0.678,0.447,1.87,-5.46,-33.35,0.46090000000000003,-0.8447,-0.004200000000000001,-0.27190000000000003,-0.099,-0.101,0.0
2025-11-06 18:34:30.442,136.26,0.367,-0.448,0.027,-0.385,-0.685,0.451,1.46,-5.75,-33.11,0.4601,-0.8454,-0.0039000000000000003,-0.27090000000000003,-0.09,-0.093,-0.001
2025-11-06 18:34:30.442,136.265,0.376,-0.47500000000000003,0.012,-0.403,-0.6960000000000001,0.456,1.46,-5.75,-33.11,0.45930000000000004,-0.8462000000000001,-0.0036000000000000003,-0.26990000000000003,-0.07100000000000001,-0.081,-0.003
2025-11-06 18:34:30.442,136.27,0.381,-0.496,-0.002,-0.422,-0.706,0.46,2.5100000000000002,-5.17,-33.49,0.4585,-0.8469,-0.0033,-0.26890000000000003,-0.051000000000000004,-0.07100000000000001,-0.005
2025-11-06 18:34:30.442,136.275,0.385,-0.507,-0.02,-0.446,-0.716,0.46900000000000003,2.5100000000000002,-5.17,-33.49,0.4577,-0.8477,-0.003,-0.26780000000000004,-0.025,-0.059000000000000004,-0.011
2025-11-06 18:34:30.442,136.28,0.37,-0.5,-0.036000000000000004,-0.466,-0.721,0.47700000000000004,2.5100000000000002,-5.17,-33.49,0.45690000000000003,-0.8485,-0.0028,-0.2667,-0.004,-0.054,-0.017
2025-11-06 18:34:30.442,136.285,0.34800000000000003,-0.493,-0.053,-0.481,-0.726,0.483,1.87,-5.2,-32.47,0.4562,-0.8492000000000001,-0.0026000000000000003,-0.2655,0.011,-0.048,-0.02
2025-11-06 18:34:30.442,136.29,0.314,-0.484,-0.07200000000000001,-0.496,-0.732,0.486,1.87,-5.2,-32.47,0.4556,-0.8499,-0.0025,-0.2644,0.027,-0.042,-0.02
2025-11-06 18:34:30.442,136.295,0.272,-0.47600000000000003,-0.095,-0.508,-0.74,0.491,1.87,-5.2,-32.47,0.4551,-0.8505,-0.0023,-0.26330000000000003,0.04,-0.033,-0.023
2025-11-06 18:34:30.442,136.3,0.232,-0.463,-0.113,-0.515,-0.745,0.495,1.9000000000000001,-4.96,-32.79,0.45470000000000005,-0.8511000000000001,-0.0022,-0.2622,0.049,-0.028,-0.025
2025-11-06 18:34:30.442,136.305,0.199,-0.454,-0.121,-0.515,-0.746,0.496,1.9000000000000001,-4.96,-32.79,0.45430000000000004,-0.8516,-0.0021000000000000003,-0.2611,0.05,-0.027,-0.024
2025-11-06 18:34:30.442,136.31,0.176,-0.446,-0.13,-0.511,-0.745,0.498,1.84,-4.44,-32.79,0.454,-0.8521000000000001,-0.002,-0.26,0.048,-0.027,-0.025
2025-11-06 18:34:30.442,136.315,0.155,-0.429,-0.132,-0.504,-0.743,0.504,1.84,-4.44,-32.79,0.45380000000000004,-0.8526,-0.0019,-0.259,0.043000000000000003,-0.029,-0.028
2025-11-06 18:34:30.442,136.32,0.14,-0.423,-0.132,-0.494,-0.739,0.506,1.84,-4.44,-32.79,0.4535,-0.8530000000000001,-0.0019,-0.2579,0.034,-0.033,-0.03
2025-11-06 18:34:30.442,136.325,0.128,-0.422,-0.127,-0.47900000000000004,-0.734,0.511,3.91,-4.91,-32.53,0.45330000000000004,-0.8534,-0.0018000000000000002,-0.2569,0.021,-0.038,-0.033
2025-11-06 18:34:30.442,136.33,0.124,-0.431,-0.12,-0.462,-0.726,0.511,3.91,-4.91,-32.53,0.4531,-0.8538,-0.0016,-0.2558,0.005,-0.046,-0.031
2025-11-06 18:34:30.442,136.335,0.123,-0.438,-0.11,-0.446,-0.719,0.51,3.06,-5.29,-32.44,0.453,-0.8543000000000001,-0.0015,-0.2548,-0.009000000000000001,-0.053,-0.029
2025-11-06 18:34:30.442,136.34,0.117,-0.449,-0.10300000000000001,-0.432,-0.713,0.505,3.06,-5.29,-32.44,0.45280000000000004,-0.8547,-0.0013000000000000002,-0.25370000000000004,-0.021,-0.058,-0.023
2025-11-06 18:34:30.442,136.345,0.113,-0.455,-0.097,-0.418,-0.709,0.497,3.06,-5.29,-32.44,0.4526,-0.8551000000000001,-0.0011,-0.2526,-0.034,-0.063,-0.014
2025-11-06 18:34:30.442,136.35,0.111,-0.458,-0.09,-0.40700000000000003,-0.7020000000000001,0.489,2.68,-5.26,-32.79,0.4524,-0.8555,-0.0008,-0.2515,-0.043000000000000003,-0.07,-0.005
2025-11-06 18:34:30.442,136.355,0.121,-0.47000000000000003,-0.082,-0.398,-0.6920000000000001,0.489,2.68,-5.26,-32.79,0.45220000000000005,-0.8559,-0.0006000000000000001,-0.2504,-0.051000000000000004,-0.08,-0.003
2025-11-06 18:34:30.442,136.36,0.134,-0.47900000000000004,-0.07200000000000001,-0.398,-0.674,0.492,2.83,-5.0200000000000005,-32.21,0.452,-0.8564,-0.00030000000000000003,-0.24930000000000002,-0.05,-0.097,-0.005
2025-11-06 18:34:30.442,136.365,0.133,-0.486,-0.067,-0.403,-0.664,0.499,2.83,-5.0200000000000005,-32.21,0.45170000000000005,-0.8568,0.0,-0.2482,-0.044,-0.107,-0.01
2025-11-06 18:34:30.442,136.37,0.131,-0.501,-0.063,-0.41100000000000003,-0.658,0.504,2.83,-5.0200000000000005,-32.21,0.4515,-0.8573000000000001,0.0002,-0.24710000000000001,-0.034,-0.113,-0.014
2025-11-06 18:34:30.442,136.375,0.127,-0.522,-0.054,-0.419,-0.654,0.512,2.74,-6.34,-32.5,0.45130000000000003,-0.8578,0.0006000000000000001,-0.2459,-0.025,-0.117,-0.021
2025-11-06 18:34:30.442,136.38,0.115,-0.552,-0.048,-0.426,-0.651,0.521,2.74,-6.34,-32.5,0.451,-0.8582000000000001,0.001,-0.2447,-0.016,-0.12,-0.028
2025-11-06 18:34:30.442,136.385,0.105,-0.5720000000000001,-0.042,-0.431,-0.651,0.538,3.21,-4.73,-32.410000000000004,0.4509,-0.8587,0.0014,-0.2434,-0.01,-0.11900000000000001,-0.044
2025-11-06 18:34:30.442,136.39,0.094,-0.56,-0.042,-0.434,-0.652,0.552,3.21,-4.73,-32.410000000000004,0.45070000000000005,-0.8591000000000001,0.0019,-0.2421,-0.005,-0.11800000000000001,-0.057
2025-11-06 18:34:30.442,136.395,0.077,-0.533,-0.05,-0.444,-0.651,0.562,3.21,-4.73,-32.410000000000004,0.4505,-0.8595,0.0023,-0.2409,0.006,-0.11900000000000001,-0.065
2025-11-06 18:34:30.442,136.4,0.054,-0.52,-0.064,-0.459,-0.649,0.562,4.29,-5.4,-32.76,0.4505,-0.8599,0.0027,-0.23970000000000002,0.022,-0.121,-0.064
2025-11-06 18:34:30.442,136.405,0.033,-0.519,-0.089,-0.47000000000000003,-0.651,0.559,4.29,-5.4,-32.76,0.4504,-0.8603000000000001,0.0031000000000000003,-0.23850000000000002,0.035,-0.11900000000000001,-0.059000000000000004
2025-11-06 18:34:30.442,136.41,0.017,-0.525,-0.11800000000000001,-0.47600000000000003,-0.649,0.555,3.62,-5.14,-32.68,0.4505,-0.8606,0.0033,-0.2373,0.042,-0.121,-0.054
2025-11-06 18:34:30.442,136.415,0.007,-0.53,-0.16,-0.483,-0.647,0.553,3.62,-5.14,-32.68,0.4506,-0.8609,0.0036000000000000003,-0.23600000000000002,0.051000000000000004,-0.124,-0.051000000000000004
2025-11-06 18:34:30.442,136.42,-0.022,-0.527,-0.202,-0.48,-0.642,0.562,3.62,-5.14,-32.68,0.45070000000000005,-0.8612000000000001,0.0037,-0.2346,0.05,-0.129,-0.06
2025-11-06 18:34:30.444,136.425,-0.036000000000000004,-0.52,-0.23900000000000002,-0.47700000000000004,-0.638,0.5700000000000001,4.73,-4.99,-32.82,0.451,-0.8614,0.0038,-0.23320000000000002,0.049,-0.133,-0.067
2025-11-06 18:34:30.444,136.43,-0.052000000000000005,-0.502,-0.274,-0.47200000000000003,-0.642,0.579,4.73,-4.99,-32.82,0.45120000000000005,-0.8617,0.0038,-0.2318,0.046,-0.13,-0.075
2025-11-06 18:34:30.444,136.435,-0.055,-0.47500000000000003,-0.304,-0.463,-0.646,0.588,4.09,-4.67,-33.2,0.4515,-0.8619,0.0036000000000000003,-0.2305,0.04,-0.126,-0.083
2025-11-06 18:34:30.444,136.44,-0.055,-0.434,-0.325,-0.455,-0.652,0.594,4.09,-4.67,-33.2,0.45180000000000003,-0.8621000000000001,0.0034000000000000002,-0.22920000000000001,0.034,-0.121,-0.08700000000000001
2025-11-06 18:34:30.444,136.445,-0.048,-0.382,-0.341,-0.449,-0.658,0.578,4.09,-4.67,-33.2,0.4521,-0.8622000000000001,0.0031000000000000003,-0.228,0.031,-0.116,-0.07100000000000001
2025-11-06 18:34:30.444,136.45,-0.04,-0.334,-0.34500000000000003,-0.452,-0.662,0.5670000000000001,5.05,-4.5600000000000005,-33.2,0.4524,-0.8624,0.0028,-0.22690000000000002,0.036000000000000004,-0.113,-0.059000000000000004
2025-11-06 18:34:30.444,136.455,-0.031,-0.307,-0.343,-0.451,-0.663,0.5640000000000001,5.05,-4.5600000000000005,-33.2,0.45270000000000005,-0.8625,0.0024000000000000002,-0.22590000000000002,0.037,-0.112,-0.056
2025-11-06 18:34:30.444,136.46,-0.026000000000000002,-0.28800000000000003,-0.337,-0.45,-0.667,0.5630000000000001,4.26,-4.64,-32.53,0.4529,-0.8626,0.002,-0.22490000000000002,0.038,-0.109,-0.055
2025-11-06 18:34:30.444,136.465,-0.022,-0.28600000000000003,-0.322,-0.444,-0.674,0.5690000000000001,4.26,-4.64,-32.53,0.45320000000000005,-0.8628,0.0016,-0.22390000000000002,0.034,-0.10300000000000001,-0.06
2025-11-06 18:34:30.444,136.47,-0.03,-0.292,-0.305,-0.436,-0.675,0.5730000000000001,4.26,-4.64,-32.53,0.4534,-0.8629,0.0012000000000000001,-0.223,0.028,-0.10200000000000001,-0.063
2025-11-06 18:34:30.444,136.475,-0.046,-0.302,-0.271,-0.422,-0.68,0.5720000000000001,5.11,-4.88,-32.62,0.45370000000000005,-0.863,0.001,-0.222,0.015,-0.098,-0.062
2025-11-06 18:34:30.444,136.48,-0.059000000000000004,-0.298,-0.249,-0.41500000000000004,-0.687,0.5700000000000001,5.11,-4.88,-32.62,0.4539,-0.8631000000000001,0.0008,-0.22110000000000002,0.01,-0.091,-0.059000000000000004
2025-11-06 18:34:30.444,136.485,-0.069,-0.28700000000000003,-0.231,-0.405,-0.6940000000000001,0.5690000000000001,4.47,-4.32,-32.79,0.45420000000000005,-0.8632000000000001,0.0007,-0.2202,0.002,-0.08600000000000001,-0.058
2025-11-06 18:34:30.444,136.49,-0.089,-0.256,-0.22,-0.404,-0.6910000000000001,0.5720000000000001,4.47,-4.32,-32.79,0.4545,-0.8632000000000001,0.0005,-0.2194,0.003,-0.089,-0.06
2025-11-06 18:34:30.444,136.495,-0.115,-0.214,-0.225,-0.398,-0.6880000000000001,0.5680000000000001,4.47,-4.32,-32.79,0.4549,-0.8632000000000001,0.00030000000000000003,-0.2187,-0.001,-0.093,-0.057
2025-11-06 18:34:30.444,136.5,-0.149,-0.185,-0.244,-0.396,-0.675,0.559,4.91,-4.8500000000000005,-33.35,0.4554,-0.8631000000000001,0.0001,-0.21810000000000002,-0.001,-0.107,-0.048
2025-11-06 18:34:30.444,136.505,-0.202,-0.156,-0.289,-0.389,-0.646,0.553,4.91,-4.8500000000000005,-33.35,0.456,-0.8629,-0.0002,-0.2174,-0.007,-0.136,-0.044
2025-11-06 18:34:30.444,136.51,-0.233,-0.14,-0.322,-0.383,-0.633,0.553,4.64,-4.58,-33.82,0.4567,-0.8627,-0.0006000000000000001,-0.21680000000000002,-0.012,-0.151,-0.044
2025-11-06 18:34:30.444,136.515,-0.26,-0.117,-0.356,-0.374,-0.627,0.555,4.64,-4.58,-33.82,0.4575,-0.8625,-0.0011,-0.21610000000000001,-0.019,-0.158,-0.048
2025-11-06 18:34:30.444,136.52,-0.274,-0.085,-0.383,-0.37,-0.615,0.554,4.64,-4.58,-33.82,0.45830000000000004,-0.8622000000000001,-0.0017000000000000001,-0.2155,-0.022,-0.17200000000000001,-0.047
2025-11-06 18:34:30.444,136.525,-0.267,-0.042,-0.41200000000000003,-0.373,-0.611,0.548,5.67,-4.8500000000000005,-33.67,0.4591,-0.8619,-0.0024000000000000002,-0.215,-0.017,-0.177,-0.043000000000000003
2025-11-06 18:34:30.444,136.53,-0.263,0.011,-0.442,-0.39,-0.611,0.53,5.67,-4.8500000000000005,-33.67,0.45990000000000003,-0.8616,-0.0032,-0.21450000000000002,0.001,-0.179,-0.026000000000000002
2025-11-06 18:34:30.444,136.535,-0.243,0.052000000000000005,-0.47600000000000003,-0.399,-0.603,0.508,5.84,-4.88,-33.96,0.4607,-0.8612000000000001,-0.004200000000000001,-0.2141,0.012,-0.188,-0.005
2025-11-06 18:34:30.444,136.54,-0.218,0.08600000000000001,-0.519,-0.41400000000000003,-0.59,0.489,5.84,-4.88,-33.96,0.4615,-0.8609,-0.0053,-0.2137,0.028,-0.203,0.011
2025-11-06 18:34:30.444,136.545,-0.21,0.105,-0.54,-0.422,-0.5760000000000001,0.491,5.84,-4.88,-33.96,0.4622,-0.8606,-0.006500000000000001,-0.2134,0.038,-0.22,0.008
2025-11-06 18:34:30.444,136.55,-0.219,0.13,-0.559,-0.43,-0.5700000000000001,0.496,6.86,-6.0200000000000005,-33.7,0.463,-0.8602000000000001,-0.0078000000000000005,-0.21300000000000002,0.048,-0.227,0.002
2025-11-06 18:34:30.444,136.555,-0.232,0.16,-0.5650000000000001,-0.433,-0.561,0.494,6.86,-6.0200000000000005,-33.7,0.46380000000000005,-0.8599,-0.009000000000000001,-0.21280000000000002,0.052000000000000005,-0.23700000000000002,0.002
2025-11-06 18:34:30.444,136.56,-0.246,0.181,-0.56,-0.432,-0.557,0.481,6.86,-6.0200000000000005,-33.7,0.4647,-0.8595,-0.0103,-0.21250000000000002,0.053,-0.243,0.013000000000000001
2025-11-06 18:34:30.444,136.565,-0.26,0.189,-0.55,-0.424,-0.558,0.47500000000000003,6.1000000000000005,-4.38,-33.64,0.4655,-0.859,-0.011600000000000001,-0.21230000000000002,0.047,-0.244,0.018000000000000002
2025-11-06 18:34:30.445,136.57,-0.273,0.2,-0.537,-0.40900000000000003,-0.557,0.47600000000000003,6.1000000000000005,-4.38,-33.64,0.46640000000000004,-0.8586,-0.0128,-0.2122,0.034,-0.247,0.016
2025-11-06 18:34:30.445,136.575,-0.274,0.201,-0.529,-0.4,-0.556,0.48,6.28,-5.78,-33.87,0.46730000000000005,-0.8581000000000001,-0.014100000000000001,-0.21200000000000002,0.027,-0.249,0.01
2025-11-06 18:34:30.445,136.58,-0.276,0.186,-0.53,-0.386,-0.549,0.483,6.28,-5.78,-33.87,0.4682,-0.8576,-0.015300000000000001,-0.2119,0.014,-0.257,0.006
2025-11-06 18:34:30.445,136.585,-0.291,0.161,-0.537,-0.374,-0.549,0.48,6.28,-5.78,-33.87,0.4691,-0.8572000000000001,-0.0165,-0.2116,0.004,-0.259,0.007
2025-11-06 18:34:30.445,136.59,-0.326,0.128,-0.552,-0.356,-0.554,0.488,6.84,-5.5200000000000005,-34.28,0.4701,-0.8567,-0.0177,-0.21130000000000002,-0.011,-0.255,-0.001
2025-11-06 18:34:30.445,136.595,-0.364,0.105,-0.5650000000000001,-0.331,-0.561,0.5,6.84,-5.5200000000000005,-34.28,0.4712,-0.8562000000000001,-0.0188,-0.2109,-0.035,-0.249,-0.015
2025-11-06 18:34:30.445,136.6,-0.4,0.114,-0.581,-0.314,-0.5730000000000001,0.514,8.15,-4.5,-33.93,0.47240000000000004,-0.8556,-0.02,-0.21050000000000002,-0.049,-0.23900000000000002,-0.03
2025-11-06 18:34:30.445,136.605,-0.443,0.128,-0.597,-0.305,-0.582,0.517,8.15,-4.5,-33.93,0.4736,-0.8549,-0.0212,-0.2101,-0.056,-0.232,-0.035
2025-11-06 18:34:30.445,136.61,-0.484,0.121,-0.62,-0.301,-0.594,0.506,8.15,-4.5,-33.93,0.47500000000000003,-0.8542000000000001,-0.0224,-0.2097,-0.057,-0.222,-0.025
2025-11-06 18:34:30.445,136.615,-0.507,0.108,-0.645,-0.291,-0.593,0.505,7.390000000000001,-4.58,-34.46,0.47650000000000003,-0.8535,-0.023700000000000002,-0.2092,-0.066,-0.225,-0.027
2025-11-06 18:34:30.445,136.62,-0.51,0.11900000000000001,-0.683,-0.277,-0.583,0.483,7.390000000000001,-4.58,-34.46,0.47790000000000005,-0.8528,-0.025,-0.2087,-0.077,-0.23800000000000002,-0.007
2025-11-06 18:34:30.445,136.625,-0.496,0.148,-0.733,-0.272,-0.5680000000000001,0.453,7.45,-3.97,-34.31,0.47940000000000005,-0.8520000000000001,-0.026500000000000003,-0.2083,-0.079,-0.256,0.019
2025-11-06 18:34:30.445,136.63,-0.496,0.181,-0.772,-0.269,-0.554,0.442,7.45,-3.97,-34.31,0.48090000000000005,-0.8513000000000001,-0.0281,-0.2078,-0.079,-0.273,0.027
2025-11-06 18:34:30.445,136.635,-0.501,0.219,-0.808,-0.274,-0.562,0.459,7.45,-3.97,-34.31,0.4824,-0.8505,-0.029900000000000003,-0.2074,-0.07200000000000001,-0.267,0.007
2025-11-06 18:34:30.445,136.64,-0.517,0.272,-0.8270000000000001,-0.277,-0.5660000000000001,0.487,8.0,-4.64,-34.84,0.4839,-0.8496,-0.0317,-0.20700000000000002,-0.066,-0.265,-0.022
2025-11-06 18:34:30.445,136.645,-0.532,0.322,-0.843,-0.28300000000000003,-0.5690000000000001,0.503,8.0,-4.64,-34.84,0.48550000000000004,-0.8487,-0.033600000000000005,-0.2068,-0.058,-0.265,-0.041
2025-11-06 18:34:30.445,136.65,-0.558,0.369,-0.857,-0.28200000000000003,-0.5700000000000001,0.487,8.53,-4.15,-35.1,0.48710000000000003,-0.8477,-0.0356,-0.2066,-0.055,-0.266,-0.028
2025-11-06 18:34:30.445,136.655,-0.5700000000000001,0.364,-0.868,-0.28,-0.579,0.465,8.53,-4.15,-35.1,0.4888,-0.8467,-0.0376,-0.2064,-0.054,-0.26,-0.008
2025-11-06 18:34:30.445,136.66,-0.5670000000000001,0.323,-0.871,-0.264,-0.5760000000000001,0.445,8.53,-4.15,-35.1,0.4904,-0.8457,-0.0395,-0.2061,-0.068,-0.266,0.007
2025-11-06 18:34:30.445,136.665,-0.591,0.267,-0.874,-0.245,-0.579,0.439,8.65,-4.12,-35.77,0.49210000000000004,-0.8448,-0.0414,-0.20570000000000002,-0.083,-0.265,0.011
2025-11-06 18:34:30.445,136.67,-0.645,0.215,-0.877,-0.221,-0.583,0.429,8.65,-4.12,-35.77,0.4939,-0.8437,-0.0432,-0.20520000000000002,-0.10400000000000001,-0.265,0.017
2025-11-06 18:34:30.445,136.675,-0.728,0.161,-0.877,-0.20500000000000002,-0.593,0.398,9.52,-3.65,-35.83,0.4959,-0.8426,-0.0449,-0.2046,-0.117,-0.258,0.045
2025-11-06 18:34:30.445,136.68,-0.791,0.123,-0.876,-0.213,-0.637,0.382,9.52,-3.65,-35.83,0.49810000000000004,-0.8414,-0.0465,-0.2039,-0.105,-0.217,0.059000000000000004
2025-11-06 18:34:30.445,136.685,-0.935,0.045,-0.883,-0.203,-0.7020000000000001,0.334,9.52,-3.65,-35.83,0.5006,-0.8401000000000001,-0.048,-0.2031,-0.111,-0.157,0.10400000000000001
2025-11-06 18:34:30.445,136.69,-1.036,0.003,-0.888,-0.218,-0.795,0.369,10.17,-4.15,-36.5,0.5032,-0.8386,-0.049300000000000004,-0.20220000000000002,-0.091,-0.066,0.067
2025-11-06 18:34:30.445,136.695,-1.17,0.001,-0.889,-0.232,-0.89,0.425,10.17,-4.15,-36.5,0.5062,-0.8370000000000001,-0.0506,-0.20120000000000002,-0.07200000000000001,0.025,0.008
2025-11-06 18:34:30.445,136.7,-1.342,0.03,-0.893,-0.255,-0.994,0.47100000000000003,10.23,-4.41,-36.39,0.5095000000000001,-0.8351000000000001,-0.0519,-0.20040000000000002,-0.044,0.126,-0.041
2025-11-06 18:34:30.445,136.705,-1.526,0.092,-0.899,-0.274,-1.072,0.47700000000000004,10.23,-4.41,-36.39,0.5133,-0.8329000000000001,-0.0531,-0.19970000000000002,-0.021,0.2,-0.052000000000000005
2025-11-06 18:34:30.445,136.71,-1.701,0.20600000000000002,-0.904,-0.28800000000000003,-1.1440000000000001,0.41100000000000003,10.23,-4.41,-36.39,0.5173,-0.8304,-0.054400000000000004,-0.1993,-0.003,0.265,0.006
2025-11-06 18:34:30.445,136.715,-1.725,0.34900000000000003,-0.909,-0.28600000000000003,-1.147,0.37,10.52,-4.41,-37.5,0.5214,-0.8278000000000001,-0.055900000000000005,-0.1991,-0.002,0.263,0.04
2025-11-06 18:34:30.445,136.72,-1.694,0.488,-0.911,-0.28600000000000003,-1.16,0.363,10.52,-4.41,-37.5,0.5254,-0.8251000000000001,-0.057600000000000005,-0.1993,0.001,0.271,0.039
2025-11-06 18:34:30.445,136.725,-1.606,0.612,-0.914,-0.309,-1.166,0.361,11.13,-3.5,-37.18,0.5291,-0.8225,-0.059500000000000004,-0.1996,0.026000000000000002,0.273,0.033
2025-11-06 18:34:30.445,136.73,-1.485,0.682,-0.918,-0.334,-1.162,0.364,11.13,-3.5,-37.18,0.5326000000000001,-0.8200000000000001,-0.061500000000000006,-0.2001,0.054,0.265,0.021
2025-11-06 18:34:30.445,136.735,-1.356,0.686,-0.923,-0.374,-1.18,0.34800000000000003,11.13,-3.5,-37.18,0.5358,-0.8176,-0.0636,-0.2005,0.097,0.278,0.03
2025-11-06 18:34:30.445,136.74,-1.193,0.557,-0.925,-0.439,-1.218,0.339,11.25,-4.0,-37.82,0.5386000000000001,-0.8155,-0.06570000000000001,-0.20070000000000002,0.166,0.312,0.033
2025-11-06 18:34:30.445,136.745,-1.163,0.387,-0.923,-0.48,-1.274,0.37,11.25,-4.0,-37.82,0.5415,-0.8136,-0.0675,-0.2005,0.21,0.366,-0.002
2025-11-06 18:34:30.445,136.75,-1.171,0.217,-0.907,-0.504,-1.334,0.427,13.18,-4.79,-38.52,0.5443,-0.8117000000000001,-0.06910000000000001,-0.2,0.23800000000000002,0.423,-0.064
2025-11-06 18:34:30.445,136.755,-1.216,0.059000000000000004,-0.868,-0.499,-1.374,0.468,13.18,-4.79,-38.52,0.5473,-0.8098000000000001,-0.0703,-0.19920000000000002,0.23800000000000002,0.461,-0.109
2025-11-06 18:34:30.445,136.76,-1.252,-0.051000000000000004,-0.805,-0.462,-1.3980000000000001,0.47800000000000004,13.18,-4.79,-38.52,0.5503,-0.8079000000000001,-0.0713,-0.19820000000000002,0.20500000000000002,0.482,-0.125
2025-11-06 18:34:30.445,136.765,-1.23,-0.114,-0.729,-0.41300000000000003,-1.427,0.41600000000000004,12.01,-2.8000000000000003,-39.31,0.5532,-0.806,-0.07200000000000001,-0.1973,0.159,0.508,-0.067
2025-11-06 18:34:30.445,136.77,-1.069,-0.112,-0.598,-0.36,-1.466,0.33,12.01,-2.8000000000000003,-39.31,0.5558000000000001,-0.8044,-0.07250000000000001,-0.1965,0.111,0.543,0.013000000000000001
2025-11-06 18:34:30.445,136.775,-0.916,-0.049,-0.527,-0.32,-1.504,0.274,11.78,-3.04,-39.75,0.5579000000000001,-0.803,-0.0731,-0.1958,0.074,0.578,0.066
2025-11-06 18:34:30.445,136.78,-0.764,0.038,-0.47700000000000004,-0.28200000000000003,-1.54,0.245,11.78,-3.04,-39.75,0.5597,-0.8018000000000001,-0.0737,-0.19540000000000002,0.038,0.612,0.092
2025-11-06 18:34:30.445,136.785,-0.668,0.109,-0.447,-0.257,-1.571,0.247,11.78,-3.04,-39.75,0.5613,-0.8007000000000001,-0.0745,-0.1952,0.016,0.642,0.08700000000000001
2025-11-06 18:34:30.445,136.79,-0.64,0.156,-0.431,-0.243,-1.6,0.262,11.98,-3.21,-39.43,0.5628000000000001,-0.7996000000000001,-0.0752,-0.195,0.004,0.67,0.07
2025-11-06 18:34:30.445,136.795,-0.66,0.176,-0.434,-0.232,-1.645,0.293,11.98,-3.21,-39.43,0.5643,-0.7985,-0.076,-0.19490000000000002,-0.005,0.714,0.037
2025-11-06 18:34:30.445,136.8,-0.704,0.177,-0.461,-0.23800000000000002,-1.699,0.325,12.450000000000001,-3.21,-39.95,0.5660000000000001,-0.7973,-0.07690000000000001,-0.1948,0.003,0.767,0.003
2025-11-06 18:34:30.445,136.805,-0.711,0.20600000000000002,-0.47200000000000003,-0.23700000000000002,-1.716,0.34400000000000003,12.450000000000001,-3.09,-39.95,0.5676,-0.7961,-0.07780000000000001,-0.1947,0.004,0.783,-0.019
2025-11-06 18:34:30.445,136.81,-0.6990000000000001,0.278,-0.492,-0.251,-1.747,0.368,12.450000000000001,-3.09,-39.95,0.5692,-0.7948000000000001,-0.07880000000000001,-0.1947,0.02,0.8130000000000001,-0.046
2025-11-06 18:34:30.445,136.815,-0.665,0.392,-0.51,-0.268,-1.7710000000000001,0.405,12.21,-3.12,-41.01,0.5707,-0.7935,-0.0801,-0.19490000000000002,0.039,0.836,-0.08600000000000001
2025-11-06 18:34:30.445,136.82,-0.622,0.536,-0.52,-0.296,-1.762,0.457,12.21,-3.12,-41.01,0.5721,-0.7923,-0.0815,-0.19540000000000002,0.068,0.8260000000000001,-0.14200000000000002
2025-11-06 18:34:30.445,136.825,-0.5710000000000001,0.708,-0.553,-0.356,-1.7730000000000001,0.509,12.21,-3.12,-41.01,0.5734,-0.791,-0.0833,-0.1962,0.13,0.836,-0.198
2025-11-06 18:34:30.445,136.83,-0.489,0.8150000000000001,-0.557,-0.404,-1.762,0.524,12.8,-3.09,-40.86,0.5745,-0.7897000000000001,-0.0854,-0.1971,0.179,0.8250000000000001,-0.216
2025-11-06 18:34:30.446,136.835,-0.34400000000000003,0.89,-0.546,-0.457,-1.747,0.53,12.8,-3.09,-40.86,0.5752,-0.7887000000000001,-0.08750000000000001,-0.19820000000000002,0.233,0.807,-0.225
2025-11-06 18:34:30.446,136.84,-0.213,0.851,-0.516,-0.504,-1.748,0.528,12.540000000000001,-3.39,-41.01,0.5757,-0.7878000000000001,-0.0896,-0.19920000000000002,0.28200000000000003,0.808,-0.226
2025-11-06 18:34:30.446,136.845,-0.05,0.766,-0.47600000000000003,-0.552,-1.744,0.542,12.540000000000001,-3.39,-41.01,0.5759000000000001,-0.7872,-0.0916,-0.2001,0.33,0.802,-0.241
2025-11-06 18:34:30.446,136.85,0.12,0.65,-0.419,-0.5740000000000001,-1.744,0.56,12.540000000000001,-3.39,-41.01,0.5757,-0.787,-0.09340000000000001,-0.2008,0.353,0.803,-0.26
2025-11-06 18:34:30.446,136.855,0.313,0.548,-0.336,-0.583,-1.741,0.591,12.620000000000001,-3.12,-39.95,0.5751000000000001,-0.7871,-0.095,-0.2013,0.363,0.801,-0.29
2025-11-06 18:34:30.446,136.86,0.46900000000000003,0.47700000000000004,-0.242,-0.557,-1.726,0.602,12.620000000000001,-3.12,-39.95,0.5741,-0.7875000000000001,-0.0964,-0.2018,0.338,0.786,-0.3
2025-11-06 18:34:30.446,136.865,0.558,0.47600000000000003,-0.169,-0.521,-1.689,0.589,12.77,-3.06,-40.01,0.5730000000000001,-0.7881,-0.09770000000000001,-0.2023,0.302,0.75,-0.28500000000000003
2025-11-06 18:34:30.446,136.87,0.624,0.526,-0.108,-0.48,-1.625,0.549,12.77,-3.06,-40.01,0.5716,-0.7887000000000001,-0.099,-0.203,0.261,0.686,-0.245
2025-11-06 18:34:30.446,136.875,0.662,0.6,-0.067,-0.449,-1.5290000000000001,0.481,12.77,-3.06,-40.01,0.5702,-0.7894,-0.1003,-0.20400000000000001,0.228,0.589,-0.176
2025-11-06 18:34:30.446,136.88,0.665,0.673,-0.043000000000000003,-0.425,-1.409,0.395,13.44,-2.57,-40.95,0.5687,-0.79,-0.10160000000000001,-0.2051,0.203,0.46900000000000003,-0.089
2025-11-06 18:34:30.446,136.885,0.655,0.75,-0.048,-0.394,-1.249,0.253,13.44,-2.57,-40.95,0.5671,-0.7906000000000001,-0.10310000000000001,-0.2063,0.17,0.307,0.05
2025-11-06 18:34:30.446,136.89,0.638,0.782,-0.082,-0.357,-1.095,0.166,12.94,-2.83,-39.6,0.5657,-0.7911,-0.1047,-0.2076,0.131,0.152,0.136
2025-11-06 18:34:30.446,136.895,0.638,0.763,-0.127,-0.331,-0.98,0.089,12.94,-2.83,-39.6,0.5642,-0.7916000000000001,-0.1063,-0.2087,0.10300000000000001,0.036000000000000004,0.213
2025-11-06 18:34:30.446,136.9,0.661,0.6930000000000001,-0.179,-0.292,-0.872,0.029,12.94,-2.83,-39.6,0.5628000000000001,-0.7921,-0.108,-0.2097,0.063,-0.07,0.274
2025-11-06 18:34:30.446,136.905,0.6960000000000001,0.581,-0.23700000000000002,-0.26,-0.773,-0.009000000000000001,13.24,-2.42,-39.19,0.5613,-0.7928000000000001,-0.1096,-0.21030000000000001,0.031,-0.17,0.313
2025-11-06 18:34:30.446,136.91,0.737,0.457,-0.293,-0.217,-0.684,-0.027,13.24,-2.42,-39.19,0.5599000000000001,-0.7935,-0.11120000000000001,-0.2106,-0.012,-0.257,0.332
2025-11-06 18:34:30.446,136.915,0.78,0.302,-0.358,-0.149,-0.589,-0.022,12.97,-2.16,-38.550000000000004,0.5584,-0.7944,-0.11280000000000001,-0.21050000000000002,-0.079,-0.35100000000000003,0.329
2025-11-06 18:34:30.446,136.92,0.796,0.168,-0.41200000000000003,-0.096,-0.513,-0.008,12.97,-2.16,-38.550000000000004,0.5569000000000001,-0.7953,-0.11420000000000001,-0.21000000000000002,-0.132,-0.426,0.317
2025-11-06 18:34:30.446,136.925,0.786,0.098,-0.447,-0.043000000000000003,-0.468,0.005,12.97,-2.16,-38.550000000000004,0.5555,-0.7963,-0.11570000000000001,-0.2093,-0.183,-0.47000000000000003,0.305
2025-11-06 18:34:30.446,136.93,0.742,0.032,-0.47400000000000003,0.004,-0.448,0.024,13.5,-1.9000000000000001,-38.52,0.5542,-0.7971,-0.11710000000000001,-0.20850000000000002,-0.229,-0.488,0.29
2025-11-06 18:34:30.446,136.935,0.674,-0.005,-0.483,0.046,-0.437,0.06,13.5,-1.9000000000000001,-38.52,0.5531,-0.798,-0.1184,-0.20770000000000002,-0.269,-0.498,0.257
2025-11-06 18:34:30.446,136.94,0.5750000000000001,-0.023,-0.47500000000000003,0.074,-0.438,0.105,13.38,-1.92,-38.64,0.5522,-0.7986000000000001,-0.1197,-0.2068,-0.295,-0.495,0.215
2025-11-06 18:34:30.446,136.945,0.47200000000000003,-0.03,-0.463,0.098,-0.455,0.157,13.38,-1.92,-38.64,0.5515,-0.7992,-0.1208,-0.20600000000000002,-0.316,-0.47600000000000003,0.165
2025-11-06 18:34:30.446,136.95,0.147,-0.03,-0.425,0.113,-0.481,0.20400000000000001,13.38,-1.92,-38.64,0.5514,-0.7993,-0.1217,-0.2053,-0.329,-0.449,0.121
2025-11-06 18:34:30.446,136.955,-0.067,-0.024,-0.4,0.122,-0.502,0.23900000000000002,13.530000000000001,-2.0100000000000002,-38.32,0.5518000000000001,-0.7991,-0.12250000000000001,-0.20470000000000002,-0.336,-0.428,0.08600000000000001
2025-11-06 18:34:30.446,136.96,-0.279,-0.008,-0.368,0.127,-0.541,0.269,13.530000000000001,-2.0100000000000002,-38.32,0.5525,-0.7985,-0.1231,-0.2043,-0.339,-0.389,0.056
2025-11-06 18:34:30.446,136.965,-0.483,0.016,-0.337,0.126,-0.595,0.294,14.38,-3.44,-38.11,0.5537000000000001,-0.7977000000000001,-0.12350000000000001,-0.20400000000000001,-0.335,-0.336,0.029
2025-11-06 18:34:30.446,136.97,-0.664,0.042,-0.301,0.112,-0.667,0.305,14.38,-3.44,-38.11,0.5552,-0.7967000000000001,-0.12390000000000001,-0.2039,-0.32,-0.265,0.017
2025-11-06 18:34:30.446,136.975,-0.778,0.049,-0.261,0.076,-0.771,0.307,14.38,-3.44,-38.11,0.5569000000000001,-0.7954,-0.124,-0.2039,-0.281,-0.162,0.014
2025-11-06 18:34:30.446,136.98,-0.964,0.032,-0.241,0.024,-0.892,0.302,13.65,-2.33,-38.730000000000004,0.559,-0.794,-0.1241,-0.20400000000000001,-0.227,-0.043000000000000003,0.017
2025-11-06 18:34:30.446,136.985,-1.0210000000000001,0.011,-0.23700000000000002,-0.022,-0.996,0.309,13.65,-2.33,-38.730000000000004,0.5612,-0.7924,-0.1241,-0.20400000000000001,-0.179,0.058,0.008
2025-11-06 18:34:30.446,136.99,-1.047,-0.014,-0.23900000000000002,-0.068,-1.094,0.32,14.0,-2.0100000000000002,-39.25,0.5634,-0.7908000000000001,-0.124,-0.20400000000000001,-0.131,0.154,-0.006
2025-11-06 18:34:30.446,136.995,-1.05,-0.058,-0.243,-0.106,-1.181,0.333,14.0,-2.0100000000000002,-39.25,0.5657,-0.7892,-0.12380000000000001,-0.2039,-0.091,0.23900000000000002,-0.022
2025-11-06 18:34:30.446,137.0,-1.026,-0.10400000000000001,-0.246,-0.14,-1.252,0.34600000000000003,14.0,-2.0100000000000002,-39.25,0.5679000000000001,-0.7877000000000001,-0.1237,-0.20370000000000002,-0.055,0.308,-0.038
2025-11-06 18:34:30.446,137.005,-0.9440000000000001,-0.17,-0.253,-0.177,-1.318,0.38,13.94,-1.69,-39.87,0.5700000000000001,-0.7863,-0.12350000000000001,-0.2033,-0.016,0.373,-0.076
2025-11-06 18:34:30.446,137.01,-0.878,-0.23,-0.254,-0.194,-1.329,0.402,13.94,-1.69,-39.87,0.5720000000000001,-0.7851,-0.1232,-0.2028,0.001,0.383,-0.10200000000000001
2025-11-06 18:34:30.446,137.015,-0.8280000000000001,-0.279,-0.253,-0.214,-1.318,0.425,14.11,-1.92,-40.74,0.5739000000000001,-0.7839,-0.12290000000000001,-0.20220000000000002,0.023,0.371,-0.13
2025-11-06 18:34:30.446,137.02,-0.8,-0.327,-0.245,-0.23500000000000001,-1.295,0.443,14.11,-1.92,-40.74,0.5757,-0.7828,-0.12250000000000001,-0.2015,0.045,0.34700000000000003,-0.151
2025-11-06 18:34:30.446,137.025,-0.793,-0.377,-0.23500000000000001,-0.258,-1.258,0.444,14.11,-1.92,-40.74,0.5775,-0.7817000000000001,-0.1221,-0.20070000000000002,0.07,0.309,-0.156
2025-11-06 18:34:30.446,137.03,-0.797,-0.422,-0.226,-0.28800000000000003,-1.218,0.421,15.370000000000001,-2.16,-40.95,0.5794,-0.7807000000000001,-0.12150000000000001,-0.1998,0.101,0.267,-0.138
2025-11-06 18:34:30.446,137.035,-0.775,-0.464,-0.221,-0.31,-1.16,0.375,15.370000000000001,-2.16,-40.95,0.5812,-0.7797000000000001,-0.12090000000000001,-0.1988,0.124,0.20600000000000002,-0.097
2025-11-06 18:34:30.446,137.04,-0.738,-0.47400000000000003,-0.215,-0.318,-1.119,0.33,14.76,-2.25,-40.63,0.5829,-0.7787000000000001,-0.1203,-0.1978,0.134,0.163,-0.057
2025-11-06 18:34:30.446,137.045,-0.676,-0.458,-0.218,-0.325,-1.086,0.28300000000000003,14.76,-2.25,-40.63,0.5845,-0.7779,-0.1197,-0.1968,0.14200000000000002,0.128,-0.013000000000000001
2025-11-06 18:34:30.446,137.05,-0.604,-0.425,-0.217,-0.328,-1.049,0.23800000000000002,14.76,-2.25,-40.63,0.5860000000000001,-0.7771,-0.1193,-0.19590000000000002,0.146,0.089,0.027
2025-11-06 18:34:30.446,137.055,-0.524,-0.371,-0.215,-0.327,-1.0130000000000001,0.2,15.58,-2.3000000000000003,-42.03,0.5872,-0.7764000000000001,-0.1189,-0.195,0.146,0.052000000000000005,0.062
2025-11-06 18:34:30.446,137.06,-0.456,-0.304,-0.218,-0.331,-0.978,0.164,15.58,-2.3000000000000003,-42.03,0.5884,-0.7758,-0.1187,-0.1943,0.151,0.016,0.095
2025-11-06 18:34:30.446,137.065,-0.384,-0.199,-0.218,-0.329,-0.9440000000000001,0.145,15.58,-2.3000000000000003,-42.03,0.5893,-0.7752,-0.11860000000000001,-0.1937,0.15,-0.019,0.112
2025-11-06 18:34:30.446,137.07,-0.361,-0.14100000000000001,-0.215,-0.323,-0.917,0.146,16.04,-2.22,-41.5,0.5902000000000001,-0.7747,-0.11860000000000001,-0.1933,0.145,-0.047,0.108
2025-11-06 18:34:30.446,137.075,-0.356,-0.092,-0.20700000000000002,-0.318,-0.896,0.159,16.04,-2.22,-41.5,0.5910000000000001,-0.7741,-0.1187,-0.19290000000000002,0.14100000000000001,-0.068,0.093
2025-11-06 18:34:30.446,137.08,-0.358,-0.045,-0.191,-0.31,-0.879,0.17300000000000001,15.08,-2.13,-42.230000000000004,0.5918,-0.7735000000000001,-0.1189,-0.1927,0.134,-0.085,0.077
2025-11-06 18:34:30.446,137.085,-0.367,-0.023,-0.17500000000000002,-0.298,-0.867,0.183,15.08,-2.13,-42.230000000000004,0.5927,-0.7729,-0.11900000000000001,-0.1925,0.123,-0.097,0.065
2025-11-06 18:34:30.446,137.09,-0.369,-0.017,-0.155,-0.276,-0.861,0.189,15.08,-2.13,-42.230000000000004,0.5935,-0.7723,-0.11910000000000001,-0.19240000000000002,0.101,-0.10400000000000001,0.057
2025-11-06 18:34:30.446,137.095,-0.365,-0.033,-0.136,-0.253,-0.864,0.194,14.96,-1.84,-42.35,0.5943,-0.7717,-0.1192,-0.1922,0.079,-0.101,0.051000000000000004
2025-11-06 18:34:30.446,137.1,-0.34700000000000003,-0.049,-0.108,-0.218,-0.873,0.2,14.96,-1.84,-42.35,0.595,-0.7712,-0.11910000000000001,-0.19210000000000002,0.045,-0.092,0.044
2025-11-06 18:34:30.446,137.105,-0.329,-0.05,-0.095,-0.188,-0.882,0.203,15.11,-1.75,-42.61,0.5957,-0.7707,-0.11910000000000001,-0.19190000000000002,0.016,-0.083,0.038
2025-11-06 18:34:30.446,137.11,-0.309,-0.05,-0.085,-0.158,-0.894,0.20700000000000002,15.11,-1.75,-42.61,0.5964,-0.7702,-0.11900000000000001,-0.1918,-0.012,-0.07100000000000001,0.034
2025-11-06 18:34:30.447,137.115,-0.29,-0.046,-0.078,-0.132,-0.899,0.20700000000000002,15.11,-1.75,-42.61,0.597,-0.7697,-0.11900000000000001,-0.1917,-0.038,-0.066,0.032
2025-11-06 18:34:30.447,137.12,-0.276,-0.049,-0.078,-0.099,-0.9,0.20600000000000002,15.05,-1.98,-42.44,0.5976,-0.7693,-0.1189,-0.19160000000000002,-0.07100000000000001,-0.065,0.032
2025-11-06 18:34:30.447,137.125,-0.278,-0.068,-0.085,-0.078,-0.901,0.201,15.05,-1.98,-42.44,0.5982000000000001,-0.7689,-0.1189,-0.19140000000000001,-0.091,-0.065,0.036000000000000004
2025-11-06 18:34:30.447,137.13,-0.289,-0.094,-0.10200000000000001,-0.048,-0.899,0.19,15.6,-2.33,-42.26,0.5989,-0.7684000000000001,-0.1188,-0.1912,-0.121,-0.067,0.046
2025-11-06 18:34:30.447,137.135,-0.304,-0.123,-0.11800000000000001,-0.022,-0.904,0.17500000000000002,15.6,-2.33,-42.26,0.5996,-0.768,-0.1187,-0.19090000000000001,-0.145,-0.063,0.059000000000000004
2025-11-06 18:34:30.447,137.14,-0.325,-0.162,-0.14300000000000002,-0.002,-0.906,0.16,15.6,-2.33,-42.26,0.6003000000000001,-0.7675000000000001,-0.11860000000000001,-0.1904,-0.164,-0.061,0.073
2025-11-06 18:34:30.447,137.145,-0.342,-0.20400000000000001,-0.165,0.011,-0.907,0.14100000000000001,15.96,-2.33,-42.79,0.6012000000000001,-0.767,-0.1184,-0.1899,-0.178,-0.061,0.09
2025-11-06 18:34:30.447,137.15,-0.353,-0.262,-0.186,0.029,-0.91,0.121,15.96,-2.33,-42.79,0.602,-0.7665000000000001,-0.1183,-0.1892,-0.194,-0.059000000000000004,0.109
2025-11-06 18:34:30.447,137.155,-0.358,-0.357,-0.20500000000000002,0.042,-0.918,0.116,16.01,-1.84,-43.230000000000004,0.6029,-0.7661,-0.11800000000000001,-0.1884,-0.20700000000000002,-0.051000000000000004,0.113
2025-11-06 18:34:30.447,137.16,-0.354,-0.425,-0.215,0.046,-0.929,0.116,16.01,-1.84,-43.230000000000004,0.6039,-0.7657,-0.11760000000000001,-0.18730000000000002,-0.209,-0.041,0.111
2025-11-06 18:34:30.447,137.165,-0.34900000000000003,-0.488,-0.225,0.045,-0.9440000000000001,0.124,16.01,-1.84,-43.230000000000004,0.6048,-0.7653000000000001,-0.11720000000000001,-0.1862,-0.20500000000000002,-0.026000000000000002,0.10300000000000001
2025-11-06 18:34:30.447,137.17,-0.342,-0.554,-0.231,0.039,-0.966,0.134,15.17,-1.37,-43.37,0.6058,-0.7649,-0.11670000000000001,-0.1849,-0.198,-0.005,0.092
2025-11-06 18:34:30.447,137.175,-0.336,-0.603,-0.23700000000000002,0.031,-0.995,0.15,15.17,-1.37,-43.37,0.6068,-0.7646000000000001,-0.11610000000000001,-0.1834,-0.188,0.023,0.075
2025-11-06 18:34:30.447,137.18,-0.335,-0.645,-0.23700000000000002,0.015,-1.033,0.164,15.46,-1.1400000000000001,-43.37,0.6077,-0.7642,-0.1155,-0.1819,-0.169,0.06,0.061
2025-11-06 18:34:30.447,137.185,-0.342,-0.663,-0.226,0.005,-1.064,0.163,15.46,-1.1400000000000001,-43.37,0.6087,-0.7639,-0.1148,-0.1804,-0.158,0.091,0.061
2025-11-06 18:34:30.447,137.19,-0.34500000000000003,-0.662,-0.214,-0.002,-1.078,0.161,15.46,-1.1400000000000001,-43.37,0.6097,-0.7636000000000001,-0.11410000000000001,-0.1789,-0.148,0.10400000000000001,0.061
2025-11-06 18:34:30.447,137.195,-0.342,-0.661,-0.191,-0.013000000000000001,-1.075,0.163,15.870000000000001,-1.9000000000000001,-43.81,0.6106,-0.7633000000000001,-0.11330000000000001,-0.17750000000000002,-0.135,0.10200000000000001,0.059000000000000004
2025-11-06 18:34:30.447,137.2,-0.34400000000000003,-0.674,-0.171,-0.019,-1.064,0.171,15.870000000000001,-1.9000000000000001,-43.81,0.6116,-0.763,-0.1125,-0.17600000000000002,-0.127,0.09,0.049
2025-11-06 18:34:30.447,137.205,-0.34700000000000003,-0.6920000000000001,-0.148,-0.027,-1.047,0.17500000000000002,16.22,-1.49,-44.22,0.6125,-0.7627,-0.1116,-0.1746,-0.11800000000000001,0.07200000000000001,0.043000000000000003
2025-11-06 18:34:30.447,137.21,-0.343,-0.718,-0.122,-0.04,-1.016,0.179,16.22,-1.49,-44.22,0.6135,-0.7624000000000001,-0.1106,-0.1731,-0.10400000000000001,0.041,0.037
2025-11-06 18:34:30.447,137.215,-0.343,-0.739,-0.10200000000000001,-0.048,-0.998,0.17400000000000002,16.22,-1.49,-44.22,0.6144000000000001,-0.7621,-0.1096,-0.17170000000000002,-0.095,0.022,0.04
2025-11-06 18:34:30.447,137.22,-0.328,-0.75,-0.08600000000000001,-0.059000000000000004,-0.979,0.159,16.1,-1.4000000000000001,-44.81,0.6153000000000001,-0.7619,-0.1085,-0.17020000000000002,-0.084,0.002,0.054
2025-11-06 18:34:30.447,137.225,-0.297,-0.763,-0.078,-0.069,-0.964,0.148,16.1,-1.4000000000000001,-44.81,0.6162000000000001,-0.7617,-0.10740000000000001,-0.16870000000000002,-0.07200000000000001,-0.012,0.063
2025-11-06 18:34:30.447,137.23,-0.248,-0.771,-0.076,-0.082,-0.9480000000000001,0.14200000000000002,15.58,-0.99,-45.45,0.6169,-0.7616,-0.1063,-0.16720000000000002,-0.058,-0.028,0.068
2025-11-06 18:34:30.447,137.235,-0.185,-0.768,-0.08,-0.096,-0.936,0.133,15.58,-0.99,-45.45,0.6175,-0.7616,-0.1052,-0.1656,-0.043000000000000003,-0.041,0.076
2025-11-06 18:34:30.447,137.24,-0.127,-0.756,-0.088,-0.109,-0.921,0.126,15.58,-0.99,-45.45,0.618,-0.7616,-0.1042,-0.1641,-0.029,-0.056,0.083
2025-11-06 18:34:30.447,137.245,0.001,-0.7000000000000001,-0.10400000000000001,-0.125,-0.916,0.128,15.63,-1.84,-45.45,0.6183000000000001,-0.7619,-0.1034,-0.1626,-0.012,-0.062,0.081
2025-11-06 18:34:30.447,137.25,0.063,-0.645,-0.12,-0.138,-0.912,0.131,15.63,-1.84,-45.45,0.6184000000000001,-0.7622,-0.1027,-0.16110000000000002,0.002,-0.066,0.078
2025-11-06 18:34:30.447,137.255,0.108,-0.581,-0.137,-0.156,-0.916,0.135,15.98,-1.95,-45.89,0.6184000000000001,-0.7626000000000001,-0.10210000000000001,-0.1598,0.021,-0.062,0.074
2025-11-06 18:34:30.447,137.26,0.128,-0.516,-0.153,-0.17500000000000002,-0.922,0.146,15.98,-1.95,-45.89,0.6183000000000001,-0.7629,-0.1017,-0.1585,0.041,-0.056,0.065
2025-11-06 18:34:30.447,137.265,0.136,-0.45,-0.17,-0.193,-0.932,0.161,15.98,-1.95,-45.89,0.6182000000000001,-0.7633000000000001,-0.1014,-0.1574,0.06,-0.046,0.051000000000000004
2025-11-06 18:34:30.447,137.27,0.123,-0.372,-0.188,-0.221,-0.9440000000000001,0.189,16.28,-0.99,-45.86,0.6182000000000001,-0.7635000000000001,-0.1012,-0.1564,0.089,-0.033,0.024
2025-11-06 18:34:30.447,137.275,0.106,-0.297,-0.197,-0.233,-0.9530000000000001,0.201,16.28,-0.99,-45.86,0.6181,-0.7638,-0.1012,-0.1555,0.10300000000000001,-0.024,0.013000000000000001
2025-11-06 18:34:30.447,137.28,0.09,-0.23800000000000002,-0.201,-0.241,-0.962,0.209,16.57,-1.1400000000000001,-45.89,0.6181,-0.764,-0.1012,-0.15480000000000002,0.112,-0.015,0.005
2025-11-06 18:34:30.447,137.285,0.069,-0.17500000000000002,-0.201,-0.247,-0.968,0.218,16.57,-1.1400000000000001,-45.89,0.618,-0.7641,-0.1014,-0.15410000000000001,0.11900000000000001,-0.009000000000000001,-0.002
2025-11-06 18:34:30.447,137.29,0.053,-0.116,-0.196,-0.247,-0.971,0.221,16.57,-1.1400000000000001,-45.89,0.618,-0.7642,-0.10160000000000001,-0.15360000000000001,0.12,-0.006,-0.004
2025-11-06 18:34:30.447,137.295,0.036000000000000004,-0.075,-0.19,-0.245,-0.971,0.224,16.69,-1.34,-46.21,0.6181,-0.7642,-0.1018,-0.1532,0.11900000000000001,-0.006,-0.007
2025-11-06 18:34:30.447,137.3,0.015,-0.025,-0.17400000000000002,-0.228,-0.966,0.226,16.69,-1.34,-46.21,0.6181,-0.7642,-0.10210000000000001,-0.153,0.10300000000000001,-0.011,-0.009000000000000001
2025-11-06 18:34:30.447,137.305,0.007,-0.016,-0.163,-0.213,-0.9560000000000001,0.223,16.72,-1.08,-46.12,0.6181,-0.7642,-0.1023,-0.15280000000000002,0.088,-0.021,-0.006
2025-11-06 18:34:30.447,137.31,0.003,-0.014,-0.153,-0.198,-0.9440000000000001,0.22,16.72,-1.08,-46.12,0.6182000000000001,-0.7642,-0.10260000000000001,-0.1525,0.074,-0.033,-0.003
2025-11-06 18:34:30.447,137.315,0.004,-0.019,-0.14400000000000002,-0.182,-0.929,0.217,16.72,-1.08,-46.12,0.6182000000000001,-0.7641,-0.1028,-0.15230000000000002,0.058,-0.048,-0.001
2025-11-06 18:34:30.447,137.32,0.011,-0.024,-0.14,-0.163,-0.916,0.21,16.39,-1.78,-46.12,0.6182000000000001,-0.7641,-0.10310000000000001,-0.152,0.04,-0.062,0.005
2025-11-06 18:34:30.447,137.325,0.024,-0.035,-0.136,-0.136,-0.903,0.199,16.39,-1.78,-46.12,0.6183000000000001,-0.7641,-0.1033,-0.1517,0.013000000000000001,-0.074,0.016
2025-11-06 18:34:30.447,137.33,0.057,-0.057,-0.135,-0.111,-0.888,0.181,16.39,-1.78,-46.12,0.6182000000000001,-0.7642,-0.10350000000000001,-0.1514,-0.01,-0.089,0.034
2025-11-06 18:34:30.447,137.335,0.081,-0.079,-0.134,-0.089,-0.88,0.167,16.8,-1.05,-45.68,0.6181,-0.7643000000000001,-0.1037,-0.151,-0.031,-0.097,0.049
2025-11-06 18:34:30.447,137.34,0.117,-0.108,-0.138,-0.07200000000000001,-0.877,0.153,16.8,-1.05,-45.68,0.618,-0.7645000000000001,-0.1038,-0.1506,-0.048,-0.101,0.063
2025-11-06 18:34:30.447,137.345,0.15,-0.136,-0.14100000000000001,-0.057,-0.875,0.14,16.42,-1.28,-46.15,0.6178,-0.7648,-0.10400000000000001,-0.15,-0.062,-0.10300000000000001,0.077
2025-11-06 18:34:30.447,137.35,0.178,-0.17,-0.148,-0.042,-0.88,0.127,16.42,-1.28,-46.15,0.6175,-0.7651,-0.1041,-0.1494,-0.075,-0.097,0.091
2025-11-06 18:34:30.447,137.355,0.20800000000000002,-0.189,-0.156,-0.032,-0.893,0.12,16.42,-1.28,-46.15,0.6172000000000001,-0.7654000000000001,-0.1042,-0.14880000000000002,-0.084,-0.084,0.099
2025-11-06 18:34:30.447,137.36,0.23900000000000002,-0.228,-0.167,-0.03,-0.913,0.12,17.1,-3.09,-45.24,0.6169,-0.7658,-0.1043,-0.14800000000000002,-0.085,-0.065,0.101
2025-11-06 18:34:30.447,137.365,0.254,-0.248,-0.17300000000000001,-0.036000000000000004,-0.932,0.129,17.1,-3.09,-45.24,0.6165,-0.7663000000000001,-0.1043,-0.1472,-0.077,-0.045,0.094
2025-11-06 18:34:30.447,137.37,0.262,-0.266,-0.18,-0.041,-0.9540000000000001,0.139,16.98,-2.45,-45.83,0.6161,-0.7667,-0.1044,-0.1464,-0.07100000000000001,-0.023,0.08600000000000001
2025-11-06 18:34:30.447,137.375,0.262,-0.291,-0.184,-0.046,-0.974,0.147,16.98,-2.45,-45.83,0.6158,-0.7672,-0.1044,-0.1454,-0.065,-0.002,0.08
2025-11-06 18:34:30.447,137.38,0.258,-0.314,-0.185,-0.049,-0.993,0.158,16.98,-2.45,-45.83,0.6155,-0.7676000000000001,-0.1044,-0.14450000000000002,-0.061,0.016,0.07100000000000001
2025-11-06 18:34:30.447,137.385,0.245,-0.331,-0.178,-0.054,-1.012,0.17,16.54,-1.22,-45.6,0.6151,-0.7681,-0.1043,-0.14350000000000002,-0.054,0.036000000000000004,0.06
2025-11-06 18:34:30.447,137.39,0.226,-0.358,-0.17200000000000001,-0.056,-1.025,0.178,16.54,-1.22,-45.6,0.6149,-0.7685000000000001,-0.1042,-0.14250000000000002,-0.051000000000000004,0.049,0.053
2025-11-06 18:34:30.447,137.395,0.186,-0.406,-0.162,-0.053,-1.037,0.187,17.1,-1.25,-45.57,0.6147,-0.7689,-0.10400000000000001,-0.1414,-0.052000000000000005,0.061,0.046
2025-11-06 18:34:30.447,137.4,0.153,-0.425,-0.154,-0.05,-1.044,0.185,17.1,-1.25,-45.57,0.6145,-0.7692,-0.1037,-0.1403,-0.054,0.068,0.049
2025-11-06 18:34:30.447,137.405,0.11800000000000001,-0.447,-0.145,-0.047,-1.046,0.183,17.1,-1.25,-45.57,0.6145,-0.7695000000000001,-0.1034,-0.13920000000000002,-0.056,0.07,0.052000000000000005
2025-11-06 18:34:30.447,137.41,0.08700000000000001,-0.463,-0.135,-0.044,-1.045,0.183,16.95,-1.6,-46.65,0.6145,-0.7698,-0.10300000000000001,-0.138,-0.058,0.069,0.052000000000000005
2025-11-06 18:34:30.447,137.415,0.043000000000000003,-0.47300000000000003,-0.122,-0.047,-1.038,0.18,16.95,-1.6,-46.65,0.6146,-0.77,-0.10260000000000001,-0.1369,-0.054,0.062,0.056
2025-11-06 18:34:30.447,137.42,0.004,-0.482,-0.113,-0.048,-1.032,0.17300000000000001,17.77,-1.11,-46.410000000000004,0.6147,-0.7701,-0.10210000000000001,-0.1358,-0.052000000000000005,0.055,0.063
2025-11-06 18:34:30.447,137.425,-0.019,-0.487,-0.106,-0.049,-1.024,0.166,17.77,-1.11,-46.410000000000004,0.6149,-0.7702,-0.10160000000000001,-0.13470000000000001,-0.05,0.048,0.07
2025-11-06 18:34:30.447,137.43,-0.037,-0.494,-0.099,-0.055,-1.0110000000000001,0.158,17.77,-1.11,-46.410000000000004,0.6152000000000001,-0.7703,-0.101,-0.1336,-0.043000000000000003,0.034,0.078
2025-11-06 18:34:30.447,137.435,-0.039,-0.5,-0.091,-0.06,-1.002,0.149,17.53,0.17,-45.980000000000004,0.6155,-0.7703,-0.1004,-0.1325,-0.036000000000000004,0.025,0.08700000000000001
2025-11-06 18:34:30.447,137.44,-0.03,-0.504,-0.08600000000000001,-0.078,-0.994,0.14,17.53,0.17,-45.980000000000004,0.6157,-0.7704000000000001,-0.0998,-0.13140000000000002,-0.017,0.016,0.095
2025-11-06 18:34:30.447,137.445,-0.013000000000000001,-0.512,-0.084,-0.096,-0.986,0.137,17.3,-1.69,-46.38,0.6159,-0.7705000000000001,-0.09920000000000001,-0.1303,0.001,0.009000000000000001,0.098
2025-11-06 18:34:30.447,137.45,0.009000000000000001,-0.502,-0.082,-0.114,-0.981,0.14,17.3,-1.69,-46.38,0.6161,-0.7706000000000001,-0.09870000000000001,-0.1292,0.019,0.003,0.095
2025-11-06 18:34:30.447,137.455,0.031,-0.491,-0.083,-0.127,-0.978,0.14300000000000002,17.3,-1.69,-46.38,0.6162000000000001,-0.7708,-0.0981,-0.1282,0.033,0.0,0.092
2025-11-06 18:34:30.447,137.46,0.046,-0.47100000000000003,-0.08600000000000001,-0.14400000000000002,-0.974,0.14200000000000002,17.21,-0.49,-46.76,0.6163000000000001,-0.7709,-0.0976,-0.12710000000000002,0.051000000000000004,-0.003,0.093
2025-11-06 18:34:30.447,137.465,0.059000000000000004,-0.451,-0.08600000000000001,-0.158,-0.974,0.146,17.21,-0.49,-46.76,0.6163000000000001,-0.7711,-0.0971,-0.12610000000000002,0.066,-0.003,0.089
2025-11-06 18:34:30.447,137.47,0.073,-0.429,-0.08600000000000001,-0.168,-0.974,0.147,17.27,-0.55,-45.89,0.6163000000000001,-0.7713,-0.0966,-0.1252,0.077,-0.003,0.089
2025-11-06 18:34:30.448,137.475,0.081,-0.40800000000000003,-0.083,-0.18,-0.981,0.151,17.27,-0.55,-45.89,0.6163000000000001,-0.7715000000000001,-0.0961,-0.12430000000000001,0.09,0.003,0.08600000000000001
2025-11-06 18:34:30.448,137.48,0.093,-0.388,-0.082,-0.185,-0.988,0.156,17.27,-0.55,-45.89,0.6163000000000001,-0.7718,-0.09570000000000001,-0.12340000000000001,0.095,0.01,0.081
2025-11-06 18:34:30.448,137.485,0.097,-0.37,-0.077,-0.188,-0.992,0.162,17.07,-0.35000000000000003,-47.17,0.6162000000000001,-0.772,-0.09530000000000001,-0.1226,0.099,0.014,0.076
2025-11-06 18:34:30.448,137.49,0.096,-0.34900000000000003,-0.074,-0.187,-0.999,0.168,17.07,-0.35000000000000003,-47.17,0.6162000000000001,-0.7722,-0.095,-0.1218,0.099,0.022,0.07
2025-11-06 18:34:30.448,137.495,0.08700000000000001,-0.324,-0.07100000000000001,-0.185,-1.0090000000000001,0.17200000000000001,17.330000000000002,-0.99,-46.59,0.6161,-0.7724000000000001,-0.0947,-0.12100000000000001,0.098,0.032,0.068
2025-11-06 18:34:30.448,137.5,0.076,-0.301,-0.066,-0.179,-1.016,0.171,17.330000000000002,-0.99,-46.59,0.616,-0.7726000000000001,-0.0944,-0.1203,0.093,0.039,0.069
2025-11-06 18:34:30.448,137.505,0.065,-0.28300000000000003,-0.064,-0.171,-1.024,0.17200000000000001,17.330000000000002,-0.99,-46.59,0.616,-0.7728,-0.0941,-0.1197,0.085,0.046,0.069
2025-11-06 18:34:30.448,137.51,0.032,-0.22,-0.049,-0.161,-1.028,0.177,17.01,-0.4,-46.79,0.616,-0.7729,-0.09390000000000001,-0.1192,0.076,0.05,0.064
2025-11-06 18:34:30.448,137.515,0.009000000000000001,-0.189,-0.036000000000000004,-0.148,-1.03,0.17300000000000001,17.01,-0.4,-46.79,0.6161,-0.773,-0.0937,-0.1187,0.063,0.053,0.068
2025-11-06 18:34:30.448,137.52,-0.012,-0.162,-0.02,-0.137,-1.025,0.165,17.71,-0.67,-46.53,0.6161,-0.773,-0.0935,-0.1184,0.052000000000000005,0.048,0.076
2025-11-06 18:34:30.448,137.525,-0.034,-0.14,-0.01,-0.121,-1.0170000000000001,0.148,17.71,-0.67,-46.53,0.6162000000000001,-0.7729,-0.0932,-0.11810000000000001,0.037,0.039,0.093
2025-11-06 18:34:30.448,137.53,-0.044,-0.124,0.005,-0.12,-1.0070000000000001,0.135,17.71,-0.67,-46.53,0.6164000000000001,-0.7729,-0.093,-0.1179,0.035,0.029,0.106
2025-11-06 18:34:30.448,137.535,-0.043000000000000003,-0.11800000000000001,0.026000000000000002,-0.098,-0.986,0.127,17.48,-1.4000000000000001,-46.53,0.6166,-0.7728,-0.09280000000000001,-0.1178,0.013000000000000001,0.008,0.113
2025-11-06 18:34:30.448,137.54,-0.034,-0.11800000000000001,0.039,-0.083,-0.98,0.122,17.48,-1.4000000000000001,-46.53,0.6167,-0.7727,-0.0925,-0.11760000000000001,-0.001,0.003,0.117
2025-11-06 18:34:30.448,137.545,-0.026000000000000002,-0.113,0.046,-0.078,-0.982,0.115,17.36,-0.7000000000000001,-46.56,0.6168,-0.7727,-0.0922,-0.11750000000000001,-0.005,0.004,0.124
2025-11-06 18:34:30.448,137.55,-0.015,-0.10400000000000001,0.048,-0.079,-0.984,0.115,17.36,-0.7000000000000001,-46.56,0.6169,-0.7727,-0.092,-0.1174,-0.005,0.006,0.124
2025-11-06 18:34:30.448,137.555,-0.005,-0.088,0.053,-0.085,-0.993,0.122,17.36,-0.7000000000000001,-46.56,0.617,-0.7726000000000001,-0.0917,-0.1173,0.001,0.015,0.117
2025-11-06 18:34:30.448,137.56,0.0,-0.073,0.059000000000000004,-0.097,-1.0090000000000001,0.14400000000000002,17.36,-1.92,-47.14,0.6171,-0.7726000000000001,-0.0915,-0.11720000000000001,0.012,0.032,0.095
2025-11-06 18:34:30.448,137.565,-0.002,-0.042,0.074,-0.109,-1.038,0.163,17.36,-1.92,-47.14,0.6171,-0.7726000000000001,-0.0913,-0.1173,0.024,0.061,0.076
2025-11-06 18:34:30.448,137.57,-0.019,-0.005,0.091,-0.105,-1.056,0.169,17.3,-1.92,-46.79,0.6171,-0.7726000000000001,-0.0911,-0.1174,0.02,0.078,0.07100000000000001
2025-11-06 18:34:30.448,137.575,-0.042,0.032,0.112,-0.106,-1.071,0.167,17.3,-1.08,-46.79,0.6171,-0.7726000000000001,-0.09090000000000001,-0.11760000000000001,0.02,0.094,0.073
2025-11-06 18:34:30.448,137.58,-0.066,0.044,0.132,-0.105,-1.079,0.171,17.3,-1.08,-46.79,0.6172000000000001,-0.7725000000000001,-0.0907,-0.11800000000000001,0.019,0.10200000000000001,0.069
2025-11-06 18:34:30.448,137.585,-0.085,0.049,0.151,-0.1,-1.086,0.17500000000000002,17.53,-1.34,-46.79,0.6173000000000001,-0.7724000000000001,-0.09040000000000001,-0.1183,0.013000000000000001,0.109,0.064
2025-11-06 18:34:30.448,137.59,-0.116,0.026000000000000002,0.17,-0.08,-1.09,0.178,17.53,-1.34,-46.79,0.6175,-0.7722,-0.0901,-0.11860000000000001,-0.007,0.113,0.061
2025-11-06 18:34:30.448,137.595,-0.166,-0.036000000000000004,0.189,-0.057,-1.089,0.177,17.53,-1.34,-46.79,0.6178,-0.772,-0.0896,-0.1189,-0.03,0.112,0.061
2025-11-06 18:34:30.448,137.6,-0.193,-0.074,0.197,-0.038,-1.092,0.17400000000000002,17.86,-0.2,-46.65,0.6181,-0.7718,-0.0891,-0.11910000000000001,-0.051000000000000004,0.115,0.064
2025-11-06 18:34:30.448,137.605,-0.218,-0.11,0.199,-0.016,-1.099,0.169,17.86,-0.2,-46.65,0.6185,-0.7715000000000001,-0.0884,-0.1192,-0.073,0.122,0.069
2025-11-06 18:34:30.448,137.61,-0.24,-0.138,0.194,0.002,-1.107,0.165,17.42,-0.99,-46.38,0.619,-0.7712,-0.0878,-0.1193,-0.093,0.13,0.07100000000000001
2025-11-06 18:34:30.448,137.615,-0.251,-0.17300000000000001,0.191,0.02,-1.111,0.161,17.42,-0.99,-46.38,0.6195,-0.7709,-0.08710000000000001,-0.1193,-0.112,0.134,0.074
2025-11-06 18:34:30.448,137.62,-0.263,-0.212,0.187,0.036000000000000004,-1.112,0.158,17.42,-0.99,-46.38,0.62,-0.7706000000000001,-0.0863,-0.1193,-0.128,0.135,0.076
2025-11-06 18:34:30.448,137.625,-0.26,-0.269,0.187,0.055,-1.113,0.157,17.39,-0.87,-47.0,0.6205,-0.7703,-0.0855,-0.11910000000000001,-0.147,0.136,0.076
2025-11-06 18:34:30.448,137.63,-0.247,-0.297,0.181,0.066,-1.113,0.152,17.39,-0.87,-47.0,0.621,-0.77,-0.08460000000000001,-0.1188,-0.159,0.136,0.08
2025-11-06 18:34:30.448,137.635,-0.23800000000000002,-0.327,0.178,0.073,-1.108,0.154,17.150000000000002,-1.25,-47.26,0.6215,-0.7698,-0.08370000000000001,-0.11850000000000001,-0.167,0.131,0.076
2025-11-06 18:34:30.448,137.64,-0.233,-0.34900000000000003,0.176,0.076,-1.104,0.155,17.150000000000002,-1.25,-47.26,0.622,-0.7695000000000001,-0.08270000000000001,-0.1182,-0.17,0.127,0.074
2025-11-06 18:34:30.448,137.645,-0.226,-0.369,0.17400000000000002,0.064,-1.089,0.154,17.150000000000002,-1.25,-47.26,0.6225,-0.7693,-0.0818,-0.1178,-0.159,0.111,0.074
2025-11-06 18:34:30.448,137.65,-0.223,-0.373,0.17,0.053,-1.072,0.153,17.01,-1.25,-47.32,0.6229,-0.7691,-0.08080000000000001,-0.1174,-0.149,0.093,0.074
2025-11-06 18:34:30.448,137.655,-0.228,-0.38,0.164,0.034,-1.055,0.156,17.01,-1.25,-47.32,0.6234000000000001,-0.7689,-0.07980000000000001,-0.1169,-0.13,0.076,0.069
2025-11-06 18:34:30.450,137.66,-0.246,-0.397,0.16,0.004,-1.034,0.166,17.42,-1.54,-48.050000000000004,0.6239,-0.7686000000000001,-0.07880000000000001,-0.1164,-0.101,0.055,0.058
2025-11-06 18:34:30.450,137.665,-0.266,-0.41100000000000003,0.161,-0.015,-1.0170000000000001,0.178,17.42,-1.54,-48.050000000000004,0.6245,-0.7683,-0.07780000000000001,-0.1159,-0.081,0.038,0.044
2025-11-06 18:34:30.450,137.67,-0.28400000000000003,-0.418,0.164,-0.036000000000000004,-1.002,0.192,17.42,-1.54,-48.050000000000004,0.6251,-0.768,-0.07680000000000001,-0.1154,-0.061,0.023,0.028
2025-11-06 18:34:30.450,137.675,-0.312,-0.426,0.169,-0.046,-0.984,0.192,16.86,-1.49,-47.96,0.6258,-0.7677,-0.0757,-0.1149,-0.052000000000000005,0.005,0.026000000000000002
2025-11-06 18:34:30.450,137.68,-0.336,-0.426,0.176,-0.065,-0.9510000000000001,0.201,16.86,-1.49,-47.96,0.6265000000000001,-0.7673,-0.0747,-0.1144,-0.034,-0.027,0.015
2025-11-06 18:34:30.450,137.685,-0.336,-0.41200000000000003,0.179,-0.095,-0.922,0.213,17.5,-1.6300000000000001,-48.28,0.6272,-0.7669,-0.0736,-0.114,-0.004,-0.056,0.0
2025-11-06 18:34:30.450,137.69,-0.335,-0.40700000000000003,0.178,-0.112,-0.909,0.219,17.5,-1.6300000000000001,-48.28,0.6279,-0.7665000000000001,-0.07250000000000001,-0.1135,0.012,-0.07,-0.006
2025-11-06 18:34:30.450,137.695,-0.315,-0.40800000000000003,0.17300000000000001,-0.11800000000000001,-0.904,0.227,17.5,-1.6300000000000001,-48.28,0.6285000000000001,-0.7661,-0.07150000000000001,-0.1131,0.016,-0.075,-0.016
2025-11-06 18:34:30.450,137.7,-0.28400000000000003,-0.41500000000000004,0.17,-0.12,-0.898,0.241,16.95,-1.49,-48.02,0.6291,-0.7658,-0.0704,-0.1126,0.018000000000000002,-0.081,-0.031
2025-11-06 18:34:30.450,137.705,-0.24,-0.424,0.165,-0.11900000000000001,-0.885,0.247,16.95,-1.49,-48.02,0.6296,-0.7655000000000001,-0.0694,-0.1121,0.017,-0.095,-0.038
2025-11-06 18:34:30.450,137.71,-0.176,-0.41600000000000004,0.164,-0.11800000000000001,-0.875,0.253,16.98,-3.06,-48.96,0.63,-0.7654000000000001,-0.0684,-0.1116,0.015,-0.10400000000000001,-0.046
2025-11-06 18:34:30.450,137.715,-0.098,-0.375,0.156,-0.125,-0.875,0.259,16.98,-3.06,-48.96,0.6302,-0.7654000000000001,-0.0675,-0.1111,0.022,-0.10400000000000001,-0.052000000000000005
2025-11-06 18:34:30.450,137.72,-0.026000000000000002,-0.33,0.149,-0.122,-0.875,0.27,16.98,-3.06,-48.96,0.6303000000000001,-0.7654000000000001,-0.06670000000000001,-0.1107,0.019,-0.10400000000000001,-0.063
2025-11-06 18:34:30.450,137.725,0.039,-0.28500000000000003,0.136,-0.126,-0.875,0.274,16.07,-1.87,-48.9,0.6302,-0.7656000000000001,-0.066,-0.11040000000000001,0.022,-0.10400000000000001,-0.067
2025-11-06 18:34:30.450,137.73,0.1,-0.243,0.128,-0.135,-0.888,0.281,16.07,-1.87,-48.9,0.63,-0.7659,-0.0654,-0.1101,0.03,-0.091,-0.073
2025-11-06 18:34:30.450,137.735,0.14400000000000002,-0.202,0.11900000000000001,-0.14100000000000001,-0.899,0.28600000000000003,17.01,-1.28,-47.85,0.6297,-0.7662,-0.0649,-0.10980000000000001,0.036000000000000004,-0.079,-0.077
2025-11-06 18:34:30.450,137.74,0.166,-0.149,0.111,-0.135,-0.918,0.28700000000000003,17.01,-1.28,-47.85,0.6294000000000001,-0.7665000000000001,-0.0645,-0.1097,0.03,-0.06,-0.077
2025-11-06 18:34:30.450,137.745,0.154,-0.116,0.105,-0.132,-0.936,0.28400000000000003,17.01,-1.28,-47.85,0.6291,-0.7668,-0.0641,-0.1096,0.026000000000000002,-0.042,-0.07200000000000001
2025-11-06 18:34:30.450,137.75,0.128,-0.105,0.10300000000000001,-0.123,-0.9440000000000001,0.281,16.42,-1.87,-48.550000000000004,0.6288,-0.7671,-0.06380000000000001,-0.1095,0.017,-0.034,-0.069
2025-11-06 18:34:30.450,137.755,0.10300000000000001,-0.11,0.10300000000000001,-0.109,-0.9460000000000001,0.28400000000000003,16.42,-1.87,-48.550000000000004,0.6285000000000001,-0.7673,-0.0635,-0.1095,0.003,-0.031,-0.07100000000000001
2025-11-06 18:34:30.450,137.76,0.066,-0.133,0.10400000000000001,-0.094,-0.9460000000000001,0.289,15.96,-1.95,-48.050000000000004,0.6284000000000001,-0.7675000000000001,-0.0631,-0.10940000000000001,-0.011,-0.031,-0.075
2025-11-06 18:34:30.450,137.765,0.034,-0.159,0.111,-0.074,-0.9470000000000001,0.291,15.96,-1.95,-48.050000000000004,0.6283000000000001,-0.7676000000000001,-0.0626,-0.1092,-0.032,-0.03,-0.077
2025-11-06 18:34:30.450,137.77,-0.002,-0.193,0.11800000000000001,-0.033,-0.9530000000000001,0.292,15.96,-1.95,-48.050000000000004,0.6283000000000001,-0.7677,-0.0621,-0.109,-0.073,-0.024,-0.077
2025-11-06 18:34:30.450,137.775,-0.031,-0.231,0.126,-0.006,-0.9560000000000001,0.292,15.46,-2.07,-48.08,0.6283000000000001,-0.7678,-0.0616,-0.1087,-0.1,-0.02,-0.077
2025-11-06 18:34:30.450,137.78,-0.054,-0.263,0.132,0.015,-0.96,0.297,15.46,-2.07,-48.08,0.6284000000000001,-0.7678,-0.0609,-0.10830000000000001,-0.122,-0.016,-0.082
2025-11-06 18:34:30.450,137.785,-0.064,-0.28700000000000003,0.14300000000000002,0.033,-0.961,0.295,15.84,-2.07,-49.25,0.6285000000000001,-0.7678,-0.060200000000000004,-0.10790000000000001,-0.14,-0.015,-0.08
2025-11-06 18:34:30.450,137.79,-0.068,-0.303,0.154,0.045,-0.9580000000000001,0.29,15.84,-2.07,-49.25,0.6286,-0.7678,-0.059500000000000004,-0.1075,-0.153,-0.018000000000000002,-0.075
2025-11-06 18:34:30.450,137.795,-0.061,-0.317,0.165,0.056,-0.9530000000000001,0.28400000000000003,15.84,-2.07,-49.25,0.6287,-0.7679,-0.0587,-0.1071,-0.164,-0.022,-0.07
2025-11-06 18:34:30.450,137.8,-0.054,-0.323,0.186,0.059000000000000004,-0.9480000000000001,0.273,15.63,-2.6,-48.660000000000004,0.6288,-0.7679,-0.0579,-0.1068,-0.168,-0.027,-0.059000000000000004
2025-11-06 18:34:30.450,137.805,-0.025,-0.356,0.20500000000000002,0.052000000000000005,-0.9430000000000001,0.264,15.63,-2.6,-48.660000000000004,0.6289,-0.768,-0.057,-0.10640000000000001,-0.161,-0.033,-0.049
2025-11-06 18:34:30.450,137.81,-0.001,-0.375,0.219,0.041,-0.9420000000000001,0.259,16.66,-2.07,-48.64,0.6289,-0.7681,-0.056,-0.10600000000000001,-0.151,-0.035,-0.045
2025-11-06 18:34:30.450,137.815,0.025,-0.404,0.23700000000000002,0.03,-0.9440000000000001,0.259,16.66,-2.07,-48.64,0.6288,-0.7683,-0.054900000000000004,-0.10550000000000001,-0.14,-0.032,-0.044
2025-11-06 18:34:30.450,137.82,0.061,-0.434,0.252,0.015,-0.9510000000000001,0.257,16.66,-2.07,-48.64,0.6287,-0.7685000000000001,-0.0538,-0.10500000000000001,-0.126,-0.025,-0.041
2025-11-06 18:34:30.450,137.825,0.099,-0.465,0.266,0.001,-0.961,0.253,15.69,-2.45,-48.02,0.6285000000000001,-0.7689,-0.0526,-0.10450000000000001,-0.113,-0.015,-0.036000000000000004
2025-11-06 18:34:30.450,137.83,0.167,-0.501,0.28300000000000003,-0.027,-0.976,0.26,15.69,-2.45,-48.02,0.6281,-0.7693,-0.051300000000000005,-0.1039,-0.085,0.0,-0.043000000000000003
2025-11-06 18:34:30.450,137.835,0.21,-0.526,0.28700000000000003,-0.046,-0.985,0.273,15.69,-2.45,-48.02,0.6277,-0.7698,-0.05,-0.1033,-0.066,0.009000000000000001,-0.054
2025-11-06 18:34:30.450,137.84,0.246,-0.537,0.293,-0.068,-0.996,0.29,15.63,-2.42,-48.75,0.6272,-0.7704000000000001,-0.0487,-0.1027,-0.045,0.02,-0.069
2025-11-06 18:34:30.450,137.845,0.265,-0.536,0.29,-0.089,-1.006,0.304,15.63,-2.42,-48.75,0.6267,-0.771,-0.047400000000000005,-0.10210000000000001,-0.025,0.031,-0.082
2025-11-06 18:34:30.450,137.85,0.263,-0.529,0.28600000000000003,-0.108,-1.02,0.314,15.6,-2.48,-48.93,0.6262,-0.7716000000000001,-0.0461,-0.1014,-0.006,0.045,-0.09
2025-11-06 18:34:30.450,137.855,0.244,-0.512,0.275,-0.128,-1.032,0.32,15.6,-2.48,-48.93,0.6257,-0.7721,-0.0448,-0.1008,0.011,0.057,-0.095
2025-11-06 18:34:30.450,137.86,0.192,-0.486,0.255,-0.157,-1.037,0.319,15.6,-2.48,-48.93,0.6253000000000001,-0.7726000000000001,-0.0436,-0.10020000000000001,0.039,0.062,-0.092
2025-11-06 18:34:30.450,137.865,0.14400000000000002,-0.47400000000000003,0.23700000000000002,-0.17200000000000001,-1.035,0.318,15.55,-1.92,-49.54,0.625,-0.773,-0.0425,-0.09970000000000001,0.054,0.061,-0.09
2025-11-06 18:34:30.450,137.87,0.096,-0.466,0.223,-0.183,-1.031,0.312,15.55,-1.92,-49.54,0.6248,-0.7733,-0.0414,-0.09910000000000001,0.064,0.057,-0.083
2025-11-06 18:34:30.450,137.875,0.052000000000000005,-0.461,0.20800000000000002,-0.187,-1.024,0.303,14.9,-2.42,-48.9,0.6247,-0.7735000000000001,-0.0403,-0.0985,0.068,0.049,-0.074
2025-11-06 18:34:30.451,137.88,0.016,-0.451,0.197,-0.19,-1.0150000000000001,0.291,14.9,-2.42,-48.9,0.6247,-0.7736000000000001,-0.0392,-0.0979,0.07,0.04,-0.062
2025-11-06 18:34:30.451,137.885,-0.005,-0.441,0.187,-0.186,-1.004,0.273,14.9,-2.42,-48.9,0.6247,-0.7737,-0.038200000000000005,-0.0974,0.066,0.029,-0.044
2025-11-06 18:34:30.451,137.89,-0.026000000000000002,-0.418,0.177,-0.177,-0.986,0.255,14.870000000000001,-2.33,-49.480000000000004,0.6247,-0.7738,-0.037200000000000004,-0.09680000000000001,0.056,0.011,-0.026000000000000002
2025-11-06 18:34:30.451,137.895,-0.032,-0.41100000000000003,0.17500000000000002,-0.169,-0.973,0.23700000000000002,14.870000000000001,-2.33,-49.480000000000004,0.6248,-0.7739,-0.0362,-0.09630000000000001,0.048,-0.001,-0.008
2025-11-06 18:34:30.451,137.9,-0.034,-0.392,0.17300000000000001,-0.161,-0.961,0.218,14.67,-2.04,-49.72,0.6249,-0.7739,-0.0352,-0.09580000000000001,0.039,-0.014,0.01
2025-11-06 18:34:30.451,137.905,-0.032,-0.374,0.17500000000000002,-0.152,-0.9520000000000001,0.199,14.67,-2.04,-49.72,0.6249,-0.774,-0.034300000000000004,-0.0954,0.029,-0.023,0.028
2025-11-06 18:34:30.451,137.91,-0.031,-0.354,0.181,-0.145,-0.9450000000000001,0.186,14.67,-2.04,-49.72,0.625,-0.774,-0.0334,-0.095,0.022,-0.03,0.042
2025-11-06 18:34:30.451,137.915,-0.03,-0.336,0.19,-0.137,-0.9390000000000001,0.17,14.55,-2.33,-49.25,0.625,-0.7741,-0.0325,-0.0946,0.014,-0.036000000000000004,0.058
2025-11-06 18:34:30.451,137.92,-0.026000000000000002,-0.313,0.201,-0.129,-0.937,0.158,14.55,-2.33,-49.25,0.6251,-0.7741,-0.0316,-0.09430000000000001,0.006,-0.039,0.069
2025-11-06 18:34:30.451,137.925,-0.012,-0.272,0.222,-0.122,-0.933,0.145,14.76,-2.66,-50.01,0.6251,-0.7742,-0.0308,-0.0941,-0.002,-0.042,0.082
2025-11-06 18:34:30.451,137.93,0.003,-0.242,0.23900000000000002,-0.11900000000000001,-0.933,0.136,14.76,-2.66,-50.01,0.625,-0.7742,-0.029900000000000003,-0.094,-0.006,-0.042,0.092
2025-11-06 18:34:30.451,137.935,0.02,-0.215,0.253,-0.11800000000000001,-0.933,0.13,14.76,-2.66,-50.01,0.6249,-0.7743,-0.0291,-0.094,-0.007,-0.042,0.098
2025-11-06 18:34:30.451,137.94,0.03,-0.193,0.27,-0.123,-0.936,0.126,14.67,-2.68,-49.31,0.6248,-0.7745000000000001,-0.028300000000000002,-0.094,-0.003,-0.039,0.101
2025-11-06 18:34:30.451,137.945,0.035,-0.184,0.28800000000000003,-0.131,-0.9440000000000001,0.128,14.67,-2.68,-49.31,0.6247,-0.7746000000000001,-0.0274,-0.0941,0.003,-0.031,0.1
2025-11-06 18:34:30.451,137.95,0.04,-0.17300000000000001,0.302,-0.138,-0.9490000000000001,0.136,14.61,-2.25,-50.04,0.6246,-0.7747,-0.026600000000000002,-0.0942,0.008,-0.026000000000000002,0.093
2025-11-06 18:34:30.451,137.955,0.041,-0.154,0.32,-0.147,-0.9550000000000001,0.15,14.61,-2.25,-50.04,0.6244000000000001,-0.7748,-0.0257,-0.0944,0.016,-0.019,0.079
2025-11-06 18:34:30.451,137.96,0.04,-0.137,0.333,-0.153,-0.961,0.16,14.61,-2.25,-50.04,0.6243000000000001,-0.7749,-0.024900000000000002,-0.0946,0.02,-0.014,0.069
2025-11-06 18:34:30.451,137.965,0.045,-0.121,0.342,-0.155,-0.964,0.17200000000000001,14.93,-2.66,-49.19,0.6242,-0.775,-0.024,-0.0949,0.021,-0.009000000000000001,0.057
2025-11-06 18:34:30.451,137.97,0.055,-0.099,0.35100000000000003,-0.163,-0.966,0.186,14.93,-2.66,-49.19,0.624,-0.7752,-0.023200000000000002,-0.09530000000000001,0.027,-0.007,0.044
2025-11-06 18:34:30.451,137.975,0.07200000000000001,-0.08600000000000001,0.354,-0.165,-0.967,0.20600000000000002,14.46,-3.04,-50.13,0.6238,-0.7753,-0.0224,-0.09570000000000001,0.027,-0.005,0.024
2025-11-06 18:34:30.451,137.98,0.088,-0.049,0.354,-0.163,-0.972,0.224,14.46,-3.04,-50.13,0.6235,-0.7755000000000001,-0.0216,-0.0961,0.023,0.0,0.007
2025-11-06 18:34:30.451,137.985,0.095,-0.022,0.34900000000000003,-0.16,-0.977,0.232,14.46,-3.04,-50.13,0.6232,-0.7757000000000001,-0.020900000000000002,-0.0966,0.019,0.004,0.0
2025-11-06 18:34:30.451,137.99,0.097,0.003,0.343,-0.154,-0.984,0.23600000000000002,14.26,-3.06,-49.660000000000004,0.6229,-0.7759,-0.020200000000000003,-0.0971,0.011,0.012,-0.003
2025-11-06 18:34:30.451,137.995,0.095,0.032,0.332,-0.148,-0.992,0.232,14.26,-3.06,-49.660000000000004,0.6227,-0.776,-0.0196,-0.09770000000000001,0.004,0.02,0.001
2025-11-06 18:34:30.451,138.0,0.088,0.058,0.318,-0.139,-1.0,0.224,14.44,-3.47,-49.25,0.6224000000000001,-0.7762,-0.019100000000000002,-0.0983,-0.005,0.029,0.01
2025-11-06 18:34:30.451,138.005,0.07100000000000001,0.083,0.299,-0.126,-1.0090000000000001,0.211,14.44,-3.47,-49.25,0.6222,-0.7763,-0.0187,-0.0989,-0.02,0.038,0.023
2025-11-06 18:34:30.451,138.01,0.046,0.093,0.276,-0.11,-1.018,0.202,14.44,-3.47,-49.25,0.622,-0.7763,-0.0183,-0.0995,-0.037,0.047,0.032
2025-11-06 18:34:30.451,138.015,0.02,0.098,0.26,-0.1,-1.024,0.195,14.030000000000001,-3.5,-49.42,0.6219,-0.7764000000000001,-0.0179,-0.10010000000000001,-0.049,0.053,0.04
2025-11-06 18:34:30.451,138.02,-0.01,0.092,0.245,-0.091,-1.031,0.186,14.030000000000001,-3.5,-49.42,0.6219,-0.7763,-0.0176,-0.10060000000000001,-0.058,0.06,0.049
2025-11-06 18:34:30.451,138.025,-0.041,0.088,0.23500000000000001,-0.085,-1.036,0.178,13.88,-3.44,-48.870000000000005,0.6219,-0.7763,-0.0172,-0.10110000000000001,-0.066,0.065,0.057
2025-11-06 18:34:30.451,138.03,-0.07100000000000001,0.082,0.227,-0.084,-1.04,0.171,13.88,-3.44,-48.870000000000005,0.622,-0.7761,-0.016900000000000002,-0.10160000000000001,-0.068,0.069,0.064
2025-11-06 18:34:30.451,138.035,-0.092,0.079,0.22,-0.093,-1.046,0.163,13.88,-3.44,-48.870000000000005,0.6221,-0.776,-0.0165,-0.10210000000000001,-0.061,0.074,0.07200000000000001
2025-11-06 18:34:30.451,138.04,-0.10300000000000001,0.079,0.219,-0.10200000000000001,-1.051,0.162,14.17,-3.44,-48.84,0.6222,-0.7758,-0.0162,-0.10260000000000001,-0.052000000000000005,0.08,0.07200000000000001
2025-11-06 18:34:30.451,138.045,-0.11,0.077,0.219,-0.115,-1.056,0.164,14.17,-3.44,-48.84,0.6224000000000001,-0.7756000000000001,-0.0159,-0.10310000000000001,-0.04,0.085,0.069
2025-11-06 18:34:30.451,138.05,-0.114,0.08600000000000001,0.223,-0.131,-1.059,0.168,14.73,-3.62,-49.45,0.6226,-0.7754000000000001,-0.0155,-0.10360000000000001,-0.025,0.088,0.064
2025-11-06 18:34:30.451,138.055,-0.116,0.096,0.228,-0.15,-1.06,0.17300000000000001,14.73,-3.62,-49.45,0.6227,-0.7752,-0.0152,-0.1042,-0.008,0.089,0.059000000000000004
2025-11-06 18:34:30.451,138.06,-0.121,0.112,0.234,-0.17200000000000001,-1.064,0.179,14.73,-3.62,-49.45,0.6229,-0.775,-0.0149,-0.1048,0.012,0.093,0.052000000000000005
2025-11-06 18:34:30.451,138.065,-0.128,0.134,0.23600000000000002,-0.20500000000000002,-1.068,0.181,14.32,-3.74,-49.6,0.6231,-0.7748,-0.0146,-0.10540000000000001,0.043000000000000003,0.097,0.049
2025-11-06 18:34:30.451,138.07,-0.15,0.188,0.246,-0.23500000000000001,-1.06,0.183,14.32,-3.74,-49.6,0.6233000000000001,-0.7745000000000001,-0.0143,-0.1061,0.07200000000000001,0.089,0.046
2025-11-06 18:34:30.451,138.075,-0.164,0.218,0.252,-0.257,-1.055,0.185,13.5,-3.59,-49.72,0.6236,-0.7742,-0.014100000000000001,-0.10690000000000001,0.092,0.084,0.043000000000000003
2025-11-06 18:34:30.451,138.08,-0.182,0.252,0.258,-0.273,-1.051,0.186,13.5,-3.59,-49.72,0.6239,-0.7738,-0.013900000000000001,-0.1078,0.107,0.079,0.041
2025-11-06 18:34:30.451,138.085,-0.197,0.28500000000000003,0.264,-0.28500000000000003,-1.046,0.184,13.5,-3.59,-49.72,0.6242,-0.7735000000000001,-0.013800000000000002,-0.10880000000000001,0.117,0.074,0.041
2025-11-06 18:34:30.451,138.09,-0.219,0.324,0.269,-0.296,-1.041,0.181,13.59,-3.77,-49.42,0.6245,-0.773,-0.0137,-0.10990000000000001,0.126,0.069,0.043000000000000003
2025-11-06 18:34:30.451,138.095,-0.234,0.358,0.277,-0.302,-1.037,0.176,13.59,-3.77,-49.42,0.6249,-0.7726000000000001,-0.013600000000000001,-0.111,0.131,0.065,0.047
2025-11-06 18:34:30.451,138.1,-0.257,0.449,0.28700000000000003,-0.306,-1.03,0.17300000000000001,13.59,-3.77,-49.42,0.6253000000000001,-0.7721,-0.013600000000000001,-0.11230000000000001,0.133,0.057,0.048
2025-11-06 18:34:30.451,138.105,-0.265,0.493,0.293,-0.307,-1.0230000000000001,0.169,13.700000000000001,-3.85,-49.480000000000004,0.6257,-0.7715000000000001,-0.0137,-0.11370000000000001,0.132,0.05,0.051000000000000004
2025-11-06 18:34:30.451,138.11,-0.271,0.535,0.299,-0.303,-1.0170000000000001,0.162,13.700000000000001,-3.85,-49.480000000000004,0.6261,-0.7709,-0.013900000000000001,-0.1153,0.126,0.044,0.055
2025-11-06 18:34:30.451,138.115,-0.28200000000000003,0.5670000000000001,0.306,-0.293,-1.01,0.154,13.44,-3.65,-49.45,0.6266,-0.7703,-0.014,-0.1168,0.114,0.037,0.062
2025-11-06 18:34:30.451,138.12,-0.292,0.594,0.311,-0.279,-1.0030000000000001,0.146,13.44,-3.65,-49.45,0.627,-0.7697,-0.0142,-0.11850000000000001,0.097,0.03,0.068
2025-11-06 18:34:30.451,138.125,-0.309,0.627,0.319,-0.251,-0.987,0.14300000000000002,13.44,-3.65,-49.45,0.6275000000000001,-0.769,-0.0145,-0.1202,0.068,0.015,0.069
2025-11-06 18:34:30.451,138.13,-0.315,0.664,0.323,-0.233,-0.975,0.14200000000000002,13.06,-3.77,-50.07,0.628,-0.7683,-0.014700000000000001,-0.12200000000000001,0.047,0.002,0.067
2025-11-06 18:34:30.451,138.135,-0.322,0.6970000000000001,0.325,-0.212,-0.964,0.138,13.06,-3.77,-50.07,0.6285000000000001,-0.7676000000000001,-0.0151,-0.12390000000000001,0.024,-0.008,0.069
2025-11-06 18:34:30.451,138.14,-0.323,0.723,0.326,-0.194,-0.9490000000000001,0.132,13.15,-4.18,-49.92,0.629,-0.7669,-0.0154,-0.1258,0.003,-0.023,0.07200000000000001
2025-11-06 18:34:30.451,138.145,-0.319,0.758,0.327,-0.179,-0.9410000000000001,0.127,13.15,-4.18,-49.92,0.6295000000000001,-0.7662,-0.0158,-0.1278,-0.013000000000000001,-0.03,0.075
2025-11-06 18:34:30.451,138.15,-0.31,0.792,0.323,-0.164,-0.934,0.122,13.15,-4.18,-49.92,0.63,-0.7654000000000001,-0.016300000000000002,-0.1298,-0.03,-0.037,0.078
2025-11-06 18:34:30.451,138.155,-0.28600000000000003,0.834,0.318,-0.155,-0.926,0.123,13.15,-4.18,-49.480000000000004,0.6304000000000001,-0.7647,-0.016900000000000002,-0.13190000000000002,-0.041,-0.045,0.074
2025-11-06 18:34:30.451,138.16,-0.268,0.864,0.313,-0.151,-0.926,0.127,13.15,-4.18,-49.480000000000004,0.6307,-0.764,-0.0175,-0.1341,-0.048,-0.045,0.068
2025-11-06 18:34:30.451,138.165,-0.252,0.896,0.309,-0.148,-0.93,0.132,12.36,-4.29,-49.42,0.6311,-0.7633000000000001,-0.0182,-0.1363,-0.054,-0.041,0.061
2025-11-06 18:34:30.451,138.17,-0.241,0.92,0.303,-0.152,-0.935,0.137,12.36,-4.29,-49.42,0.6314000000000001,-0.7627,-0.0189,-0.1385,-0.052000000000000005,-0.036000000000000004,0.054
2025-11-06 18:34:30.451,138.175,-0.23,0.9420000000000001,0.298,-0.159,-0.9430000000000001,0.14300000000000002,12.36,-4.29,-49.42,0.6317,-0.762,-0.019700000000000002,-0.1408,-0.047,-0.027,0.046
2025-11-06 18:34:30.451,138.18,-0.221,0.9530000000000001,0.293,-0.167,-0.9530000000000001,0.156,12.620000000000001,-4.2,-49.45,0.6319,-0.7613000000000001,-0.0205,-0.1431,-0.041,-0.017,0.032
2025-11-06 18:34:30.451,138.185,-0.20500000000000002,0.974,0.292,-0.168,-0.97,0.169,12.620000000000001,-4.2,-49.45,0.6322,-0.7607,-0.0213,-0.1454,-0.042,0.0,0.017
2025-11-06 18:34:30.451,138.19,-0.194,0.981,0.29,-0.171,-0.984,0.179,12.620000000000001,-4.67,-49.02,0.6324000000000001,-0.76,-0.0222,-0.14780000000000001,-0.041,0.013000000000000001,0.005
2025-11-06 18:34:30.451,138.195,-0.19,0.987,0.294,-0.176,-0.996,0.186,12.620000000000001,-4.67,-49.02,0.6326,-0.7594000000000001,-0.023100000000000002,-0.1501,-0.038,0.026000000000000002,-0.003
2025-11-06 18:34:30.451,138.2,-0.19,0.986,0.296,-0.18,-1.0090000000000001,0.19,12.620000000000001,-4.67,-49.02,0.6327,-0.7587,-0.0239,-0.1525,-0.036000000000000004,0.039,-0.008
2025-11-06 18:34:30.451,138.205,-0.19,0.986,0.3,-0.182,-1.0190000000000001,0.192,12.3,-5.08,-49.370000000000005,0.6329,-0.7581,-0.024800000000000003,-0.15480000000000002,-0.037,0.049,-0.011
2025-11-06 18:34:30.451,138.21,-0.195,0.972,0.305,-0.179,-1.029,0.195,12.3,-5.08,-49.370000000000005,0.6331,-0.7574000000000001,-0.0256,-0.1572,-0.042,0.06,-0.016
2025-11-06 18:34:30.451,138.215,-0.201,0.9530000000000001,0.307,-0.17500000000000002,-1.034,0.198,12.040000000000001,-4.09,-48.9,0.6333000000000001,-0.7567,-0.0264,-0.1595,-0.048,0.065,-0.021
2025-11-06 18:34:30.451,138.22,-0.211,0.918,0.308,-0.164,-1.036,0.203,12.040000000000001,-4.09,-48.9,0.6335000000000001,-0.7561,-0.027100000000000003,-0.1617,-0.061,0.067,-0.028
2025-11-06 18:34:30.451,138.225,-0.215,0.891,0.304,-0.157,-1.036,0.20700000000000002,12.040000000000001,-4.09,-48.9,0.6337,-0.7554000000000001,-0.027800000000000002,-0.16390000000000002,-0.07,0.067,-0.034
2025-11-06 18:34:30.451,138.23,-0.224,0.873,0.3,-0.151,-1.035,0.20800000000000002,12.39,-4.32,-49.22,0.6339,-0.7547,-0.0285,-0.166,-0.079,0.067,-0.037
2025-11-06 18:34:30.451,138.235,-0.232,0.856,0.292,-0.14100000000000001,-1.033,0.20700000000000002,12.39,-4.32,-49.22,0.6342,-0.754,-0.0292,-0.1681,-0.091,0.065,-0.038
2025-11-06 18:34:30.451,138.24,-0.23700000000000002,0.8290000000000001,0.277,-0.128,-1.029,0.201,12.16,-4.47,-48.28,0.6345000000000001,-0.7533000000000001,-0.0298,-0.1701,-0.106,0.061,-0.034
2025-11-06 18:34:30.451,138.245,-0.23600000000000002,0.799,0.261,-0.11900000000000001,-1.02,0.195,12.16,-4.47,-48.28,0.6347,-0.7526,-0.0304,-0.1721,-0.117,0.052000000000000005,-0.03
2025-11-06 18:34:30.451,138.25,-0.229,0.774,0.241,-0.109,-1.012,0.19,12.16,-4.47,-48.28,0.635,-0.7519,-0.031100000000000003,-0.1739,-0.128,0.044,-0.027
2025-11-06 18:34:30.451,138.255,-0.219,0.747,0.225,-0.106,-1.0030000000000001,0.182,12.21,-4.53,-48.64,0.6352,-0.7513000000000001,-0.0317,-0.1757,-0.134,0.035,-0.021
2025-11-06 18:34:30.451,138.26,-0.209,0.725,0.20400000000000001,-0.10300000000000001,-0.994,0.17200000000000001,12.21,-4.53,-48.64,0.6355000000000001,-0.7507,-0.0324,-0.1774,-0.138,0.026000000000000002,-0.014
2025-11-06 18:34:30.451,138.265,-0.194,0.6920000000000001,0.184,-0.105,-0.986,0.166,12.21,-4.5,-48.43,0.6357,-0.7501,-0.033,-0.17900000000000002,-0.137,0.019,-0.009000000000000001
2025-11-06 18:34:30.451,138.27,-0.177,0.655,0.167,-0.113,-0.978,0.155,12.21,-4.5,-48.43,0.6359,-0.7495,-0.033600000000000005,-0.1804,-0.131,0.01,0.0
2025-11-06 18:34:30.451,138.275,-0.16,0.625,0.156,-0.12,-0.969,0.14400000000000002,12.21,-4.5,-48.43,0.6361,-0.749,-0.0342,-0.1819,-0.125,0.001,0.008
2025-11-06 18:34:30.451,138.28,-0.152,0.604,0.152,-0.129,-0.964,0.138,11.540000000000001,-4.79,-48.52,0.6363,-0.7485,-0.034800000000000005,-0.1832,-0.117,-0.004,0.012
2025-11-06 18:34:30.451,138.285,-0.14300000000000002,0.585,0.15,-0.138,-0.96,0.127,11.540000000000001,-4.79,-48.52,0.6364000000000001,-0.748,-0.0354,-0.18460000000000001,-0.109,-0.007,0.022
2025-11-06 18:34:30.451,138.29,-0.136,0.581,0.155,-0.149,-0.9550000000000001,0.12,12.16,-4.47,-48.11,0.6365000000000001,-0.7475,-0.0359,-0.1859,-0.1,-0.012,0.027
2025-11-06 18:34:30.451,138.295,-0.133,0.58,0.159,-0.157,-0.9530000000000001,0.111,12.16,-4.47,-48.11,0.6367,-0.7471,-0.036500000000000005,-0.18730000000000002,-0.093,-0.015,0.035
2025-11-06 18:34:30.451,138.3,-0.128,0.582,0.17,-0.169,-0.9520000000000001,0.107,12.16,-4.47,-48.11,0.6368,-0.7466,-0.037000000000000005,-0.18860000000000002,-0.082,-0.016,0.037
2025-11-06 18:34:30.451,138.305,-0.122,0.59,0.184,-0.179,-0.9470000000000001,0.107,11.69,-4.96,-48.69,0.6368,-0.7461,-0.0375,-0.19010000000000002,-0.073,-0.021,0.037
2025-11-06 18:34:30.451,138.31,-0.11900000000000001,0.605,0.194,-0.185,-0.9440000000000001,0.11,11.69,-4.96,-48.69,0.6369,-0.7457,-0.038,-0.1915,-0.068,-0.024,0.032
2025-11-06 18:34:30.455,138.315,-0.12,0.622,0.20500000000000002,-0.188,-0.9390000000000001,0.11,11.69,-4.61,-48.46,0.637,-0.7452000000000001,-0.0385,-0.193,-0.067,-0.028,0.031
2025-11-06 18:34:30.455,138.32,-0.127,0.637,0.211,-0.192,-0.937,0.114,11.69,-4.61,-48.46,0.637,-0.7447,-0.039,-0.1945,-0.064,-0.031,0.025
