System_Time,Timestamp,Gyro_X,Gyro_Y,Gyro_Z,Acc_X,Acc_Y,Acc_Z,Mag_X,Mag_Y,Mag_Z,Quat_W,Quat_X,Quat_Y,Quat_Z,Linear_Acc_X,Linear_Acc_Y,Linear_Acc_Z
2025-11-06 18:37:06.519,282.495,0.679,0.178,-0.508,-0.099,-0.989,0.004,62.730000000000004,-12.01,-72.69,-0.4444,0.5113,0.5101,0.5297000000000001,0.009000000000000001,-0.005,0.039
2025-11-06 18:37:06.519,282.5,5.463,1.618,-3.548,-0.108,-0.993,-0.033,62.96,-10.78,-76.03,-0.44110000000000005,0.5092,0.5211,0.5238,0.029,-0.002,0.089
2025-11-06 18:37:06.519,282.505,8.565,3.166,-6.546,-0.106,-0.994,-0.033,62.96,-10.78,-76.03,-0.4358,0.5045000000000001,0.54,0.5135000000000001,0.052000000000000005,0.0,0.11900000000000001
2025-11-06 18:37:06.519,282.51,0.463,-0.026000000000000002,-0.17500000000000002,-0.10300000000000001,-0.995,-0.033,62.96,-10.78,-76.03,-0.4368,0.5036,0.5369,0.5169,0.053,0.0,0.12
2025-11-06 18:37:06.519,282.515,-0.015,-0.124,0.067,-0.10400000000000001,-0.994,-0.03,62.17,-10.46,-76.08,-0.43810000000000004,0.5027,0.533,0.5206000000000001,0.048,-0.001,0.106
2025-11-06 18:37:06.519,282.52,-0.033,-0.013000000000000001,0.0,-0.10200000000000001,-0.993,-0.031,62.17,-10.46,-76.08,-0.43920000000000003,0.5016,0.5298,0.5241,0.042,-0.002,0.098
2025-11-06 18:37:06.519,282.525,-0.032,-0.011,0.0,-0.10200000000000001,-0.994,-0.029,62.7,-10.99,-75.91,-0.44020000000000004,0.5006,0.5268,0.5272,0.039,-0.001,0.08700000000000001
2025-11-06 18:37:06.519,282.53,-0.029,-0.006,0.003,-0.101,-0.994,-0.028,62.7,-10.99,-75.91,-0.441,0.49970000000000003,0.5241,0.53,0.035,-0.001,0.079
2025-11-06 18:37:06.519,282.535,-0.028,-0.003,0.001,-0.10200000000000001,-0.994,-0.029,63.08,-11.1,-75.7,-0.4418,0.4989,0.5216000000000001,0.5326000000000001,0.033,-0.002,0.073
2025-11-06 18:37:06.519,282.54,-0.028,0.007,0.003,-0.10300000000000001,-0.992,-0.029,63.08,-11.1,-75.7,-0.44260000000000005,0.49820000000000003,0.5192,0.5349,0.031,-0.004,0.067
2025-11-06 18:37:06.519,282.545,-0.024,0.012,0.003,-0.105,-0.991,-0.029,63.08,-11.1,-75.7,-0.4433,0.49770000000000003,0.5169,0.537,0.029,-0.004,0.061
2025-11-06 18:37:06.519,282.55,-0.019,0.013000000000000001,0.003,-0.107,-0.991,-0.03,61.97,-10.66,-75.94,-0.4441,0.4974,0.5146000000000001,0.5389,0.029,-0.005,0.056
2025-11-06 18:37:06.519,282.555,-0.019,0.014,0.003,-0.106,-0.991,-0.031,61.97,-10.66,-75.94,-0.4446,0.4969,0.5127,0.5407000000000001,0.025,-0.005,0.052000000000000005
2025-11-06 18:37:06.519,282.56,-0.019,0.018000000000000002,0.003,-0.109,-0.99,-0.032,63.4,-10.46,-75.97,-0.44530000000000003,0.49670000000000003,0.5106,0.5423,0.026000000000000002,-0.006,0.048
2025-11-06 18:37:06.519,282.565,-0.017,0.019,0.003,-0.108,-0.99,-0.032,63.4,-10.46,-75.97,-0.44580000000000003,0.4964,0.5088,0.5438000000000001,0.022,-0.005,0.044
2025-11-06 18:37:06.519,282.57,-0.017,0.016,0.001,-0.107,-0.99,-0.034,63.4,-10.46,-75.18,-0.44620000000000004,0.4959,0.5074000000000001,0.5453,0.019,-0.006,0.042
2025-11-06 18:37:06.519,282.575,-0.015,0.019,0.003,-0.109,-0.988,-0.033,62.46,-10.55,-75.18,-0.44670000000000004,0.49570000000000003,0.5058,0.5466,0.019,-0.007,0.038
2025-11-06 18:37:06.519,282.58,-0.012,0.015,0.003,-0.108,-0.988,-0.036000000000000004,62.46,-10.55,-75.18,-0.447,0.4953,0.5045000000000001,0.5479,0.017,-0.007,0.036000000000000004
2025-11-06 18:37:06.519,282.585,-0.011,0.016,0.003,-0.111,-0.989,-0.033,62.26,-10.78,-75.67,-0.4475,0.4953,0.503,0.5488000000000001,0.018000000000000002,-0.006,0.03
2025-11-06 18:37:06.519,282.59,-0.01,0.011,0.002,-0.11,-0.989,-0.035,62.26,-10.78,-75.67,-0.44780000000000003,0.49510000000000004,0.5018,0.5498000000000001,0.015,-0.005,0.029
2025-11-06 18:37:06.519,282.595,-0.01,0.012,0.003,-0.11,-0.989,-0.035,62.46,-10.64,-75.15,-0.4481,0.4949,0.5007,0.5508000000000001,0.014,-0.005,0.027
2025-11-06 18:37:06.520,282.6,-0.008,0.007,0.001,-0.109,-0.991,-0.033,62.46,-10.64,-75.15,-0.4484,0.49470000000000003,0.4998,0.5516,0.012,-0.003,0.023
2025-11-06 18:37:06.520,282.605,-0.011,0.005,0.002,-0.106,-0.992,-0.033,62.46,-10.64,-75.15,-0.4484,0.4943,0.49920000000000003,0.5524,0.008,-0.002,0.02
2025-11-06 18:37:06.520,282.61,-0.011,-0.003,0.001,-0.10300000000000001,-0.992,-0.031,62.46,-10.31,-75.32000000000001,-0.4485,0.4938,0.4989,0.5532,0.005,-0.002,0.017
2025-11-06 18:37:06.520,282.615,-0.013000000000000001,0.0,0.003,-0.10200000000000001,-0.993,-0.03,62.46,-10.31,-75.32000000000001,-0.4485,0.4933,0.49860000000000004,0.5539000000000001,0.003,-0.001,0.015
2025-11-06 18:37:06.520,282.62,-0.016,-0.003,0.0,-0.101,-0.995,-0.033,62.550000000000004,-10.17,-75.29,-0.4484,0.49260000000000004,0.4985,0.5547000000000001,0.002,0.0,0.016
2025-11-06 18:37:06.520,282.625,-0.017,-0.006,0.002,-0.099,-0.996,-0.031,62.550000000000004,-10.17,-75.29,-0.44830000000000003,0.4919,0.4985,0.5553,0.0,0.001,0.013000000000000001
2025-11-06 18:37:06.520,282.63,-0.019,-0.008,0.0,-0.1,-0.995,-0.033,62.2,-10.93,-75.18,-0.44830000000000003,0.4913,0.4984,0.556,0.001,0.0,0.013000000000000001
2025-11-06 18:37:06.520,282.635,-0.016,0.001,0.002,-0.101,-0.995,-0.035,62.2,-10.93,-75.18,-0.44830000000000003,0.4907,0.49820000000000003,0.5566,0.001,0.0,0.014
2025-11-06 18:37:06.520,282.64,-0.014,0.001,0.002,-0.101,-0.992,-0.037,62.2,-10.93,-75.18,-0.44820000000000004,0.4902,0.49810000000000004,0.5572,0.001,-0.001,0.014
2025-11-06 18:37:06.520,282.645,-0.013000000000000001,0.008,0.002,-0.10300000000000001,-0.991,-0.039,62.35,-10.99,-75.44,-0.44830000000000003,0.4897,0.4978,0.5579000000000001,0.003,-0.003,0.015
2025-11-06 18:37:06.520,282.65,-0.006,0.014,0.0,-0.10200000000000001,-0.99,-0.039,62.35,-10.99,-75.44,-0.44830000000000003,0.4892,0.49760000000000004,0.5585,0.002,-0.003,0.013000000000000001
2025-11-06 18:37:06.520,282.655,-0.008,0.019,0.0,-0.10300000000000001,-0.989,-0.036000000000000004,61.910000000000004,-10.66,-75.53,-0.4484,0.48900000000000005,0.4973,0.5589000000000001,0.002,-0.004,0.01
2025-11-06 18:37:06.520,282.66,-0.006,0.02,0.0,-0.10300000000000001,-0.99,-0.037,61.910000000000004,-10.66,-75.53,-0.4484,0.4887,0.49710000000000004,0.5593,0.002,-0.003,0.009000000000000001
2025-11-06 18:37:06.520,282.665,-0.006,0.018000000000000002,0.0,-0.1,-0.993,-0.035,61.910000000000004,-10.66,-75.53,-0.4484,0.4883,0.49710000000000004,0.5596,0.0,-0.001,0.007
2025-11-06 18:37:06.520,282.67,-0.009000000000000001,0.011,-0.001,-0.1,-0.993,-0.037,62.2,-10.55,-75.91,-0.44830000000000003,0.4879,0.49710000000000004,0.56,0.0,0.0,0.007
2025-11-06 18:37:06.520,282.675,-0.014,0.007,0.0,-0.1,-0.995,-0.039,62.2,-10.55,-75.91,-0.44830000000000003,0.48750000000000004,0.49710000000000004,0.5604,0.0,0.001,0.009000000000000001
2025-11-06 18:37:06.520,282.68,-0.017,0.003,-0.001,-0.098,-0.995,-0.04,61.97,-10.52,-75.85000000000001,-0.44830000000000003,0.4869,0.49720000000000003,0.5608000000000001,-0.001,0.001,0.009000000000000001
2025-11-06 18:37:06.520,282.685,-0.016,-0.003,0.001,-0.098,-0.997,-0.039,61.97,-10.52,-75.85000000000001,-0.44830000000000003,0.48650000000000004,0.49720000000000003,0.5612,-0.001,0.002,0.007
2025-11-06 18:37:06.520,282.69,-0.018000000000000002,-0.006,0.001,-0.098,-0.997,-0.04,62.29,-10.46,-74.91,-0.44830000000000003,0.48610000000000003,0.49720000000000003,0.5615,-0.001,0.002,0.007
2025-11-06 18:37:06.520,282.695,-0.023,-0.005,0.0,-0.098,-0.994,-0.042,62.29,-10.46,-74.91,-0.4484,0.48560000000000003,0.49720000000000003,0.5619000000000001,-0.001,0.0,0.008
2025-11-06 18:37:06.520,282.7,-0.02,-0.014,0.0,-0.098,-0.992,-0.041,62.29,-10.46,-74.91,-0.4484,0.4852,0.49710000000000004,0.5622,-0.001,-0.001,0.007
2025-11-06 18:37:06.522,282.705,-0.017,-0.01,0.001,-0.098,-0.991,-0.04,62.4,-10.58,-75.18,-0.4485,0.48500000000000004,0.49710000000000004,0.5624,-0.001,-0.002,0.005
2025-11-06 18:37:06.522,282.71,-0.015,-0.009000000000000001,0.001,-0.098,-0.991,-0.039,62.4,-10.58,-75.18,-0.4485,0.4848,0.49710000000000004,0.5626,0.0,-0.003,0.003
2025-11-06 18:37:06.522,282.715,-0.013000000000000001,-0.007,0.0,-0.101,-0.99,-0.04,62.26,-10.61,-75.29,-0.4486,0.4848,0.4968,0.5628000000000001,0.001,-0.003,0.004
2025-11-06 18:37:06.522,282.72,-0.012,-0.009000000000000001,0.001,-0.101,-0.991,-0.041,62.26,-10.61,-75.29,-0.44870000000000004,0.4847,0.49660000000000004,0.5629000000000001,0.001,-0.002,0.004
2025-11-06 18:37:06.522,282.725,-0.013000000000000001,-0.009000000000000001,0.003,-0.101,-0.991,-0.04,62.26,-10.61,-75.29,-0.44880000000000003,0.4847,0.4964,0.5630000000000001,0.001,-0.002,0.003
2025-11-06 18:37:06.522,282.73,-0.014,-0.015,0.004,-0.10300000000000001,-0.992,-0.039,62.230000000000004,-10.46,-75.76,-0.4489,0.4848,0.49620000000000003,0.5631,0.003,-0.001,0.002
2025-11-06 18:37:06.522,282.735,-0.014,-0.02,0.003,-0.10300000000000001,-0.993,-0.04,62.230000000000004,-10.46,-75.76,-0.449,0.4849,0.4959,0.5632,0.002,0.0,0.002
2025-11-06 18:37:06.522,282.74,-0.016,-0.022,0.004,-0.10200000000000001,-0.992,-0.04,62.67,-10.870000000000001,-75.91,-0.449,0.4849,0.4958,0.5632,0.001,-0.001,0.002
2025-11-06 18:37:06.522,282.745,-0.017,-0.02,0.002,-0.101,-0.991,-0.04,62.67,-10.870000000000001,-75.91,-0.4491,0.4849,0.49560000000000004,0.5633,0.0,-0.002,0.002
2025-11-06 18:37:06.522,282.75,-0.016,-0.014,0.003,-0.10200000000000001,-0.989,-0.041,62.32,-10.93,-75.67,-0.44920000000000004,0.4849,0.4954,0.5634,0.001,-0.004,0.003
2025-11-06 18:37:06.522,282.755,-0.013000000000000001,-0.007,0.003,-0.10200000000000001,-0.99,-0.042,62.32,-10.93,-75.67,-0.44920000000000004,0.4849,0.4953,0.5636,0.001,-0.003,0.003
2025-11-06 18:37:06.522,282.76,-0.01,-0.006,0.003,-0.10200000000000001,-0.991,-0.042,62.32,-10.93,-75.67,-0.44930000000000003,0.4848,0.49510000000000004,0.5637,0.0,-0.002,0.002
2025-11-06 18:37:06.522,282.765,-0.009000000000000001,0.002,0.003,-0.10200000000000001,-0.991,-0.04,62.370000000000005,-10.23,-76.14,-0.44930000000000003,0.4848,0.49510000000000004,0.5637,0.001,-0.002,0.0
2025-11-06 18:37:06.522,282.77,-0.008,0.001,0.001,-0.10300000000000001,-0.991,-0.038,62.370000000000005,-10.23,-76.14,-0.44930000000000003,0.4849,0.49500000000000005,0.5637,0.001,-0.002,0.0
2025-11-06 18:37:06.522,282.81,-0.025,-0.024,0.001,-0.097,-0.994,-0.039,62.58,-10.72,-76.05,-0.44970000000000004,0.4848,0.4948,0.5637,-0.004,0.0,0.0
2025-11-06 18:37:06.522,282.815,-0.024,-0.02,0.0,-0.097,-0.993,-0.039,62.58,-10.72,-76.05,-0.44970000000000004,0.4847,0.4949,0.5636,-0.003,0.0,0.0
2025-11-06 18:37:06.522,282.82,-0.024,-0.012,0.003,-0.099,-0.993,-0.04,62.58,-10.72,-76.05,-0.44980000000000003,0.48460000000000003,0.4949,0.5637,-0.001,0.0,0.0
2025-11-06 18:37:06.522,282.825,-0.022,-0.007,0.002,-0.099,-0.992,-0.041,62.52,-10.46,-75.94,-0.4499,0.48460000000000003,0.4949,0.5637,-0.001,-0.001,0.0
2025-11-06 18:37:06.522,282.83,-0.017,-0.001,0.0,-0.10200000000000001,-0.988,-0.043000000000000003,62.52,-10.46,-75.94,-0.4499,0.48450000000000004,0.49470000000000003,0.5638000000000001,0.001,-0.005,0.002
2025-11-06 18:37:06.522,282.835,-0.015,0.0,0.0,-0.10300000000000001,-0.989,-0.041,62.050000000000004,-10.66,-75.82000000000001,-0.4499,0.48460000000000003,0.49460000000000004,0.5639000000000001,0.002,-0.004,0.0
2025-11-06 18:37:06.522,282.84,-0.011,0.003,0.002,-0.105,-0.988,-0.043000000000000003,62.050000000000004,-10.66,-75.82000000000001,-0.4499,0.4847,0.4943,0.5640000000000001,0.003,-0.005,0.002
2025-11-06 18:37:06.522,282.845,-0.01,0.004,0.005,-0.108,-0.989,-0.041,62.050000000000004,-10.66,-75.82000000000001,-0.44980000000000003,0.4849,0.49410000000000004,0.5641,0.005,-0.004,0.0
2025-11-06 18:37:06.522,282.85,-0.005,0.009000000000000001,0.003,-0.11,-0.991,-0.041,62.370000000000005,-10.69,-75.62,-0.44980000000000003,0.48510000000000003,0.4938,0.5642,0.007,-0.002,0.0
2025-11-06 18:37:06.522,282.855,-0.006,0.008,0.003,-0.111,-0.988,-0.041,62.370000000000005,-10.69,-75.62,-0.4496,0.4854,0.49350000000000005,0.5643,0.007,-0.004,0.0
2025-11-06 18:37:06.522,282.86,-0.005,0.01,0.005,-0.115,-0.989,-0.041,63.63,-10.870000000000001,-76.41,-0.4495,0.4857,0.4932,0.5644,0.01,-0.004,0.0
2025-11-06 18:37:06.522,282.865,-0.006,0.009000000000000001,0.003,-0.116,-0.99,-0.039,63.63,-10.870000000000001,-76.41,-0.44930000000000003,0.4862,0.4928,0.5645,0.01,-0.003,-0.002
2025-11-06 18:37:06.522,282.87,-0.006,0.009000000000000001,0.006,-0.116,-0.99,-0.039,62.370000000000005,-10.64,-76.38,-0.4491,0.48650000000000004,0.49250000000000005,0.5646,0.01,-0.003,-0.001
2025-11-06 18:37:06.522,282.875,-0.003,0.012,0.0,-0.117,-0.99,-0.038,62.370000000000005,-10.64,-76.38,-0.4489,0.4869,0.4922,0.5647,0.009000000000000001,-0.003,-0.003
2025-11-06 18:37:06.522,282.88,-0.002,0.02,0.002,-0.11800000000000001,-0.991,-0.035,62.370000000000005,-10.64,-76.38,-0.44870000000000004,0.4874,0.49200000000000005,0.5647,0.009000000000000001,-0.001,-0.004
2025-11-06 18:37:06.522,282.885,-0.003,0.024,0.003,-0.116,-0.99,-0.036000000000000004,62.370000000000005,-10.870000000000001,-76.43,-0.4485,0.4877,0.4919,0.5647,0.007,-0.002,-0.003
2025-11-06 18:37:06.522,282.89,0.001,0.026000000000000002,0.0,-0.115,-0.991,-0.035,62.370000000000005,-10.870000000000001,-76.43,-0.44830000000000003,0.48800000000000004,0.4918,0.5646,0.005,-0.001,-0.004
2025-11-06 18:37:06.522,282.895,0.004,0.034,0.001,-0.113,-0.992,-0.033,62.75,-10.55,-75.59,-0.44820000000000004,0.4882,0.4918,0.5645,0.003,0.0,-0.005
2025-11-06 18:37:06.522,282.9,0.007,0.041,0.0,-0.112,-0.991,-0.034,62.75,-10.55,-75.59,-0.448,0.4884,0.4919,0.5645,0.002,-0.001,-0.004
2025-11-06 18:37:06.522,282.905,0.007,0.043000000000000003,-0.001,-0.112,-0.991,-0.037,62.75,-10.55,-75.59,-0.4479,0.4884,0.4919,0.5645,0.001,-0.001,-0.001
2025-11-06 18:37:06.522,282.91,0.004,0.04,-0.002,-0.112,-0.992,-0.038,62.26,-10.99,-76.05,-0.44780000000000003,0.4884,0.4919,0.5646,0.001,0.0,0.0
2025-11-06 18:37:06.522,282.915,0.0,0.04,-0.003,-0.108,-0.992,-0.037,62.26,-10.99,-76.05,-0.44780000000000003,0.4883,0.49210000000000004,0.5645,-0.002,0.0,-0.001
2025-11-06 18:37:06.522,282.92,0.002,0.032,-0.002,-0.105,-0.99,-0.036000000000000004,62.35,-10.9,-76.43,-0.44780000000000003,0.4882,0.4923,0.5644,-0.004,-0.002,-0.002
2025-11-06 18:37:06.522,282.925,0.0,0.03,-0.001,-0.10300000000000001,-0.991,-0.034,62.35,-10.9,-76.43,-0.4479,0.48810000000000003,0.49250000000000005,0.5643,-0.006,-0.002,-0.003
2025-11-06 18:37:06.522,282.96,-0.008,0.037,-0.001,-0.11,-0.988,-0.045,62.32,-10.75,-75.73,-0.44820000000000004,0.48710000000000003,0.4929,0.5645,0.002,-0.005,0.006
2025-11-06 18:37:06.522,282.965,-0.001,0.047,-0.002,-0.111,-0.987,-0.048,62.11,-10.75,-76.99,-0.44820000000000004,0.4869,0.4927,0.5649000000000001,0.003,-0.005,0.008
2025-11-06 18:37:06.522,282.97,0.002,0.051000000000000004,-0.002,-0.112,-0.988,-0.047,62.11,-10.75,-76.99,-0.44820000000000004,0.4868,0.49250000000000005,0.5652,0.003,-0.004,0.006
2025-11-06 18:37:06.522,282.975,0.007,0.057,-0.002,-0.113,-0.989,-0.047,62.11,-10.75,-76.99,-0.4481,0.4867,0.4923,0.5655,0.004,-0.003,0.006
2025-11-06 18:37:06.522,282.98,0.01,0.055,-0.004,-0.112,-0.99,-0.047,62.4,-10.61,-76.17,-0.448,0.48650000000000004,0.4922,0.5658000000000001,0.003,-0.002,0.005
2025-11-06 18:37:06.522,282.985,0.012,0.053,-0.003,-0.111,-0.989,-0.044,62.4,-10.61,-76.17,-0.4479,0.48650000000000004,0.4922,0.5659000000000001,0.002,-0.003,0.002
2025-11-06 18:37:06.522,282.99,0.016,0.047,-0.002,-0.111,-0.991,-0.044,62.26,-10.78,-76.64,-0.44780000000000003,0.4864,0.49210000000000004,0.5661,0.001,-0.001,0.001
2025-11-06 18:37:06.522,282.995,0.016,0.044,-0.001,-0.109,-0.992,-0.043000000000000003,62.26,-10.78,-76.64,-0.44780000000000003,0.4863,0.4922,0.5661,0.0,0.0,0.001
2025-11-06 18:37:06.522,283.0,0.017,0.04,-0.002,-0.11,-0.992,-0.042,62.26,-10.78,-76.64,-0.44770000000000004,0.4863,0.4922,0.5662,0.0,0.0,0.0
2025-11-06 18:37:06.522,283.005,0.016,0.033,-0.001,-0.11,-0.992,-0.042,62.52,-10.23,-76.73,-0.44770000000000004,0.4863,0.4923,0.5662,0.0,0.0,0.0
2025-11-06 18:37:06.522,283.01,0.013000000000000001,0.035,0.0,-0.109,-0.991,-0.04,62.52,-10.23,-76.73,-0.4476,0.4863,0.4924,0.5662,0.0,-0.001,-0.001
2025-11-06 18:37:06.522,283.015,0.013000000000000001,0.033,0.0,-0.107,-0.991,-0.039,62.43,-10.28,-76.0,-0.4475,0.4862,0.49250000000000005,0.5661,-0.001,-0.001,-0.001
2025-11-06 18:37:06.522,283.02,0.008,0.031,0.001,-0.107,-0.991,-0.039,62.43,-10.28,-76.0,-0.4475,0.4862,0.4927,0.5661,-0.002,-0.001,-0.002
2025-11-06 18:37:06.522,283.025,0.007,0.031,0.0,-0.107,-0.99,-0.038,61.97,-10.61,-76.08,-0.4474,0.4862,0.4928,0.5660000000000001,-0.001,-0.002,-0.003
2025-11-06 18:37:06.522,283.03,0.005,0.038,0.0,-0.106,-0.993,-0.036000000000000004,61.97,-10.61,-76.08,-0.44730000000000003,0.4862,0.49300000000000005,0.5659000000000001,-0.002,0.0,-0.004
2025-11-06 18:37:06.522,283.035,0.0,0.041,-0.002,-0.107,-0.993,-0.038,61.97,-10.61,-76.08,-0.44730000000000003,0.4862,0.4932,0.5658000000000001,-0.001,0.0,-0.002
2025-11-06 18:37:06.522,283.04,-0.002,0.043000000000000003,0.0,-0.106,-0.994,-0.039,62.08,-10.72,-76.46000000000001,-0.44730000000000003,0.48610000000000003,0.4933,0.5658000000000001,-0.001,0.001,-0.001
2025-11-06 18:37:06.522,283.045,-0.002,0.048,0.0,-0.106,-0.996,-0.041,62.08,-10.72,-76.46000000000001,-0.44730000000000003,0.4859,0.4934,0.5658000000000001,-0.001,0.002,0.001
2025-11-06 18:37:06.523,283.05,-0.005,0.053,0.0,-0.106,-0.994,-0.043000000000000003,62.26,-10.4,-76.17,-0.44730000000000003,0.4858,0.4934,0.5659000000000001,-0.001,0.001,0.002
2025-11-06 18:37:06.523,283.055,-0.005,0.052000000000000005,0.0,-0.107,-0.995,-0.044,62.26,-10.4,-76.17,-0.44730000000000003,0.48560000000000003,0.4934,0.5661,-0.001,0.001,0.003
2025-11-06 18:37:06.523,283.06,-0.001,0.053,0.0,-0.105,-0.995,-0.043000000000000003,62.26,-10.4,-76.17,-0.4474,0.4854,0.49350000000000005,0.5661,-0.002,0.002,0.002
2025-11-06 18:37:06.523,283.065,-0.001,0.051000000000000004,0.0,-0.10400000000000001,-0.995,-0.043000000000000003,61.97,-10.55,-76.14,-0.4474,0.48510000000000003,0.49360000000000004,0.5662,-0.003,0.001,0.002
2025-11-06 18:37:06.523,283.07,0.0,0.05,0.0,-0.099,-0.995,-0.043000000000000003,61.97,-10.55,-76.14,-0.4476,0.4848,0.4938,0.5662,-0.007,0.002,0.001
2025-11-06 18:37:06.523,283.075,0.001,0.048,0.0,-0.099,-0.993,-0.041,63.08,-10.75,-76.52,-0.44770000000000004,0.48460000000000003,0.49410000000000004,0.5661,-0.006,0.0,0.0
2025-11-06 18:37:06.523,283.105,0.011,0.023,0.0,-0.098,-0.989,-0.034,61.67,-10.66,-75.76,-0.44770000000000004,0.4839,0.49560000000000004,0.5653,-0.004,-0.004,-0.005
2025-11-06 18:37:06.523,283.11,0.011,0.019,0.0,-0.1,-0.989,-0.031,62.230000000000004,-10.43,-75.88,-0.4476,0.48400000000000004,0.4959,0.5651,-0.002,-0.004,-0.008
2025-11-06 18:37:06.523,283.115,0.011,0.013000000000000001,0.0,-0.099,-0.988,-0.03,62.230000000000004,-10.43,-75.88,-0.4474,0.48410000000000003,0.4963,0.5648000000000001,-0.003,-0.005,-0.008
2025-11-06 18:37:06.523,283.12,0.009000000000000001,0.01,0.0,-0.098,-0.992,-0.027,62.230000000000004,-10.43,-75.88,-0.44720000000000004,0.4842,0.49670000000000003,0.5645,-0.004,-0.002,-0.01
2025-11-06 18:37:06.523,283.125,0.007,0.015,-0.002,-0.099,-0.992,-0.028,62.17,-10.46,-75.32000000000001,-0.4471,0.4843,0.497,0.5643,-0.002,-0.001,-0.008
2025-11-06 18:37:06.523,283.13,0.001,0.013000000000000001,-0.005,-0.099,-0.993,-0.028,62.17,-10.46,-75.32000000000001,-0.4469,0.4844,0.4973,0.5641,-0.002,-0.001,-0.007
2025-11-06 18:37:06.523,283.135,0.0,0.018000000000000002,-0.007,-0.101,-0.993,-0.03,62.2,-10.69,-75.82000000000001,-0.44680000000000003,0.4844,0.4974,0.5640000000000001,0.0,0.0,-0.004
2025-11-06 18:37:06.523,283.14,-0.002,0.023,-0.006,-0.101,-0.994,-0.033,62.2,-10.69,-75.82000000000001,-0.44680000000000003,0.4844,0.4975,0.5639000000000001,0.0,0.0,-0.001
2025-11-06 18:37:06.523,283.145,-0.006,0.026000000000000002,-0.006,-0.1,-0.994,-0.037,61.940000000000005,-10.9,-75.79,-0.4469,0.4843,0.4975,0.5640000000000001,-0.001,0.0,0.002
2025-11-06 18:37:06.523,283.15,-0.008,0.031,-0.006,-0.099,-0.994,-0.041,61.940000000000005,-10.9,-75.79,-0.447,0.48400000000000004,0.4974,0.5641,-0.002,0.0,0.005
2025-11-06 18:37:06.523,283.155,-0.006,0.029,-0.007,-0.099,-0.995,-0.041,61.940000000000005,-10.9,-75.79,-0.44720000000000004,0.4838,0.4974,0.5642,-0.002,0.001,0.005
2025-11-06 18:37:06.523,283.16,-0.009000000000000001,0.024,-0.005,-0.098,-0.997,-0.043000000000000003,62.550000000000004,-10.870000000000001,-75.41,-0.4474,0.48360000000000003,0.4973,0.5643,-0.002,0.003,0.005
2025-11-06 18:37:06.523,283.165,-0.007,0.021,-0.003,-0.097,-0.995,-0.044,62.550000000000004,-10.870000000000001,-75.41,-0.4476,0.4834,0.49720000000000003,0.5644,-0.003,0.001,0.006
2025-11-06 18:37:06.523,283.17,-0.009000000000000001,0.017,-0.002,-0.098,-0.996,-0.045,62.08,-10.49,-75.09,-0.44780000000000003,0.4832,0.49710000000000004,0.5646,-0.001,0.001,0.006
2025-11-06 18:37:06.523,283.175,-0.006,0.012,-0.001,-0.097,-0.994,-0.047,62.08,-10.49,-75.09,-0.4481,0.4829,0.4969,0.5647,-0.002,0.0,0.008
2025-11-06 18:37:06.523,283.18,-0.003,0.011,0.0,-0.097,-0.994,-0.049,62.08,-10.49,-75.09,-0.4484,0.48260000000000003,0.49670000000000003,0.5649000000000001,-0.002,0.0,0.009000000000000001
2025-11-06 18:37:06.523,283.185,-0.002,0.007,0.002,-0.099,-0.993,-0.048,62.43,-10.75,-75.32000000000001,-0.4485,0.48250000000000004,0.4965,0.5651,0.0,0.0,0.006
2025-11-06 18:37:06.523,283.19,0.002,0.006,0.003,-0.1,-0.992,-0.046,62.43,-10.75,-75.32000000000001,-0.4486,0.4824,0.4964,0.5652,0.0,-0.001,0.004
2025-11-06 18:37:06.523,283.195,0.005,-0.001,0.001,-0.1,-0.991,-0.044,62.550000000000004,-10.96,-75.76,-0.4486,0.4824,0.4963,0.5653,0.0,-0.002,0.002
2025-11-06 18:37:06.523,283.2,0.008,-0.003,0.003,-0.10200000000000001,-0.992,-0.042,62.550000000000004,-10.96,-75.76,-0.4486,0.4824,0.49620000000000003,0.5653,0.002,-0.002,0.001
2025-11-06 18:37:06.523,283.205,0.009000000000000001,-0.007,0.001,-0.10200000000000001,-0.991,-0.042,63.02,-11.13,-75.65,-0.4486,0.48250000000000004,0.49610000000000004,0.5654,0.001,-0.002,0.0
2025-11-06 18:37:06.523,283.21,0.007,-0.006,0.0,-0.10200000000000001,-0.989,-0.04,63.02,-11.13,-75.65,-0.4485,0.48260000000000003,0.49610000000000004,0.5654,0.001,-0.004,-0.001
2025-11-06 18:37:06.523,283.215,0.004,-0.012,0.001,-0.10200000000000001,-0.99,-0.04,63.02,-11.13,-75.65,-0.4484,0.4827,0.49610000000000004,0.5653,0.001,-0.003,-0.001
2025-11-06 18:37:06.523,283.26,0.001,-0.011,0.0,-0.097,-0.992,-0.041,61.99,-10.49,-75.41,-0.44870000000000004,0.4829,0.49620000000000003,0.5649000000000001,-0.002,-0.001,0.0
2025-11-06 18:37:06.523,283.265,0.002,-0.007,0.001,-0.099,-0.993,-0.042,61.910000000000004,-10.26,-74.94,-0.44880000000000003,0.4828,0.49610000000000004,0.5649000000000001,0.0,0.0,0.001
2025-11-06 18:37:06.523,283.27,0.005,-0.011,0.003,-0.101,-0.991,-0.042,61.910000000000004,-10.26,-74.94,-0.44880000000000003,0.4829,0.49610000000000004,0.5649000000000001,0.0,-0.002,0.0
2025-11-06 18:37:06.523,283.275,0.005,-0.011,0.001,-0.10200000000000001,-0.992,-0.041,61.910000000000004,-10.26,-74.94,-0.44880000000000003,0.4829,0.496,0.5649000000000001,0.002,-0.001,0.0
2025-11-06 18:37:06.523,283.28,0.007,-0.011,0.001,-0.10400000000000001,-0.993,-0.041,63.870000000000005,-11.040000000000001,-74.74,-0.44870000000000004,0.48300000000000004,0.4959,0.5650000000000001,0.003,-0.001,0.0
2025-11-06 18:37:06.523,283.285,0.005,-0.007,0.0,-0.105,-0.992,-0.043000000000000003,63.870000000000005,-11.040000000000001,-74.74,-0.4486,0.48310000000000003,0.4958,0.5651,0.004,-0.001,0.002
2025-11-06 18:37:06.523,283.29,0.002,-0.007,0.0,-0.107,-0.991,-0.042,62.230000000000004,-10.93,-75.85000000000001,-0.4485,0.4833,0.49560000000000004,0.5652,0.006,-0.002,0.0
2025-11-06 18:37:06.523,283.295,0.0,-0.007,-0.001,-0.108,-0.991,-0.042,62.230000000000004,-10.93,-75.85000000000001,-0.4484,0.4834,0.4954,0.5654,0.006,-0.002,0.0
2025-11-06 18:37:06.523,283.3,-0.002,-0.009000000000000001,-0.001,-0.109,-0.989,-0.041,61.76,-10.93,-75.41,-0.44820000000000004,0.48360000000000003,0.49520000000000003,0.5655,0.006,-0.003,0.0
2025-11-06 18:37:06.523,283.305,-0.003,-0.007,-0.004,-0.109,-0.991,-0.041,61.76,-11.13,-75.41,-0.4481,0.4838,0.49510000000000004,0.5656,0.006,-0.002,0.0
2025-11-06 18:37:06.523,283.31,-0.005,-0.004,-0.001,-0.108,-0.99,-0.041,61.76,-11.13,-75.41,-0.448,0.4839,0.4949,0.5657,0.004,-0.002,0.0
2025-11-06 18:37:06.523,283.315,-0.005,-0.005,-0.002,-0.108,-0.992,-0.04,62.35,-11.370000000000001,-75.24,-0.4479,0.48400000000000004,0.4948,0.5658000000000001,0.003,0.0,0.0
2025-11-06 18:37:06.523,283.32,-0.008,-0.003,-0.002,-0.107,-0.991,-0.041,62.35,-11.370000000000001,-75.24,-0.44780000000000003,0.48410000000000003,0.49470000000000003,0.5658000000000001,0.003,-0.001,0.0
2025-11-06 18:37:06.523,283.325,-0.006,-0.004,-0.002,-0.107,-0.991,-0.043000000000000003,63.050000000000004,-10.870000000000001,-75.56,-0.44780000000000003,0.48410000000000003,0.49460000000000004,0.5659000000000001,0.002,-0.002,0.001
2025-11-06 18:37:06.524,283.33,-0.006,-0.001,-0.002,-0.106,-0.992,-0.042,63.050000000000004,-10.870000000000001,-75.56,-0.44780000000000003,0.48410000000000003,0.49460000000000004,0.5660000000000001,0.001,-0.001,0.0
2025-11-06 18:37:06.524,283.335,-0.005,-0.004,0.002,-0.106,-0.991,-0.042,63.050000000000004,-10.870000000000001,-75.56,-0.44780000000000003,0.48410000000000003,0.49450000000000005,0.5660000000000001,0.001,-0.002,0.0
2025-11-06 18:37:06.524,283.34,-0.006,0.0,0.002,-0.106,-0.992,-0.044,63.13,-10.870000000000001,-75.7,-0.44780000000000003,0.48410000000000003,0.4944,0.5661,0.001,0.0,0.002
2025-11-06 18:37:06.524,283.345,-0.003,-0.003,0.001,-0.108,-0.993,-0.042,63.13,-10.870000000000001,-75.7,-0.44770000000000004,0.4842,0.4943,0.5662,0.002,0.0,0.0
2025-11-06 18:37:06.524,283.35,0.0,-0.003,0.002,-0.107,-0.991,-0.041,62.02,-10.84,-75.56,-0.44770000000000004,0.4842,0.4943,0.5662,0.001,-0.001,0.0
2025-11-06 18:37:06.524,283.355,0.002,-0.006,0.003,-0.107,-0.992,-0.038,62.02,-10.84,-75.56,-0.4476,0.4844,0.4943,0.5661,0.001,-0.001,-0.003
2025-11-06 18:37:06.524,283.36,0.004,-0.007,0.003,-0.107,-0.992,-0.034,62.2,-10.78,-75.12,-0.4474,0.48460000000000003,0.4944,0.5660000000000001,0.001,-0.001,-0.006
2025-11-06 18:37:06.524,283.365,0.006,-0.003,0.001,-0.108,-0.991,-0.031,62.2,-10.78,-75.12,-0.44720000000000004,0.4849,0.49450000000000005,0.5658000000000001,0.002,-0.002,-0.009000000000000001
2025-11-06 18:37:06.525,283.37,0.007,0.001,0.001,-0.106,-0.991,-0.029,62.2,-10.78,-75.12,-0.447,0.4852,0.49470000000000003,0.5655,0.0,-0.002,-0.009000000000000001
2025-11-06 18:37:06.525,283.375,0.005,0.006,0.001,-0.107,-0.991,-0.029,62.32,-11.19,-75.56,-0.44680000000000003,0.4854,0.4949,0.5653,0.0,-0.002,-0.008
2025-11-06 18:37:06.525,283.38,0.003,0.008,0.001,-0.108,-0.991,-0.03,62.32,-11.19,-75.56,-0.4466,0.4857,0.49510000000000004,0.5651,0.001,-0.002,-0.007
2025-11-06 18:37:06.525,283.385,0.002,0.009000000000000001,0.001,-0.109,-0.989,-0.03,62.35,-10.55,-75.62,-0.4464,0.4859,0.49510000000000004,0.5650000000000001,0.002,-0.004,-0.006
2025-11-06 18:37:06.525,283.39,-0.002,0.007,0.001,-0.106,-0.99,-0.032,62.35,-10.55,-75.62,-0.44630000000000003,0.48600000000000004,0.49520000000000003,0.5649000000000001,0.0,-0.002,-0.004
2025-11-06 18:37:06.525,283.395,-0.002,0.006,0.002,-0.108,-0.992,-0.033,62.35,-10.55,-75.62,-0.44620000000000004,0.48610000000000003,0.4953,0.5649000000000001,0.001,0.0,-0.002
2025-11-06 18:37:06.525,283.4,-0.004,0.004,0.001,-0.108,-0.99,-0.036000000000000004,62.26,-10.66,-74.94,-0.44620000000000004,0.48610000000000003,0.49520000000000003,0.5649000000000001,0.001,-0.002,0.0
2025-11-06 18:37:06.525,283.405,-0.005,0.004,0.002,-0.108,-0.992,-0.036000000000000004,62.26,-10.66,-74.94,-0.4461,0.4862,0.49520000000000003,0.5650000000000001,0.001,-0.001,0.0
2025-11-06 18:37:06.525,283.41,-0.003,0.001,0.001,-0.109,-0.99,-0.036000000000000004,62.14,-10.84,-75.24,-0.4461,0.4862,0.49520000000000003,0.5650000000000001,0.001,-0.002,0.0
2025-11-06 18:37:06.525,283.415,0.0,0.003,0.001,-0.109,-0.991,-0.036000000000000004,62.14,-10.84,-75.24,-0.446,0.4863,0.49510000000000004,0.5650000000000001,0.001,-0.002,0.0
2025-11-06 18:37:06.525,283.42,-0.001,0.003,0.001,-0.109,-0.991,-0.036000000000000004,62.11,-11.02,-75.27,-0.4459,0.4863,0.49510000000000004,0.5651,0.001,-0.001,0.0
2025-11-06 18:37:06.525,283.425,-0.001,0.006,0.001,-0.11,-0.991,-0.036000000000000004,62.11,-11.02,-75.27,-0.4459,0.4864,0.49510000000000004,0.5651,0.001,-0.001,0.0
2025-11-06 18:37:06.525,283.43,-0.002,0.006,0.0,-0.106,-0.991,-0.038,62.11,-11.02,-75.27,-0.4459,0.4863,0.49510000000000004,0.5652,-0.001,-0.001,0.001
2025-11-06 18:37:06.525,283.435,0.0,-0.001,0.003,-0.106,-0.993,-0.036000000000000004,62.43,-10.26,-75.0,-0.446,0.4862,0.49510000000000004,0.5651,-0.001,0.0,0.0
2025-11-06 18:37:06.525,283.44,-0.001,-0.004,0.0,-0.10400000000000001,-0.992,-0.04,62.43,-10.26,-75.0,-0.4461,0.48610000000000003,0.49510000000000004,0.5651,-0.003,0.0,0.003
2025-11-06 18:37:06.525,283.445,-0.002,-0.009000000000000001,0.0,-0.10400000000000001,-0.994,-0.04,61.79,-11.34,-74.86,-0.44630000000000003,0.48600000000000004,0.49510000000000004,0.5651,-0.003,0.0,0.003
2025-11-06 18:37:06.525,283.45,-0.002,-0.009000000000000001,0.0,-0.101,-0.993,-0.04,61.79,-11.34,-74.86,-0.4465,0.4858,0.49510000000000004,0.5651,-0.005,0.0,0.002
2025-11-06 18:37:06.525,283.455,-0.003,-0.012,0.0,-0.1,-0.994,-0.038,61.79,-11.34,-74.86,-0.44670000000000004,0.48560000000000003,0.49520000000000003,0.5649000000000001,-0.006,0.0,0.0
2025-11-06 18:37:06.525,283.46,-0.005,-0.011,0.0,-0.098,-0.995,-0.037,62.2,-10.64,-74.8,-0.4469,0.48550000000000004,0.4954,0.5648000000000001,-0.007,0.001,0.0
2025-11-06 18:37:06.525,283.465,-0.005,-0.003,-0.001,-0.097,-0.993,-0.036000000000000004,62.2,-10.64,-74.8,-0.4471,0.4853,0.49560000000000004,0.5646,-0.007,0.0,-0.001
2025-11-06 18:37:06.525,283.47,-0.003,-0.002,-0.002,-0.097,-0.993,-0.034,61.940000000000005,-10.370000000000001,-75.32000000000001,-0.44720000000000004,0.4852,0.4958,0.5644,-0.006,0.0,-0.002
2025-11-06 18:37:06.525,283.475,-0.002,0.0,-0.003,-0.097,-0.991,-0.032,61.940000000000005,-10.370000000000001,-75.32000000000001,-0.44730000000000003,0.4852,0.496,0.5641,-0.006,-0.002,-0.004
2025-11-06 18:37:06.525,283.48,0.001,0.005,-0.001,-0.098,-0.992,-0.029,62.32,-11.040000000000001,-74.86,-0.44730000000000003,0.4852,0.4963,0.5639000000000001,-0.004,-0.001,-0.007
2025-11-06 18:37:06.525,283.485,0.002,0.009000000000000001,-0.002,-0.099,-0.992,-0.029,62.32,-11.040000000000001,-74.86,-0.44720000000000004,0.4853,0.49660000000000004,0.5636,-0.003,-0.001,-0.006
2025-11-06 18:37:06.525,283.49,0.001,0.011,-0.003,-0.101,-0.992,-0.029,62.32,-11.040000000000001,-74.86,-0.4471,0.4854,0.4968,0.5635,-0.001,-0.001,-0.005
2025-11-06 18:37:06.526,283.495,0.002,0.005,-0.003,-0.101,-0.994,-0.03,62.2,-11.34,-75.53,-0.447,0.4854,0.4969,0.5634,0.0,0.0,-0.004
2025-11-06 18:37:06.526,283.5,-0.003,0.003,-0.001,-0.10200000000000001,-0.994,-0.032,62.2,-11.34,-75.53,-0.447,0.48550000000000004,0.497,0.5633,0.0,0.0,-0.002
2025-11-06 18:37:06.526,283.505,-0.009000000000000001,-0.002,-0.002,-0.105,-0.993,-0.037,62.17,-11.040000000000001,-75.03,-0.447,0.48550000000000004,0.4969,0.5635,0.002,0.0,0.002
2025-11-06 18:37:06.526,283.51,-0.009000000000000001,-0.006,-0.001,-0.10400000000000001,-0.992,-0.04,62.17,-11.040000000000001,-75.03,-0.4471,0.4854,0.49670000000000003,0.5636,0.001,-0.001,0.005
2025-11-06 18:37:06.526,283.515,-0.011,-0.009000000000000001,-0.002,-0.10200000000000001,-0.993,-0.042,62.17,-11.040000000000001,-75.03,-0.44720000000000004,0.4852,0.4965,0.5638000000000001,0.0,0.0,0.006
2025-11-06 18:37:06.526,283.52,-0.012,-0.012,-0.001,-0.10300000000000001,-0.993,-0.044,62.02,-10.81,-75.47,-0.4474,0.48510000000000003,0.49620000000000003,0.5640000000000001,0.0,0.0,0.008
2025-11-06 18:37:06.526,283.525,-0.016,-0.014,0.0,-0.10400000000000001,-0.992,-0.043000000000000003,62.02,-10.81,-75.47,-0.4476,0.4849,0.496,0.5642,0.001,-0.001,0.006
2025-11-06 18:37:06.526,283.53,-0.012,-0.014,-0.001,-0.10300000000000001,-0.993,-0.043000000000000003,62.7,-11.040000000000001,-75.88,-0.44770000000000004,0.4848,0.4958,0.5643,0.0,0.0,0.005
2025-11-06 18:37:06.526,283.535,-0.008,-0.015,0.0,-0.10300000000000001,-0.992,-0.041,62.7,-11.040000000000001,-75.88,-0.44780000000000003,0.4848,0.49570000000000003,0.5644,0.0,-0.001,0.003
2025-11-06 18:37:06.526,283.54,-0.005,-0.007,-0.001,-0.105,-0.992,-0.04,61.940000000000005,-10.93,-75.41,-0.44780000000000003,0.4848,0.49560000000000004,0.5645,0.001,-0.001,0.001
2025-11-06 18:37:06.526,283.545,0.0,-0.003,0.0,-0.10300000000000001,-0.99,-0.037,61.940000000000005,-10.93,-75.41,-0.44780000000000003,0.4848,0.49560000000000004,0.5645,0.0,-0.003,0.0
2025-11-06 18:37:06.526,283.55,-0.002,-0.004,-0.002,-0.10400000000000001,-0.989,-0.035,61.940000000000005,-10.93,-75.41,-0.44780000000000003,0.4849,0.49560000000000004,0.5644,0.0,-0.004,-0.002
2025-11-06 18:37:06.526,283.555,0.0,-0.003,-0.002,-0.105,-0.989,-0.035,61.88,-10.99,-75.09,-0.44770000000000004,0.48500000000000004,0.49560000000000004,0.5644,0.001,-0.004,-0.002
2025-11-06 18:37:06.528,283.56,0.002,-0.001,0.0,-0.105,-0.99,-0.034,61.88,-10.99,-75.09,-0.4475,0.48510000000000003,0.49570000000000003,0.5643,0.001,-0.003,-0.003
2025-11-06 18:37:06.528,283.565,0.002,-0.009000000000000001,0.0,-0.106,-0.991,-0.036000000000000004,63.22,-11.34,-75.35000000000001,-0.4474,0.4852,0.49560000000000004,0.5643,0.002,-0.002,-0.001
2025-11-06 18:37:06.528,283.57,-0.002,-0.022,0.002,-0.106,-0.991,-0.035,63.22,-11.34,-75.35000000000001,-0.4474,0.4854,0.49560000000000004,0.5643,0.002,-0.002,-0.001
2025-11-06 18:37:06.528,283.575,-0.002,-0.02,0.003,-0.107,-0.993,-0.036000000000000004,63.22,-11.34,-75.35000000000001,-0.44730000000000003,0.48550000000000004,0.4955,0.5644,0.002,0.0,0.0
2025-11-06 18:37:06.528,283.58,-0.003,-0.028,0.003,-0.107,-0.993,-0.037,62.29,-10.93,-75.59,-0.44730000000000003,0.48560000000000003,0.4954,0.5644,0.002,0.0,0.0
2025-11-06 18:37:06.528,283.585,-0.003,-0.025,0.002,-0.107,-0.993,-0.037,62.29,-10.93,-75.59,-0.44720000000000004,0.4857,0.4953,0.5644,0.002,0.0,0.0
2025-11-06 18:37:06.528,283.59,-0.004,-0.025,0.0,-0.107,-0.992,-0.041,62.370000000000005,-10.9,-75.12,-0.44730000000000003,0.4857,0.49510000000000004,0.5645,0.001,-0.001,0.003
2025-11-06 18:37:06.528,283.595,0.0,-0.022,0.001,-0.107,-0.99,-0.042,62.370000000000005,-10.9,-75.12,-0.44730000000000003,0.4857,0.4949,0.5647,0.002,-0.003,0.004
2025-11-06 18:37:06.528,283.6,0.002,-0.017,0.0,-0.106,-0.989,-0.042,63.25,-11.78,-75.65,-0.4474,0.48560000000000003,0.4948,0.5648000000000001,0.0,-0.004,0.004
2025-11-06 18:37:06.528,283.605,0.003,-0.014,-0.001,-0.105,-0.99,-0.043000000000000003,63.25,-11.78,-75.65,-0.4475,0.48550000000000004,0.49470000000000003,0.5649000000000001,0.0,-0.002,0.004
2025-11-06 18:37:06.528,283.61,0.005,-0.007,0.0,-0.106,-0.989,-0.042,63.25,-11.78,-75.65,-0.4475,0.48550000000000004,0.49460000000000004,0.5650000000000001,0.0,-0.003,0.003
2025-11-06 18:37:06.528,283.615,0.007,-0.001,-0.001,-0.106,-0.989,-0.038,62.370000000000005,-11.16,-75.38,-0.4475,0.48550000000000004,0.49460000000000004,0.5650000000000001,0.0,-0.003,0.0
2025-11-06 18:37:06.528,283.62,0.005,-0.003,-0.002,-0.105,-0.991,-0.035,62.370000000000005,-11.16,-75.38,-0.4474,0.48560000000000003,0.49470000000000003,0.5649000000000001,0.0,-0.001,-0.003
2025-11-06 18:37:06.528,283.625,0.003,-0.004,-0.003,-0.106,-0.993,-0.034,61.82,-10.46,-75.06,-0.4474,0.4857,0.49470000000000003,0.5648000000000001,0.0,0.0,-0.003
2025-11-06 18:37:06.528,283.63,0.001,-0.003,-0.002,-0.105,-0.994,-0.034,61.82,-10.46,-75.06,-0.44730000000000003,0.4858,0.4948,0.5647,0.0,0.001,-0.004
2025-11-06 18:37:06.528,283.635,-0.002,0.0,-0.002,-0.10300000000000001,-0.993,-0.035,62.08,-10.46,-75.73,-0.44730000000000003,0.4858,0.49500000000000005,0.5645,-0.002,0.0,-0.002
2025-11-06 18:37:06.528,283.64,-0.007,0.0,-0.003,-0.10200000000000001,-0.994,-0.035,62.08,-10.99,-75.73,-0.4474,0.4858,0.49510000000000004,0.5644,-0.003,0.0,-0.001
2025-11-06 18:37:06.528,283.645,-0.007,0.0,-0.001,-0.1,-0.995,-0.036000000000000004,62.08,-10.99,-75.73,-0.4475,0.4857,0.49520000000000003,0.5643,-0.004,0.001,0.0
2025-11-06 18:37:06.529,283.65,-0.01,0.007,-0.001,-0.1,-0.993,-0.038,63.4,-10.72,-76.32000000000001,-0.4476,0.48550000000000004,0.49520000000000003,0.5643,-0.004,0.0,0.001
2025-11-06 18:37:06.529,283.655,-0.01,0.01,-0.001,-0.1,-0.994,-0.042,63.4,-10.72,-76.32000000000001,-0.44780000000000003,0.4853,0.49520000000000003,0.5643,-0.003,0.0,0.003
2025-11-06 18:37:06.529,283.66,-0.007,0.025,-0.001,-0.099,-0.991,-0.044,61.99,-10.75,-75.44,-0.448,0.48500000000000004,0.49520000000000003,0.5644,-0.004,-0.002,0.005
2025-11-06 18:37:06.529,283.665,-0.006,0.026000000000000002,0.0,-0.1,-0.99,-0.044,61.99,-10.75,-75.44,-0.44820000000000004,0.4848,0.49520000000000003,0.5646,-0.002,-0.002,0.005
2025-11-06 18:37:06.529,283.67,-0.006,0.028,-0.001,-0.1,-0.99,-0.045,61.99,-10.75,-75.44,-0.44830000000000003,0.48460000000000003,0.49510000000000004,0.5647,-0.002,-0.003,0.005
2025-11-06 18:37:06.529,283.675,-0.002,0.028,-0.001,-0.101,-0.991,-0.045,62.02,-10.55,-75.62,-0.4484,0.4844,0.49500000000000005,0.5648000000000001,-0.002,-0.002,0.004
2025-11-06 18:37:06.529,283.68,-0.003,0.02,0.0,-0.10200000000000001,-0.993,-0.044,62.02,-10.55,-75.62,-0.4485,0.4842,0.49500000000000005,0.5649000000000001,0.0,0.0,0.003
2025-11-06 18:37:06.529,283.685,0.0,0.014,0.0,-0.10400000000000001,-0.994,-0.045,62.26,-10.69,-75.76,-0.4486,0.4842,0.4948,0.5651,0.001,0.0,0.004
2025-11-06 18:37:06.529,283.69,0.0,0.005,0.001,-0.10300000000000001,-0.993,-0.043000000000000003,62.26,-10.69,-75.76,-0.4486,0.48410000000000003,0.4948,0.5651,0.0,0.0,0.001
2025-11-06 18:37:06.529,283.695,0.0,0.0,0.001,-0.105,-0.994,-0.041,62.11,-10.75,-76.26,-0.4486,0.48410000000000003,0.4948,0.5652,0.001,0.0,0.0
2025-11-06 18:37:06.529,283.7,0.002,-0.004,0.002,-0.10400000000000001,-0.991,-0.042,62.11,-10.75,-76.26,-0.4485,0.4842,0.49470000000000003,0.5652,0.001,-0.002,0.0
2025-11-06 18:37:06.529,283.705,0.0,-0.011,0.002,-0.106,-0.989,-0.04,62.11,-10.75,-76.26,-0.4485,0.4843,0.49460000000000004,0.5652,0.002,-0.003,-0.001
2025-11-06 18:37:06.529,283.71,0.003,-0.015,0.004,-0.107,-0.99,-0.04,62.46,-10.84,-75.53,-0.4484,0.48450000000000004,0.49460000000000004,0.5652,0.003,-0.003,-0.001
2025-11-06 18:37:06.529,283.715,0.002,-0.016,0.003,-0.109,-0.989,-0.037,62.46,-10.84,-75.53,-0.44820000000000004,0.4847,0.49450000000000005,0.5652,0.004,-0.004,-0.003
2025-11-06 18:37:06.529,283.72,0.004,-0.011,0.001,-0.107,-0.988,-0.037,61.88,-10.4,-75.88,-0.4481,0.4849,0.49450000000000005,0.5652,0.002,-0.005,-0.003
2025-11-06 18:37:06.529,283.725,0.004,-0.013000000000000001,0.0,-0.108,-0.987,-0.036000000000000004,61.88,-10.4,-75.88,-0.4479,0.48510000000000003,0.4944,0.5652,0.003,-0.005,-0.004
2025-11-06 18:37:06.529,283.73,0.001,-0.01,-0.001,-0.107,-0.989,-0.036000000000000004,61.88,-10.4,-75.88,-0.44780000000000003,0.4852,0.4944,0.5651,0.002,-0.004,-0.003
2025-11-06 18:37:06.529,283.735,0.0,-0.004,-0.001,-0.107,-0.988,-0.037,61.82,-10.4,-75.15,-0.44770000000000004,0.4853,0.4944,0.5651,0.001,-0.005,-0.001
2025-11-06 18:37:06.529,283.74,-0.002,-0.006,-0.004,-0.107,-0.989,-0.038,61.82,-10.4,-75.15,-0.44770000000000004,0.4854,0.4944,0.5651,0.001,-0.004,-0.001
2025-11-06 18:37:06.529,283.745,-0.003,-0.006,-0.005,-0.106,-0.991,-0.038,61.910000000000004,-10.870000000000001,-75.59,-0.44770000000000004,0.4854,0.4944,0.5651,0.0,-0.002,0.0
2025-11-06 18:37:06.529,283.75,-0.008,-0.004,-0.006,-0.106,-0.991,-0.042,61.910000000000004,-10.870000000000001,-75.59,-0.44770000000000004,0.4854,0.4943,0.5652,0.0,-0.001,0.002
2025-11-06 18:37:06.529,283.755,-0.005,-0.004,-0.007,-0.10400000000000001,-0.993,-0.044,61.99,-10.72,-75.09,-0.4479,0.4852,0.49420000000000003,0.5652,-0.001,0.0,0.004
2025-11-06 18:37:06.529,283.76,-0.006,-0.003,-0.007,-0.105,-0.992,-0.042,61.99,-10.72,-75.09,-0.4479,0.4852,0.49420000000000003,0.5653,0.0,0.0,0.002
2025-11-06 18:37:06.529,283.765,-0.006,-0.001,-0.004,-0.106,-0.992,-0.046,61.99,-10.72,-75.09,-0.448,0.48510000000000003,0.49400000000000005,0.5654,0.0,0.0,0.005
2025-11-06 18:37:06.529,283.77,-0.005,0.003,-0.004,-0.107,-0.992,-0.047,61.7,-10.61,-75.62,-0.4481,0.4849,0.4939,0.5656,0.001,0.0,0.005
2025-11-06 18:37:06.529,283.775,-0.004,0.006,-0.005,-0.10400000000000001,-0.991,-0.047,61.7,-10.61,-75.62,-0.44820000000000004,0.4848,0.4938,0.5658000000000001,0.0,-0.002,0.005
2025-11-06 18:37:06.529,283.78,0.0,0.01,-0.003,-0.10400000000000001,-0.991,-0.047,61.940000000000005,-10.64,-75.47,-0.44830000000000003,0.48460000000000003,0.4937,0.5659000000000001,0.0,-0.002,0.005
2025-11-06 18:37:06.529,283.785,0.0,0.01,-0.002,-0.106,-0.99,-0.046,61.940000000000005,-10.64,-75.47,-0.4484,0.48450000000000004,0.49360000000000004,0.5660000000000001,0.0,-0.002,0.003
2025-11-06 18:37:06.529,283.79,0.002,0.012,-0.002,-0.106,-0.991,-0.044,61.940000000000005,-10.64,-75.47,-0.4484,0.48450000000000004,0.49360000000000004,0.5661,0.0,-0.001,0.001
2025-11-06 18:37:06.529,283.795,0.007,0.007,0.0,-0.107,-0.993,-0.041,63.08,-10.66,-75.29,-0.44830000000000003,0.48460000000000003,0.49360000000000004,0.5660000000000001,0.001,0.0,-0.001
2025-11-06 18:37:06.530,283.8,0.004,0.007,-0.001,-0.10400000000000001,-0.993,-0.041,63.08,-10.66,-75.29,-0.44830000000000003,0.48450000000000004,0.4937,0.5660000000000001,-0.001,0.0,-0.001
2025-11-06 18:37:06.530,283.805,0.005,0.004,-0.001,-0.10400000000000001,-0.991,-0.038,63.43,-11.28,-75.12,-0.44820000000000004,0.48460000000000003,0.4938,0.5659000000000001,-0.001,-0.002,-0.003
2025-11-06 18:37:06.530,283.81,0.004,-0.001,0.0,-0.10300000000000001,-0.991,-0.04,63.43,-11.28,-75.12,-0.44820000000000004,0.48460000000000003,0.4939,0.5658000000000001,-0.002,-0.001,-0.002
2025-11-06 18:37:06.530,283.815,0.003,0.0,0.0,-0.10300000000000001,-0.991,-0.039,62.230000000000004,-10.78,-75.15,-0.44820000000000004,0.48460000000000003,0.49400000000000005,0.5657,-0.001,-0.002,-0.002
2025-11-06 18:37:06.534,283.82,0.004,0.001,0.001,-0.10400000000000001,-0.989,-0.039,62.230000000000004,-10.78,-75.15,-0.44820000000000004,0.4847,0.49410000000000004,0.5656,-0.001,-0.003,-0.002
2025-11-06 18:37:06.534,283.825,0.005,0.004,0.0,-0.10400000000000001,-0.99,-0.04,62.230000000000004,-10.78,-75.15,-0.44820000000000004,0.4847,0.49410000000000004,0.5656,-0.001,-0.003,0.0
2025-11-06 18:37:06.534,283.83,0.007,0.005,-0.001,-0.106,-0.99,-0.038,62.64,-11.51,-75.79,-0.4481,0.4848,0.49420000000000003,0.5655,0.0,-0.003,-0.002
2025-11-06 18:37:06.534,283.835,0.011,0.01,-0.002,-0.106,-0.99,-0.038,62.64,-11.51,-75.79,-0.448,0.4848,0.49420000000000003,0.5655,0.001,-0.003,-0.002
2025-11-06 18:37:06.534,283.84,0.009000000000000001,0.01,-0.001,-0.106,-0.989,-0.036000000000000004,62.43,-11.42,-74.94,-0.44780000000000003,0.48500000000000004,0.4943,0.5654,0.0,-0.003,-0.003
2025-11-06 18:37:06.534,283.845,0.012,0.017,-0.002,-0.106,-0.989,-0.038,62.43,-11.42,-74.94,-0.44780000000000003,0.48500000000000004,0.4944,0.5654,0.0,-0.003,-0.002
2025-11-06 18:37:06.534,283.85,0.012,0.017,-0.001,-0.107,-0.99,-0.038,62.43,-11.42,-74.94,-0.4476,0.48510000000000003,0.4944,0.5654,0.002,-0.002,-0.001
2025-11-06 18:37:06.534,283.855,0.009000000000000001,0.017,-0.001,-0.107,-0.991,-0.037,62.02,-10.66,-75.5,-0.4475,0.4852,0.49450000000000005,0.5654,0.001,-0.001,-0.002
2025-11-06 18:37:06.534,283.86,0.008,0.01,-0.001,-0.106,-0.992,-0.038,62.02,-10.66,-75.5,-0.4474,0.4852,0.49450000000000005,0.5653,0.0,0.0,-0.001
2025-11-06 18:37:06.534,283.865,0.008,0.007,0.0,-0.106,-0.992,-0.037,62.050000000000004,-11.1,-75.97,-0.4474,0.4853,0.49460000000000004,0.5653,0.0,-0.001,-0.002
2025-11-06 18:37:06.534,283.87,0.006,0.003,-0.002,-0.10300000000000001,-0.992,-0.037,62.050000000000004,-11.1,-75.97,-0.4474,0.4853,0.49470000000000003,0.5652,-0.002,0.0,-0.001
2025-11-06 18:37:06.534,283.875,0.004,0.002,-0.002,-0.10300000000000001,-0.993,-0.039,62.32,-11.040000000000001,-75.73,-0.4475,0.4852,0.49470000000000003,0.5651,-0.002,0.0,0.0
2025-11-06 18:37:06.534,283.88,0.0,-0.001,-0.004,-0.101,-0.994,-0.04,62.32,-11.040000000000001,-75.73,-0.4476,0.48510000000000003,0.4948,0.5651,-0.003,0.0,0.0
2025-11-06 18:37:06.534,283.885,0.0,-0.001,-0.002,-0.099,-0.995,-0.039,62.32,-11.040000000000001,-75.73,-0.44770000000000004,0.48500000000000004,0.4949,0.5650000000000001,-0.005,0.001,0.0
2025-11-06 18:37:06.534,283.89,0.0,0.001,-0.002,-0.098,-0.994,-0.041,62.52,-10.870000000000001,-76.0,-0.4479,0.4848,0.49500000000000005,0.5649000000000001,-0.006,0.0,0.001
2025-11-06 18:37:06.534,283.895,-0.002,0.005,-0.003,-0.099,-0.993,-0.041,62.52,-10.870000000000001,-76.0,-0.4481,0.48460000000000003,0.49510000000000004,0.5648000000000001,-0.004,0.0,0.001
2025-11-06 18:37:06.534,283.9,0.0,0.01,-0.002,-0.098,-0.994,-0.041,62.370000000000005,-10.96,-75.5,-0.44820000000000004,0.4844,0.49520000000000003,0.5648000000000001,-0.004,0.0,0.001
2025-11-06 18:37:06.534,283.905,0.005,0.01,-0.002,-0.1,-0.992,-0.04,62.370000000000005,-10.96,-75.5,-0.44830000000000003,0.4844,0.49520000000000003,0.5648000000000001,-0.002,-0.001,0.0
2025-11-06 18:37:06.534,283.91,0.006,0.017,-0.002,-0.101,-0.991,-0.039,62.370000000000005,-10.96,-75.5,-0.44830000000000003,0.4843,0.4953,0.5647,-0.001,-0.002,-0.001
2025-11-06 18:37:06.534,283.915,0.01,0.018000000000000002,0.0,-0.1,-0.99,-0.035,62.29,-10.93,-75.97,-0.44820000000000004,0.4844,0.4955,0.5646,-0.002,-0.003,-0.004
2025-11-06 18:37:06.534,283.92,0.007,0.018000000000000002,-0.001,-0.10200000000000001,-0.99,-0.036000000000000004,62.29,-10.93,-75.97,-0.4481,0.4844,0.49560000000000004,0.5646,0.0,-0.003,-0.002
2025-11-06 18:37:06.534,283.925,0.007,0.015,-0.001,-0.10200000000000001,-0.992,-0.034,61.97,-11.19,-75.27,-0.448,0.48450000000000004,0.4958,0.5645,0.0,-0.001,-0.004
2025-11-06 18:37:06.534,283.93,0.005,0.01,0.0,-0.101,-0.993,-0.032,61.97,-11.19,-75.27,-0.4479,0.48460000000000003,0.496,0.5643,-0.001,0.0,-0.006
2025-11-06 18:37:06.534,283.935,0.001,0.0,0.0,-0.101,-0.995,-0.033,62.14,-11.07,-75.18,-0.44780000000000003,0.48460000000000003,0.49610000000000004,0.5642,-0.001,0.001,-0.003
2025-11-06 18:37:06.534,283.94,-0.004,-0.003,0.0,-0.101,-0.997,-0.036000000000000004,62.14,-11.07,-75.18,-0.44780000000000003,0.48460000000000003,0.49610000000000004,0.5641,0.0,0.003,-0.001
2025-11-06 18:37:06.534,283.945,-0.006,-0.009000000000000001,0.002,-0.1,-0.995,-0.039,62.14,-11.07,-75.18,-0.4479,0.48460000000000003,0.49610000000000004,0.5641,-0.001,0.001,0.001
2025-11-06 18:37:06.534,283.95,-0.01,-0.011,0.002,-0.101,-0.996,-0.041,62.230000000000004,-11.450000000000001,-75.53,-0.448,0.48450000000000004,0.496,0.5642,0.0,0.002,0.003
2025-11-06 18:37:06.534,283.955,-0.012,-0.015,0.002,-0.1,-0.994,-0.043000000000000003,62.230000000000004,-11.450000000000001,-75.53,-0.44820000000000004,0.4844,0.4959,0.5642,-0.002,0.0,0.004
2025-11-06 18:37:06.534,283.96,-0.01,-0.011,0.001,-0.1,-0.993,-0.045,62.61,-11.040000000000001,-76.11,-0.4484,0.4842,0.4958,0.5643,-0.001,0.0,0.005
2025-11-06 18:37:06.534,283.965,-0.007,-0.006,0.002,-0.101,-0.992,-0.043000000000000003,62.61,-11.040000000000001,-76.11,-0.4485,0.48410000000000003,0.49560000000000004,0.5644,0.0,-0.001,0.003
2025-11-06 18:37:06.534,283.97,-0.003,0.002,0.003,-0.1,-0.991,-0.043000000000000003,62.61,-11.040000000000001,-75.32000000000001,-0.4486,0.48400000000000004,0.49560000000000004,0.5645,-0.001,-0.002,0.003
2025-11-06 18:37:06.534,283.975,0.002,0.006,0.002,-0.101,-0.991,-0.04,61.940000000000005,-10.61,-75.32000000000001,-0.4486,0.48400000000000004,0.4955,0.5645,0.0,-0.002,0.0
2025-11-06 18:37:06.534,283.98,0.004,0.008,0.001,-0.10200000000000001,-0.992,-0.038,61.940000000000005,-10.61,-75.32000000000001,-0.4486,0.48400000000000004,0.49560000000000004,0.5645,0.0,-0.001,-0.001
2025-11-06 18:37:06.534,283.985,0.006,0.007,0.0,-0.10200000000000001,-0.993,-0.035,62.370000000000005,-10.93,-75.15,-0.4484,0.48410000000000003,0.49570000000000003,0.5644,0.0,0.0,-0.004
2025-11-06 18:37:06.534,283.99,0.005,0.006,0.0,-0.10200000000000001,-0.993,-0.033,62.370000000000005,-10.93,-75.15,-0.44830000000000003,0.4843,0.4959,0.5643,0.0,0.0,-0.005
2025-11-06 18:37:06.534,283.995,0.003,0.004,-0.001,-0.101,-0.991,-0.032,62.230000000000004,-10.84,-75.38,-0.44820000000000004,0.4844,0.496,0.5642,0.0,-0.002,-0.006
2025-11-06 18:37:06.534,284.0,0.0,0.006,0.0,-0.10200000000000001,-0.992,-0.03,62.230000000000004,-10.84,-75.38,-0.448,0.48460000000000003,0.49620000000000003,0.5640000000000001,0.0,-0.001,-0.007
2025-11-06 18:37:06.534,284.005,0.0,0.003,-0.001,-0.10300000000000001,-0.991,-0.029,62.230000000000004,-10.84,-75.38,-0.44780000000000003,0.4848,0.4964,0.5638000000000001,0.001,-0.002,-0.007
2025-11-06 18:37:06.535,284.01,0.0,0.006,0.0,-0.10300000000000001,-0.991,-0.028,62.17,-10.93,-75.47,-0.4475,0.48500000000000004,0.4965,0.5637,0.001,-0.002,-0.007
2025-11-06 18:37:06.535,284.015,-0.001,0.007,0.0,-0.10300000000000001,-0.992,-0.03,62.17,-10.93,-75.47,-0.4474,0.48510000000000003,0.49670000000000003,0.5636,0.001,-0.002,-0.005
2025-11-06 18:37:06.535,284.02,0.0,0.012,0.0,-0.105,-0.992,-0.033,62.02,-10.64,-74.62,-0.44720000000000004,0.4852,0.49670000000000003,0.5637,0.003,-0.001,-0.002
2025-11-06 18:37:06.535,284.025,-0.002,0.012,0.0,-0.105,-0.992,-0.033,62.02,-10.64,-74.62,-0.4471,0.4853,0.49670000000000003,0.5637,0.002,-0.002,-0.002
2025-11-06 18:37:06.535,284.03,-0.003,0.01,0.0,-0.107,-0.991,-0.034,63.050000000000004,-10.72,-74.68,-0.4469,0.4854,0.49660000000000004,0.5638000000000001,0.004,-0.002,-0.001
2025-11-06 18:37:06.535,284.035,-0.004,0.007,0.002,-0.107,-0.993,-0.036000000000000004,63.050000000000004,-10.72,-74.68,-0.44680000000000003,0.4854,0.4965,0.5639000000000001,0.004,0.0,0.001
2025-11-06 18:37:06.535,284.04,-0.005,0.007,0.001,-0.109,-0.991,-0.04,63.050000000000004,-10.72,-74.68,-0.44670000000000004,0.4854,0.4963,0.5642,0.004,-0.002,0.004
2025-11-06 18:37:06.535,284.045,-0.006,0.007,0.002,-0.109,-0.991,-0.044,62.52,-11.34,-74.71000000000001,-0.44680000000000003,0.4853,0.496,0.5645,0.004,-0.001,0.007
2025-11-06 18:37:06.535,284.05,-0.006,0.006,0.0,-0.108,-0.992,-0.046,62.52,-11.34,-74.71000000000001,-0.44680000000000003,0.4852,0.49570000000000003,0.5649000000000001,0.003,-0.001,0.008
2025-11-06 18:37:06.535,284.055,-0.008,0.005,0.001,-0.108,-0.994,-0.045,62.29,-11.040000000000001,-74.45,-0.4469,0.48500000000000004,0.4955,0.5651,0.003,0.0,0.007
2025-11-06 18:37:06.535,284.06,-0.008,0.002,0.003,-0.105,-0.994,-0.043000000000000003,62.29,-11.040000000000001,-74.45,-0.4469,0.4849,0.4953,0.5653,0.0,0.0,0.004
2025-11-06 18:37:06.535,284.065,-0.003,-0.004,0.0,-0.10200000000000001,-0.993,-0.04,62.29,-11.040000000000001,-74.45,-0.4471,0.4848,0.4954,0.5653,-0.002,0.0,0.001
2025-11-06 18:37:06.535,284.07,-0.003,-0.001,0.001,-0.10200000000000001,-0.995,-0.04,62.11,-10.78,-74.59,-0.4471,0.4847,0.4954,0.5653,-0.002,0.001,0.001
2025-11-06 18:37:06.535,284.075,-0.003,-0.003,0.0,-0.101,-0.994,-0.038,62.11,-10.78,-74.59,-0.44720000000000004,0.48460000000000003,0.4955,0.5652,-0.003,0.0,0.0
2025-11-06 18:37:06.535,284.08,-0.002,0.0,0.001,-0.101,-0.994,-0.035,62.43,-11.370000000000001,-75.32000000000001,-0.44720000000000004,0.4847,0.49560000000000004,0.5650000000000001,-0.002,0.0,-0.003
2025-11-06 18:37:06.535,284.085,-0.003,0.0,0.0,-0.099,-0.993,-0.031,62.43,-11.370000000000001,-75.32000000000001,-0.44720000000000004,0.4847,0.4959,0.5648000000000001,-0.004,0.0,-0.006
2025-11-06 18:37:06.535,284.09,-0.003,-0.001,0.0,-0.098,-0.994,-0.03,61.67,-10.96,-75.12,-0.44720000000000004,0.4847,0.49620000000000003,0.5645,-0.005,0.0,-0.007
2025-11-06 18:37:06.535,284.095,-0.005,-0.004,0.0,-0.096,-0.993,-0.03,61.67,-10.96,-75.12,-0.44730000000000003,0.4848,0.4964,0.5642,-0.006,0.0,-0.006
2025-11-06 18:37:06.535,284.1,-0.004,-0.005,0.001,-0.097,-0.994,-0.027,61.67,-10.96,-75.12,-0.44720000000000004,0.4848,0.4968,0.5639000000000001,-0.004,0.0,-0.009000000000000001
2025-11-06 18:37:06.535,284.105,-0.006,-0.004,0.0,-0.097,-0.995,-0.027,62.11,-10.69,-75.06,-0.44720000000000004,0.4849,0.497,0.5636,-0.004,0.001,-0.007
2025-11-06 18:37:06.535,284.11,-0.006,0.003,0.001,-0.098,-0.995,-0.028,62.11,-10.69,-75.06,-0.4471,0.48500000000000004,0.4973,0.5634,-0.002,0.001,-0.006
2025-11-06 18:37:06.535,284.115,-0.005,0.003,0.0,-0.099,-0.993,-0.029,61.7,-11.02,-74.53,-0.4471,0.48500000000000004,0.4974,0.5632,-0.001,0.0,-0.004
2025-11-06 18:37:06.535,284.12,-0.008,0.008,0.001,-0.1,-0.993,-0.032,61.7,-11.02,-74.53,-0.4471,0.48510000000000003,0.4975,0.5632,0.0,0.0,-0.002
2025-11-06 18:37:06.535,284.125,-0.008,0.012,0.001,-0.099,-0.992,-0.034,61.7,-11.02,-74.53,-0.4471,0.48500000000000004,0.4975,0.5632,-0.001,-0.002,0.0
2025-11-06 18:37:06.535,284.13,-0.005,0.02,0.0,-0.101,-0.992,-0.036000000000000004,62.08,-10.52,-74.68,-0.4471,0.4849,0.4975,0.5633,0.0,-0.001,0.002
2025-11-06 18:37:06.535,284.135,-0.005,0.023,0.001,-0.10200000000000001,-0.99,-0.038,62.08,-10.52,-74.68,-0.4471,0.4849,0.4974,0.5634,0.001,-0.003,0.003
2025-11-06 18:37:06.535,284.14,-0.003,0.029,0.001,-0.10200000000000001,-0.991,-0.036000000000000004,61.99,-10.66,-74.89,-0.4471,0.4848,0.4973,0.5635,0.0,-0.002,0.001
2025-11-06 18:37:06.535,284.145,-0.002,0.032,0.0,-0.10300000000000001,-0.991,-0.036000000000000004,61.99,-10.66,-74.89,-0.447,0.4848,0.4973,0.5636,0.001,-0.002,0.001
2025-11-06 18:37:06.536,284.15,-0.001,0.028,0.001,-0.10400000000000001,-0.99,-0.036000000000000004,63.160000000000004,-11.1,-75.21000000000001,-0.4469,0.4848,0.4973,0.5637,0.002,-0.003,0.0
2025-11-06 18:37:06.536,284.155,-0.002,0.024,0.001,-0.105,-0.992,-0.035,63.160000000000004,-11.1,-75.21000000000001,-0.44680000000000003,0.4848,0.49720000000000003,0.5638000000000001,0.003,-0.001,0.0
2025-11-06 18:37:06.536,284.16,-0.005,0.018000000000000002,0.0,-0.10400000000000001,-0.993,-0.037,63.160000000000004,-11.1,-75.21000000000001,-0.44680000000000003,0.4848,0.49710000000000004,0.5640000000000001,0.002,0.0,0.001
2025-11-06 18:37:06.536,284.165,-0.007,0.011,0.003,-0.10400000000000001,-0.992,-0.039,62.11,-10.99,-75.44,-0.44680000000000003,0.4847,0.497,0.5641,0.001,-0.002,0.004
2025-11-06 18:37:06.536,284.17,-0.008,0.009000000000000001,0.003,-0.10300000000000001,-0.991,-0.04,62.11,-10.99,-75.44,-0.4469,0.48460000000000003,0.4968,0.5643,0.0,-0.002,0.004
2025-11-06 18:37:06.536,284.175,-0.008,0.0,0.004,-0.10400000000000001,-0.99,-0.042,62.550000000000004,-10.55,-76.08,-0.4469,0.48450000000000004,0.49670000000000003,0.5645,0.001,-0.003,0.005
2025-11-06 18:37:06.536,284.18,-0.008,-0.008,0.002,-0.10300000000000001,-0.991,-0.044,62.550000000000004,-10.55,-76.08,-0.4471,0.4844,0.4964,0.5647,0.0,-0.002,0.007
2025-11-06 18:37:06.536,284.185,-0.006,-0.009000000000000001,0.002,-0.10200000000000001,-0.993,-0.043000000000000003,62.550000000000004,-10.55,-76.08,-0.44720000000000004,0.4842,0.4963,0.5648000000000001,0.0,0.0,0.004
2025-11-06 18:37:06.536,284.19,-0.006,-0.015,0.001,-0.10200000000000001,-0.993,-0.041,62.370000000000005,-10.69,-75.91,-0.44730000000000003,0.4842,0.49620000000000003,0.5649000000000001,0.0,0.0,0.003
2025-11-06 18:37:06.536,284.195,-0.006,-0.016,0.0,-0.101,-0.994,-0.043000000000000003,62.370000000000005,-10.69,-75.91,-0.4475,0.48400000000000004,0.49610000000000004,0.5649000000000001,-0.001,0.0,0.004
2025-11-06 18:37:06.536,284.2,-0.009000000000000001,-0.018000000000000002,-0.001,-0.101,-0.993,-0.044,62.26,-10.72,-75.35000000000001,-0.4476,0.4839,0.496,0.5650000000000001,-0.001,0.0,0.004
2025-11-06 18:37:06.536,284.205,-0.008,-0.013000000000000001,0.0,-0.1,-0.994,-0.045,62.26,-10.72,-75.35000000000001,-0.44780000000000003,0.4837,0.4959,0.5651,-0.001,0.0,0.005
2025-11-06 18:37:06.536,284.21,-0.01,-0.011,0.001,-0.101,-0.995,-0.046,62.84,-10.64,-75.38,-0.448,0.48360000000000003,0.49570000000000003,0.5653,0.0,0.001,0.006
2025-11-06 18:37:06.536,284.215,-0.011,-0.014,0.001,-0.10200000000000001,-0.994,-0.044,62.84,-10.64,-75.38,-0.4481,0.48350000000000004,0.49560000000000004,0.5653,0.0,0.0,0.003
2025-11-06 18:37:06.536,284.22,-0.011,-0.012,0.002,-0.101,-0.992,-0.042,62.84,-10.64,-75.38,-0.44820000000000004,0.4834,0.49560000000000004,0.5654,-0.001,-0.001,0.001
2025-11-06 18:37:06.536,284.225,-0.012,-0.005,0.003,-0.10200000000000001,-0.992,-0.043000000000000003,62.08,-10.75,-75.56,-0.44820000000000004,0.4834,0.4955,0.5654,0.0,-0.001,0.001
2025-11-06 18:37:06.536,284.23,-0.011,-0.007,0.004,-0.101,-0.991,-0.039,62.08,-10.75,-75.56,-0.44820000000000004,0.4834,0.4955,0.5654,-0.001,-0.001,-0.001
2025-11-06 18:37:06.536,284.235,-0.012,-0.005,0.003,-0.101,-0.993,-0.038,62.4,-11.25,-74.77,-0.44820000000000004,0.48350000000000004,0.49560000000000004,0.5653,-0.001,0.0,-0.002
2025-11-06 18:37:06.536,284.24,-0.012,-0.001,0.004,-0.1,-0.994,-0.035,62.4,-11.25,-74.77,-0.4481,0.48350000000000004,0.49570000000000003,0.5652,-0.001,0.0,-0.005
2025-11-06 18:37:06.536,284.245,-0.014,0.003,0.003,-0.10200000000000001,-0.993,-0.036000000000000004,62.4,-11.25,-74.77,-0.448,0.48360000000000003,0.4958,0.5651,0.0,0.0,-0.004
2025-11-06 18:37:06.536,284.25,-0.014,0.008,0.003,-0.10300000000000001,-0.992,-0.036000000000000004,62.75,-10.69,-75.21000000000001,-0.4479,0.4837,0.4959,0.5651,0.0,-0.001,-0.003
2025-11-06 18:37:06.536,284.255,-0.013000000000000001,0.009000000000000001,0.004,-0.105,-0.992,-0.037,62.75,-10.69,-75.21000000000001,-0.44780000000000003,0.4838,0.4958,0.5651,0.002,-0.001,-0.002
2025-11-06 18:37:06.537,284.26,-0.008,0.012,0.005,-0.106,-0.99,-0.037,62.52,-10.64,-74.51,-0.44770000000000004,0.48400000000000004,0.4958,0.5652,0.003,-0.003,-0.002
2025-11-06 18:37:06.537,284.265,-0.008,0.011,0.005,-0.106,-0.991,-0.038,62.52,-10.64,-74.51,-0.4475,0.48400000000000004,0.49570000000000003,0.5652,0.003,-0.002,-0.001
2025-11-06 18:37:06.537,284.27,-0.005,0.013000000000000001,0.007,-0.107,-0.989,-0.039,63.370000000000005,-10.99,-75.41,-0.4474,0.48410000000000003,0.49560000000000004,0.5653,0.003,-0.004,0.0
2025-11-06 18:37:06.537,284.275,-0.002,0.008,0.003,-0.107,-0.989,-0.038,63.370000000000005,-10.99,-75.41,-0.44730000000000003,0.4842,0.49560000000000004,0.5654,0.002,-0.004,-0.001
2025-11-06 18:37:06.537,284.28,-0.001,0.01,0.005,-0.105,-0.989,-0.039,63.370000000000005,-10.99,-75.41,-0.44720000000000004,0.4843,0.4955,0.5655,0.001,-0.004,0.0
2025-11-06 18:37:06.537,284.285,-0.002,0.005,0.006,-0.106,-0.989,-0.039,62.26,-11.16,-75.0,-0.44720000000000004,0.4843,0.4955,0.5655,0.001,-0.003,0.0
2025-11-06 18:37:06.537,284.29,-0.002,-0.004,0.003,-0.106,-0.99,-0.038,62.26,-11.16,-75.0,-0.4471,0.4844,0.4954,0.5655,0.001,-0.003,0.0
2025-11-06 18:37:06.537,284.295,-0.005,-0.01,0.004,-0.106,-0.992,-0.037,62.29,-10.99,-74.62,-0.447,0.48450000000000004,0.4954,0.5655,0.001,0.0,-0.002
2025-11-06 18:37:06.537,284.3,-0.01,-0.015,0.0,-0.105,-0.992,-0.038,62.29,-10.99,-74.62,-0.4471,0.48450000000000004,0.4954,0.5655,0.0,-0.001,0.0
2025-11-06 18:37:06.537,284.305,-0.011,-0.016,0.003,-0.105,-0.992,-0.036000000000000004,62.29,-10.99,-74.62,-0.447,0.48460000000000003,0.4954,0.5654,0.0,-0.001,-0.002
2025-11-06 18:37:06.537,284.31,-0.013000000000000001,-0.015,0.003,-0.105,-0.993,-0.038,62.2,-10.78,-74.45,-0.447,0.48460000000000003,0.4954,0.5654,0.0,0.0,0.0
2025-11-06 18:37:06.537,284.315,-0.013000000000000001,-0.011,0.003,-0.105,-0.993,-0.041,62.2,-10.78,-74.45,-0.4471,0.48460000000000003,0.4953,0.5655,0.0,0.0,0.001
2025-11-06 18:37:06.537,284.32,-0.014,-0.007,0.003,-0.105,-0.993,-0.041,61.79,-11.22,-74.24,-0.4471,0.48460000000000003,0.49520000000000003,0.5655,0.0,0.0,0.001
2025-11-06 18:37:06.537,284.325,-0.013000000000000001,-0.006,0.004,-0.10400000000000001,-0.992,-0.043000000000000003,61.79,-11.22,-74.24,-0.44720000000000004,0.48450000000000004,0.49510000000000004,0.5656,0.0,0.0,0.003
2025-11-06 18:37:06.537,284.33,-0.012,-0.001,0.004,-0.10400000000000001,-0.991,-0.045,61.59,-11.28,-74.53,-0.44730000000000003,0.4843,0.49500000000000005,0.5658000000000001,0.0,-0.001,0.005
2025-11-06 18:37:06.537,284.335,-0.012,0.002,0.003,-0.10400000000000001,-0.992,-0.046,61.59,-11.28,-74.53,-0.4475,0.4842,0.4948,0.5660000000000001,0.0,-0.001,0.005
2025-11-06 18:37:06.537,284.34,-0.013000000000000001,0.001,0.003,-0.10400000000000001,-0.99,-0.047,61.59,-11.28,-74.53,-0.4476,0.48400000000000004,0.49470000000000003,0.5661,0.0,-0.002,0.005
2025-11-06 18:37:06.537,284.345,-0.01,0.003,0.003,-0.10400000000000001,-0.992,-0.046,61.85,-11.07,-74.68,-0.44770000000000004,0.4839,0.49460000000000004,0.5662,0.0,0.0,0.003
2025-11-06 18:37:06.537,284.35,-0.01,0.001,0.003,-0.106,-0.992,-0.044,61.85,-11.07,-74.68,-0.44770000000000004,0.4839,0.49450000000000005,0.5663,0.001,0.0,0.002
2025-11-06 18:37:06.537,284.355,-0.009000000000000001,-0.001,0.001,-0.106,-0.991,-0.044,61.97,-10.61,-75.35000000000001,-0.44770000000000004,0.4839,0.4944,0.5664,0.0,-0.001,0.001
2025-11-06 18:37:06.537,284.36,-0.011,-0.001,0.001,-0.105,-0.99,-0.044,61.97,-10.61,-75.35000000000001,-0.44770000000000004,0.4838,0.4943,0.5665,0.0,-0.002,0.001
2025-11-06 18:37:06.537,284.365,-0.009000000000000001,-0.001,0.004,-0.107,-0.991,-0.042,62.02,-10.69,-75.35000000000001,-0.44770000000000004,0.4839,0.4943,0.5665,0.001,-0.001,0.0
2025-11-06 18:37:06.537,284.37,-0.013000000000000001,0.001,0.001,-0.106,-0.99,-0.041,62.02,-10.69,-75.35000000000001,-0.44770000000000004,0.4839,0.4943,0.5665,0.0,-0.002,-0.001
2025-11-06 18:37:06.537,284.375,-0.014,0.001,0.001,-0.106,-0.991,-0.04,62.02,-10.69,-75.35000000000001,-0.4476,0.48400000000000004,0.4943,0.5665,0.0,-0.002,-0.002
2025-11-06 18:37:06.537,284.38,-0.013000000000000001,0.006,0.001,-0.105,-0.991,-0.038,62.2,-10.61,-75.27,-0.4475,0.48410000000000003,0.4943,0.5664,0.0,-0.002,-0.004
2025-11-06 18:37:06.537,284.385,-0.01,0.007,0.003,-0.10400000000000001,-0.991,-0.038,62.2,-10.61,-75.27,-0.4475,0.48410000000000003,0.49450000000000005,0.5663,-0.001,-0.002,-0.003
2025-11-06 18:37:06.537,284.39,-0.012,0.009000000000000001,0.001,-0.10300000000000001,-0.991,-0.037,61.56,-10.81,-74.94,-0.4474,0.4842,0.49460000000000004,0.5662,-0.001,-0.001,-0.004
2025-11-06 18:37:06.537,284.395,-0.01,0.012,0.003,-0.105,-0.992,-0.037,61.56,-10.81,-74.94,-0.4474,0.4842,0.49470000000000003,0.5661,0.0,-0.001,-0.003
2025-11-06 18:37:06.537,284.4,-0.009000000000000001,0.013000000000000001,0.002,-0.105,-0.993,-0.041,61.56,-10.81,-74.94,-0.4474,0.4842,0.49470000000000003,0.5661,0.0,0.0,0.0
2025-11-06 18:37:06.537,284.405,-0.011,0.015,0.003,-0.106,-0.994,-0.041,62.550000000000004,-10.46,-74.86,-0.44730000000000003,0.4842,0.49460000000000004,0.5662,0.0,0.001,0.0
2025-11-06 18:37:06.537,284.41,-0.011,0.012,0.0,-0.108,-0.993,-0.043000000000000003,62.550000000000004,-10.46,-74.86,-0.44730000000000003,0.4842,0.49460000000000004,0.5663,0.002,0.0,0.001
2025-11-06 18:37:06.537,284.415,-0.012,0.009000000000000001,0.0,-0.107,-0.993,-0.043000000000000003,61.97,-10.28,-74.65,-0.44730000000000003,0.48410000000000003,0.49450000000000005,0.5664,0.001,0.0,0.001
2025-11-06 18:37:06.537,284.42,-0.008,0.009000000000000001,0.0,-0.10400000000000001,-0.992,-0.044,61.97,-10.28,-74.65,-0.4474,0.48400000000000004,0.4944,0.5665,-0.001,-0.001,0.002
2025-11-06 18:37:06.537,284.425,-0.008,0.008,0.003,-0.106,-0.992,-0.045,62.730000000000004,-10.9,-74.77,-0.4474,0.4839,0.4944,0.5666,0.0,-0.001,0.002
2025-11-06 18:37:06.537,284.43,-0.007,0.007,0.0,-0.10300000000000001,-0.991,-0.045,62.730000000000004,-10.9,-74.77,-0.4475,0.4838,0.4943,0.5666,-0.002,-0.001,0.002
2025-11-06 18:37:06.537,284.435,-0.006,0.007,0.0,-0.10400000000000001,-0.991,-0.044,62.730000000000004,-10.9,-74.77,-0.4476,0.4837,0.4943,0.5667,-0.001,-0.001,0.001
2025-11-06 18:37:06.537,284.44,-0.006,0.01,0.0,-0.105,-0.989,-0.042,61.940000000000005,-11.02,-74.71000000000001,-0.4475,0.4837,0.4944,0.5667,0.0,-0.004,0.0
2025-11-06 18:37:06.537,284.445,-0.008,0.009000000000000001,-0.001,-0.10400000000000001,-0.99,-0.043000000000000003,61.940000000000005,-11.02,-74.71000000000001,-0.4476,0.4837,0.4944,0.5667,-0.001,-0.003,0.0
2025-11-06 18:37:06.537,284.45,-0.007,0.01,0.0,-0.10300000000000001,-0.99,-0.041,61.730000000000004,-11.34,-75.35000000000001,-0.4476,0.48360000000000003,0.49450000000000005,0.5666,-0.001,-0.002,-0.002
2025-11-06 18:37:06.537,284.455,-0.007,0.01,-0.001,-0.105,-0.992,-0.038,61.730000000000004,-11.34,-75.35000000000001,-0.4475,0.4837,0.49460000000000004,0.5666,0.0,-0.001,-0.004
2025-11-06 18:37:06.538,284.46,-0.008,0.01,0.0,-0.106,-0.991,-0.038,61.730000000000004,-11.34,-75.35000000000001,-0.4474,0.4838,0.49460000000000004,0.5665,0.001,-0.001,-0.004
2025-11-06 18:37:06.538,284.465,-0.009000000000000001,0.009000000000000001,0.001,-0.106,-0.992,-0.036000000000000004,62.050000000000004,-10.96,-76.11,-0.44720000000000004,0.4839,0.49470000000000003,0.5664,0.0,-0.001,-0.005
2025-11-06 18:37:06.538,284.47,-0.007,0.01,0.001,-0.105,-0.992,-0.035,62.050000000000004,-10.96,-76.11,-0.4471,0.48410000000000003,0.4949,0.5663,0.0,-0.001,-0.005
2025-11-06 18:37:06.538,284.475,-0.011,0.01,0.002,-0.105,-0.992,-0.038,61.88,-11.13,-75.94,-0.4471,0.48410000000000003,0.4949,0.5662,0.0,-0.001,-0.002
2025-11-06 18:37:06.538,284.48,-0.011,0.007,0.003,-0.106,-0.99,-0.04,61.88,-11.13,-75.94,-0.447,0.48410000000000003,0.4949,0.5663,0.0,-0.002,0.0
2025-11-06 18:37:06.538,284.485,-0.011,0.005,0.005,-0.106,-0.992,-0.04,62.75,-11.42,-75.82000000000001,-0.447,0.4842,0.4949,0.5663,0.0,0.0,0.0
2025-11-06 18:37:06.538,284.49,-0.01,-0.001,0.006,-0.107,-0.993,-0.044,62.75,-11.42,-75.82000000000001,-0.447,0.48410000000000003,0.4948,0.5664,0.001,0.0,0.002
2025-11-06 18:37:06.538,284.495,-0.008,-0.007,0.005,-0.105,-0.993,-0.046,62.75,-11.42,-75.82000000000001,-0.4471,0.48400000000000004,0.49460000000000004,0.5665,0.0,0.0,0.004
2025-11-06 18:37:06.538,284.5,-0.01,-0.004,0.005,-0.105,-0.993,-0.048,62.52,-10.78,-75.5,-0.44720000000000004,0.4839,0.49450000000000005,0.5667,0.0,0.0,0.005
2025-11-06 18:37:06.538,284.505,-0.009000000000000001,-0.007,0.003,-0.105,-0.993,-0.049,62.52,-10.78,-75.5,-0.4474,0.4837,0.4943,0.5668000000000001,0.0,0.0,0.006
2025-11-06 18:37:06.538,284.51,-0.008,-0.008,0.005,-0.10400000000000001,-0.992,-0.05,62.11,-10.4,-75.5,-0.4476,0.48350000000000004,0.49420000000000003,0.5670000000000001,-0.001,-0.001,0.007
2025-11-06 18:37:06.538,284.515,-0.005,-0.006,0.006,-0.10300000000000001,-0.992,-0.048,62.11,-10.4,-75.5,-0.44770000000000004,0.4834,0.49410000000000004,0.5671,-0.002,0.0,0.004
2025-11-06 18:37:06.538,284.52,-0.003,-0.004,0.005,-0.10400000000000001,-0.992,-0.048,62.11,-10.4,-75.5,-0.44780000000000003,0.4833,0.49400000000000005,0.5672,-0.001,-0.001,0.004
2025-11-06 18:37:06.538,284.525,-0.003,-0.007,0.006,-0.105,-0.991,-0.046,61.730000000000004,-11.1,-76.05,-0.4479,0.4832,0.4939,0.5672,0.0,-0.001,0.002
2025-11-06 18:37:06.538,284.53,-0.005,-0.007,0.003,-0.108,-0.991,-0.044,61.730000000000004,-11.1,-76.05,-0.44780000000000003,0.4833,0.4938,0.5673,0.002,-0.002,0.0
2025-11-06 18:37:06.538,284.535,-0.006,-0.005,0.002,-0.109,-0.989,-0.04,61.97,-10.61,-75.21000000000001,-0.44770000000000004,0.48350000000000004,0.4938,0.5672,0.002,-0.004,-0.004
2025-11-06 18:37:06.538,284.54,-0.006,-0.001,0.001,-0.106,-0.989,-0.036000000000000004,61.97,-10.61,-75.21000000000001,-0.4475,0.4837,0.49400000000000005,0.5671,0.0,-0.003,-0.007
2025-11-06 18:37:06.538,284.545,-0.008,0.0,0.001,-0.107,-0.99,-0.036000000000000004,61.67,-10.49,-75.97,-0.4474,0.4839,0.49410000000000004,0.5669000000000001,0.001,-0.002,-0.006
2025-11-06 18:37:06.538,284.55,-0.008,0.003,0.0,-0.106,-0.99,-0.035,61.67,-10.49,-75.97,-0.44720000000000004,0.48410000000000003,0.49420000000000003,0.5668000000000001,0.0,-0.002,-0.007
2025-11-06 18:37:06.538,284.555,-0.013000000000000001,0.0,0.001,-0.105,-0.993,-0.035,61.67,-10.49,-75.97,-0.4471,0.4842,0.4944,0.5666,-0.001,0.0,-0.006
2025-11-06 18:37:06.538,284.56,-0.016,0.001,0.002,-0.10400000000000001,-0.994,-0.035,61.35,-11.450000000000001,-74.77,-0.4471,0.4842,0.49450000000000005,0.5664,-0.001,0.0,-0.005
2025-11-06 18:37:06.538,284.565,-0.015,0.001,0.003,-0.101,-0.995,-0.039,61.35,-11.450000000000001,-74.77,-0.44720000000000004,0.4842,0.49470000000000003,0.5663,-0.004,0.001,-0.002
2025-11-06 18:37:06.538,284.57,-0.019,0.003,0.003,-0.10200000000000001,-0.995,-0.042,62.08,-10.9,-75.47,-0.44730000000000003,0.48410000000000003,0.49470000000000003,0.5663,-0.003,0.002,0.0
2025-11-06 18:37:06.538,284.575,-0.021,0.001,0.003,-0.10200000000000001,-0.993,-0.044,62.08,-10.9,-75.47,-0.4475,0.4839,0.49470000000000003,0.5663,-0.002,0.0,0.002
2025-11-06 18:37:06.538,284.58,-0.018000000000000002,0.007,0.004,-0.10200000000000001,-0.993,-0.048,62.08,-10.9,-75.47,-0.44770000000000004,0.4837,0.49460000000000004,0.5664,-0.002,0.0,0.005
2025-11-06 18:37:06.538,284.585,-0.014,0.004,0.003,-0.10400000000000001,-0.993,-0.048,63.54,-11.07,-76.23,-0.44780000000000003,0.48350000000000004,0.4944,0.5666,-0.001,0.0,0.005
2025-11-06 18:37:06.538,284.59,-0.013000000000000001,0.01,0.001,-0.10200000000000001,-0.992,-0.05,63.54,-11.07,-76.23,-0.448,0.4833,0.4943,0.5667,-0.002,-0.001,0.006
2025-11-06 18:37:06.538,284.595,-0.01,0.01,0.001,-0.10400000000000001,-0.991,-0.05,61.82,-10.75,-75.91,-0.44820000000000004,0.48310000000000003,0.49410000000000004,0.5669000000000001,0.0,-0.002,0.006
2025-11-06 18:37:06.538,284.6,-0.006,0.011,0.002,-0.105,-0.992,-0.047,61.82,-10.75,-75.91,-0.44820000000000004,0.48310000000000003,0.49400000000000005,0.5670000000000001,0.0,0.0,0.002
2025-11-06 18:37:06.538,284.605,-0.005,0.009000000000000001,-0.001,-0.107,-0.991,-0.046,61.88,-10.72,-75.44,-0.44820000000000004,0.48310000000000003,0.4939,0.5671,0.002,-0.001,0.001
2025-11-06 18:37:06.538,284.61,-0.001,0.005,0.001,-0.106,-0.99,-0.044,61.88,-10.72,-75.44,-0.4481,0.48310000000000003,0.4939,0.5672,0.001,-0.002,0.0
2025-11-06 18:37:06.538,284.615,-0.006,0.001,0.001,-0.107,-0.991,-0.043000000000000003,61.88,-10.72,-75.44,-0.448,0.4832,0.4939,0.5672,0.002,-0.001,-0.001
2025-11-06 18:37:06.538,284.62,-0.01,0.0,-0.001,-0.107,-0.992,-0.043000000000000003,61.88,-10.75,-75.56,-0.448,0.4833,0.4939,0.5672,0.001,-0.001,-0.001
2025-11-06 18:37:06.538,284.625,-0.011,-0.006,-0.001,-0.107,-0.992,-0.041,61.88,-10.75,-75.56,-0.4479,0.4834,0.4939,0.5671,0.001,0.0,-0.003
2025-11-06 18:37:06.538,284.63,-0.012,-0.007,0.0,-0.108,-0.989,-0.044,61.85,-10.81,-74.83,-0.44780000000000003,0.4834,0.4938,0.5672,0.002,-0.003,0.0
2025-11-06 18:37:06.538,284.635,-0.013000000000000001,-0.004,0.001,-0.109,-0.99,-0.043000000000000003,61.85,-10.81,-74.83,-0.44780000000000003,0.48350000000000004,0.4937,0.5672,0.002,-0.002,-0.001
2025-11-06 18:37:06.538,284.64,-0.01,-0.007,0.0,-0.108,-0.99,-0.042,61.85,-10.81,-74.83,-0.44770000000000004,0.48360000000000003,0.4937,0.5672,0.001,-0.002,-0.002
2025-11-06 18:37:06.538,284.645,-0.011,-0.001,0.002,-0.109,-0.989,-0.042,62.370000000000005,-10.64,-75.09,-0.4476,0.4838,0.4937,0.5672,0.002,-0.003,-0.002
2025-11-06 18:37:06.538,284.65,-0.008,-0.001,0.001,-0.109,-0.989,-0.042,62.370000000000005,-10.64,-75.09,-0.4475,0.4839,0.49360000000000004,0.5673,0.002,-0.003,-0.002
2025-11-06 18:37:06.538,284.655,-0.008,0.001,0.003,-0.109,-0.989,-0.042,61.79,-10.52,-74.74,-0.4474,0.48400000000000004,0.49360000000000004,0.5673,0.002,-0.003,-0.001
2025-11-06 18:37:06.538,284.66,-0.008,0.0,0.001,-0.108,-0.989,-0.042,61.79,-10.52,-74.74,-0.4474,0.48400000000000004,0.49360000000000004,0.5673,0.0,-0.004,-0.001
2025-11-06 18:37:06.538,284.665,-0.009000000000000001,0.002,0.0,-0.108,-0.988,-0.044,61.82,-11.13,-75.09,-0.44730000000000003,0.48400000000000004,0.49350000000000005,0.5673,0.0,-0.004,0.0
2025-11-06 18:37:06.538,284.67,-0.009000000000000001,-0.002,0.001,-0.106,-0.991,-0.045,61.82,-11.13,-75.09,-0.4474,0.4839,0.49350000000000005,0.5674,-0.001,-0.001,0.001
2025-11-06 18:37:06.538,284.675,-0.008,-0.006,0.001,-0.106,-0.991,-0.046,61.82,-11.13,-75.09,-0.4475,0.4839,0.4934,0.5674,0.0,-0.001,0.002
2025-11-06 18:37:06.538,284.68,-0.01,-0.011,0.0,-0.10400000000000001,-0.991,-0.049,61.06,-10.75,-74.89,-0.4476,0.4837,0.4934,0.5675,-0.002,-0.001,0.004
2025-11-06 18:37:06.538,284.685,-0.01,-0.009000000000000001,0.002,-0.10300000000000001,-0.992,-0.048,61.06,-10.75,-74.89,-0.44780000000000003,0.48350000000000004,0.4933,0.5675,-0.003,0.0,0.003
2025-11-06 18:37:06.538,284.69,-0.01,-0.015,-0.001,-0.10200000000000001,-0.993,-0.05,61.21,-10.75,-74.13,-0.448,0.4833,0.4933,0.5675,-0.004,0.0,0.004
2025-11-06 18:37:06.538,284.695,-0.008,-0.012,-0.001,-0.10200000000000001,-0.993,-0.049,61.21,-10.75,-74.13,-0.44820000000000004,0.48310000000000003,0.4933,0.5675,-0.004,0.0,0.003
2025-11-06 18:37:06.538,284.7,-0.009000000000000001,-0.009000000000000001,-0.001,-0.10300000000000001,-0.994,-0.046,61.99,-10.75,-74.83,-0.44830000000000003,0.48310000000000003,0.4933,0.5675,-0.002,0.0,0.0
2025-11-06 18:37:06.538,284.705,-0.008,-0.004,-0.001,-0.10300000000000001,-0.993,-0.046,61.99,-11.1,-74.83,-0.4484,0.48300000000000004,0.4934,0.5675,-0.002,0.0,0.0
2025-11-06 18:37:06.538,284.71,-0.006,-0.001,-0.001,-0.10300000000000001,-0.992,-0.044,61.99,-11.1,-74.83,-0.4484,0.48300000000000004,0.4934,0.5674,-0.001,-0.001,-0.001
2025-11-06 18:37:06.538,284.715,-0.003,0.006,-0.004,-0.106,-0.993,-0.043000000000000003,62.050000000000004,-10.99,-75.59,-0.4484,0.48310000000000003,0.49350000000000005,0.5674,0.0,0.0,-0.002
2025-11-06 18:37:06.538,284.72,-0.004,0.011,-0.002,-0.107,-0.991,-0.039,62.050000000000004,-10.99,-75.59,-0.44820000000000004,0.4832,0.49360000000000004,0.5673,0.001,-0.002,-0.005
2025-11-06 18:37:06.538,284.725,-0.005,0.013000000000000001,-0.002,-0.106,-0.991,-0.04,61.730000000000004,-11.02,-74.94,-0.4481,0.4833,0.4937,0.5672,0.001,-0.001,-0.005
2025-11-06 18:37:06.538,284.73,-0.006,0.013000000000000001,0.0,-0.106,-0.991,-0.039,61.730000000000004,-11.02,-74.94,-0.4479,0.4834,0.4938,0.5671,0.0,-0.001,-0.005
2025-11-06 18:37:06.542,284.735,-0.008,0.01,0.0,-0.105,-0.993,-0.04,61.730000000000004,-11.02,-74.94,-0.44780000000000003,0.48350000000000004,0.4939,0.5670000000000001,0.0,0.0,-0.003
2025-11-06 18:37:06.542,284.74,-0.011,0.012,0.0,-0.105,-0.992,-0.043000000000000003,61.59,-11.02,-75.53,-0.44780000000000003,0.48350000000000004,0.4939,0.5671,0.0,0.0,0.0
2025-11-06 18:37:06.542,284.745,-0.012,0.012,0.001,-0.107,-0.992,-0.045,61.59,-11.02,-75.53,-0.44780000000000003,0.4834,0.4938,0.5671,0.001,-0.001,0.001
2025-11-06 18:37:06.542,284.75,-0.013000000000000001,0.01,0.001,-0.108,-0.991,-0.048,63.31,-11.25,-75.35000000000001,-0.44780000000000003,0.4834,0.4937,0.5673,0.002,-0.001,0.003
2025-11-06 18:37:06.542,284.755,-0.01,0.011,0.003,-0.11,-0.991,-0.051000000000000004,63.31,-11.25,-75.35000000000001,-0.4479,0.4833,0.49350000000000005,0.5676,0.003,-0.001,0.005
2025-11-06 18:37:06.542,284.76,-0.004,0.012,0.003,-0.109,-0.99,-0.052000000000000005,61.76,-11.42,-75.76,-0.4479,0.4832,0.4933,0.5678000000000001,0.002,-0.003,0.006
2025-11-06 18:37:06.542,284.765,-0.001,0.016,0.003,-0.11,-0.989,-0.052000000000000005,61.76,-11.42,-75.76,-0.4479,0.48310000000000003,0.49310000000000004,0.5680000000000001,0.003,-0.003,0.005
2025-11-06 18:37:06.542,284.77,0.0,0.017,0.003,-0.111,-0.987,-0.048,61.76,-11.42,-75.76,-0.44780000000000003,0.4832,0.4929,0.5682,0.003,-0.005,0.001
2025-11-06 18:37:06.542,284.775,0.005,0.017,0.003,-0.11,-0.988,-0.049,61.85,-11.07,-75.67,-0.44770000000000004,0.4832,0.4928,0.5683,0.002,-0.004,0.002
2025-11-06 18:37:06.542,284.78,0.005,0.012,0.002,-0.11,-0.988,-0.044,61.85,-11.07,-75.67,-0.4476,0.4833,0.4928,0.5683,0.002,-0.004,-0.002
2025-11-06 18:37:06.542,284.785,0.007,0.01,0.001,-0.11,-0.988,-0.043000000000000003,62.4,-12.13,-75.7,-0.4475,0.4834,0.4928,0.5683,0.002,-0.004,-0.002
2025-11-06 18:37:06.542,284.79,0.005,0.004,-0.001,-0.109,-0.989,-0.043000000000000003,62.4,-12.13,-75.7,-0.4474,0.48350000000000004,0.4929,0.5683,0.001,-0.003,-0.003
2025-11-06 18:37:06.542,284.795,0.001,0.0,-0.002,-0.109,-0.989,-0.042,62.4,-12.13,-75.7,-0.44730000000000003,0.48360000000000003,0.4929,0.5682,0.0,-0.003,-0.003
2025-11-06 18:37:06.543,284.8,0.0,-0.006,-0.002,-0.107,-0.993,-0.045,61.940000000000005,-11.25,-76.03,-0.44730000000000003,0.48360000000000003,0.49300000000000005,0.5681,-0.001,0.0,0.0
2025-11-06 18:37:06.543,284.805,-0.006,-0.009000000000000001,-0.004,-0.106,-0.993,-0.046,61.940000000000005,-11.25,-76.03,-0.4474,0.48360000000000003,0.49300000000000005,0.5681,-0.002,0.0,0.0
2025-11-06 18:37:06.543,284.81,-0.006,-0.009000000000000001,-0.004,-0.10400000000000001,-0.992,-0.046,61.97,-11.13,-75.29,-0.4476,0.48350000000000004,0.49310000000000004,0.5680000000000001,-0.004,0.0,0.0
2025-11-06 18:37:06.543,284.815,-0.006,-0.005,-0.004,-0.101,-0.991,-0.047,61.97,-11.13,-75.29,-0.44770000000000004,0.4833,0.49310000000000004,0.5680000000000001,-0.006,-0.001,0.001
2025-11-06 18:37:06.543,284.82,-0.006,-0.004,-0.004,-0.10200000000000001,-0.991,-0.047,61.82,-10.66,-76.08,-0.4479,0.48310000000000003,0.4932,0.5679000000000001,-0.004,-0.001,0.001
2025-11-06 18:37:06.543,284.825,-0.003,0.003,-0.003,-0.101,-0.991,-0.047,61.82,-10.66,-76.08,-0.4481,0.48300000000000004,0.4933,0.5679000000000001,-0.005,-0.002,0.001
2025-11-06 18:37:06.543,284.83,-0.002,0.008,-0.001,-0.10200000000000001,-0.99,-0.049,61.82,-10.66,-76.08,-0.44820000000000004,0.4828,0.4933,0.5679000000000001,-0.004,-0.002,0.002
2025-11-06 18:37:06.543,284.835,0.0,0.006,0.0,-0.10300000000000001,-0.99,-0.051000000000000004,61.64,-11.450000000000001,-75.09,-0.44830000000000003,0.48260000000000003,0.4933,0.5679000000000001,-0.002,-0.002,0.004
2025-11-06 18:37:06.543,284.84,0.004,0.008,0.0,-0.10300000000000001,-0.992,-0.049,61.64,-11.450000000000001,-75.09,-0.4484,0.48250000000000004,0.4933,0.5680000000000001,-0.002,-0.001,0.002
2025-11-06 18:37:06.543,284.845,0.003,0.01,0.0,-0.107,-0.991,-0.049,62.29,-11.16,-76.17,-0.4484,0.48250000000000004,0.4932,0.5680000000000001,0.001,-0.001,0.001
2025-11-06 18:37:06.543,284.85,0.003,0.006,0.0,-0.108,-0.99,-0.05,62.29,-11.16,-76.17,-0.4484,0.48250000000000004,0.49310000000000004,0.5681,0.002,-0.002,0.002
2025-11-06 18:37:06.543,284.855,0.002,0.003,0.0,-0.107,-0.991,-0.047,62.29,-11.16,-76.17,-0.44830000000000003,0.48250000000000004,0.49310000000000004,0.5682,0.001,-0.001,0.0
2025-11-06 18:37:06.543,284.86,0.003,0.001,0.0,-0.105,-0.991,-0.047,61.59,-10.81,-75.56,-0.44830000000000003,0.48250000000000004,0.49310000000000004,0.5681,0.0,-0.001,0.0
2025-11-06 18:37:06.543,284.865,0.002,-0.001,-0.001,-0.105,-0.991,-0.044,61.59,-10.81,-75.56,-0.44830000000000003,0.48260000000000003,0.4932,0.5681,0.0,-0.001,-0.002
2025-11-06 18:37:06.543,284.87,-0.001,-0.009000000000000001,-0.001,-0.10300000000000001,-0.993,-0.044,61.59,-10.75,-75.21000000000001,-0.44830000000000003,0.48260000000000003,0.4933,0.5680000000000001,-0.002,0.0,-0.002
2025-11-06 18:37:06.543,284.875,-0.006,-0.007,0.0,-0.10200000000000001,-0.993,-0.044,61.59,-10.75,-75.21000000000001,-0.4484,0.48260000000000003,0.4934,0.5678000000000001,-0.003,0.0,-0.002
2025-11-06 18:37:06.543,284.88,-0.008,-0.01,-0.002,-0.10200000000000001,-0.994,-0.043000000000000003,62.14,-11.02,-75.38,-0.4484,0.48260000000000003,0.49360000000000004,0.5677,-0.003,0.001,-0.003
2025-11-06 18:37:06.543,284.885,-0.01,-0.01,-0.001,-0.10300000000000001,-0.993,-0.047,62.14,-11.02,-75.38,-0.4485,0.48250000000000004,0.49360000000000004,0.5677,-0.001,0.0,0.0
2025-11-06 18:37:06.543,284.89,-0.013000000000000001,-0.006,0.0,-0.101,-0.995,-0.051000000000000004,62.14,-11.02,-75.38,-0.44870000000000004,0.4824,0.49350000000000005,0.5677,-0.003,0.002,0.003
2025-11-06 18:37:06.543,284.895,-0.013000000000000001,-0.005,0.0,-0.10400000000000001,-0.993,-0.054,61.910000000000004,-10.9,-75.88,-0.44880000000000003,0.4822,0.4934,0.5678000000000001,0.0,0.0,0.006
2025-11-06 18:37:06.543,284.9,-0.011,-0.003,0.0,-0.10200000000000001,-0.993,-0.054,61.910000000000004,-10.9,-75.88,-0.449,0.48200000000000004,0.4932,0.5680000000000001,-0.002,0.0,0.006
2025-11-06 18:37:06.543,284.905,-0.01,0.0,-0.001,-0.10400000000000001,-0.992,-0.053,61.61,-10.84,-75.59,-0.44920000000000004,0.48190000000000005,0.49310000000000004,0.5681,0.0,0.0,0.004
2025-11-06 18:37:06.543,284.91,-0.005,0.005,0.0,-0.105,-0.99,-0.053,61.61,-10.84,-75.59,-0.44920000000000004,0.4818,0.4929,0.5682,0.0,-0.002,0.004
2025-11-06 18:37:06.543,284.915,0.0,0.008,-0.001,-0.106,-0.989,-0.049,61.61,-10.84,-75.59,-0.44920000000000004,0.4818,0.4929,0.5683,0.001,-0.003,0.0
2025-11-06 18:37:06.543,284.92,0.005,0.009000000000000001,-0.001,-0.107,-0.99,-0.046,63.370000000000005,-10.49,-75.32000000000001,-0.449,0.48200000000000004,0.4929,0.5682,0.002,-0.003,-0.002
2025-11-06 18:37:06.543,284.925,0.006,0.009000000000000001,-0.001,-0.106,-0.988,-0.042,63.370000000000005,-10.49,-75.32000000000001,-0.44880000000000003,0.4822,0.49300000000000005,0.5681,0.001,-0.004,-0.006
2025-11-06 18:37:06.543,284.93,0.007,0.007,-0.002,-0.107,-0.987,-0.042,61.35,-10.66,-75.56,-0.44870000000000004,0.4824,0.4932,0.5680000000000001,0.001,-0.005,-0.005
2025-11-06 18:37:06.543,284.935,0.008,0.006,-0.001,-0.10400000000000001,-0.99,-0.039,61.35,-10.66,-75.56,-0.4485,0.48250000000000004,0.4934,0.5678000000000001,0.0,-0.003,-0.007
2025-11-06 18:37:06.543,284.94,0.002,-0.001,-0.001,-0.10400000000000001,-0.989,-0.041,61.82,-10.58,-75.82000000000001,-0.4484,0.48260000000000003,0.49350000000000005,0.5677,0.0,-0.003,-0.005
2025-11-06 18:37:06.543,284.945,0.002,-0.003,-0.001,-0.10400000000000001,-0.991,-0.04,61.82,-10.58,-75.82000000000001,-0.44830000000000003,0.4828,0.4937,0.5675,0.0,-0.001,-0.005
2025-11-06 18:37:06.543,284.95,0.0,-0.009000000000000001,-0.001,-0.105,-0.991,-0.041,61.82,-10.58,-75.82000000000001,-0.44820000000000004,0.4829,0.4938,0.5674,0.0,-0.001,-0.004
2025-11-06 18:37:06.543,284.955,-0.002,-0.008,0.0,-0.10400000000000001,-0.991,-0.043000000000000003,61.7,-10.64,-75.03,-0.44820000000000004,0.4829,0.4938,0.5673,0.0,-0.001,-0.001
2025-11-06 18:37:06.543,284.96,-0.002,-0.012,-0.001,-0.10400000000000001,-0.992,-0.047,61.7,-10.64,-75.03,-0.44830000000000003,0.4829,0.4938,0.5673,0.0,-0.001,0.001
2025-11-06 18:37:06.545,284.965,-0.005,-0.009000000000000001,0.0,-0.10400000000000001,-0.992,-0.049,61.64,-10.34,-75.03,-0.4484,0.4828,0.4937,0.5674,0.0,0.0,0.003
2025-11-06 18:37:06.545,284.97,-0.005,-0.009000000000000001,-0.001,-0.10200000000000001,-0.992,-0.049,61.64,-10.34,-75.03,-0.4485,0.4827,0.4937,0.5674,-0.002,0.0,0.002
2025-11-06 18:37:06.545,284.975,-0.005,-0.003,-0.002,-0.10300000000000001,-0.991,-0.05,61.64,-10.34,-75.03,-0.4486,0.48260000000000003,0.49360000000000004,0.5675,-0.001,-0.001,0.003
2025-11-06 18:37:06.545,284.98,-0.002,0.0,-0.002,-0.105,-0.992,-0.05,62.08,-10.43,-74.77,-0.44870000000000004,0.48250000000000004,0.49350000000000005,0.5676,0.0,0.0,0.003
2025-11-06 18:37:06.545,284.985,0.0,-0.001,-0.001,-0.106,-0.992,-0.051000000000000004,62.08,-10.43,-74.77,-0.44870000000000004,0.48250000000000004,0.4933,0.5677,0.001,0.0,0.003
2025-11-06 18:37:06.545,284.99,-0.001,-0.001,-0.001,-0.107,-0.991,-0.05,61.29,-10.43,-75.15,-0.44870000000000004,0.4824,0.4932,0.5678000000000001,0.002,-0.002,0.002
2025-11-06 18:37:06.545,284.995,0.0,0.001,-0.001,-0.107,-0.992,-0.052000000000000005,61.29,-10.43,-75.15,-0.44880000000000003,0.4824,0.49300000000000005,0.5680000000000001,0.002,0.0,0.004
2025-11-06 18:37:06.545,285.0,0.0,0.0,-0.003,-0.106,-0.993,-0.05,61.410000000000004,-10.370000000000001,-75.27,-0.44880000000000003,0.4824,0.49300000000000005,0.5681,0.001,0.0,0.001
2025-11-06 18:37:06.545,285.005,0.0,0.004,-0.001,-0.107,-0.991,-0.045,61.410000000000004,-10.370000000000001,-75.27,-0.44870000000000004,0.48250000000000004,0.49300000000000005,0.5680000000000001,0.001,-0.001,-0.002
2025-11-06 18:37:06.545,285.01,0.0,0.001,-0.002,-0.105,-0.992,-0.046,61.410000000000004,-10.370000000000001,-75.27,-0.4486,0.48250000000000004,0.49310000000000004,0.5680000000000001,0.0,0.0,-0.001
2025-11-06 18:37:06.545,285.015,0.004,0.0,-0.002,-0.10400000000000001,-0.99,-0.042,61.56,-10.26,-74.77,-0.4486,0.48260000000000003,0.4932,0.5678000000000001,-0.001,-0.002,-0.004
2025-11-06 18:37:06.547,285.02,0.001,0.0,0.0,-0.10300000000000001,-0.99,-0.04,61.56,-10.26,-74.77,-0.4485,0.4827,0.4934,0.5676,-0.002,-0.003,-0.006
2025-11-06 18:37:06.547,285.025,0.0,0.001,-0.002,-0.101,-0.99,-0.037,61.56,-10.58,-75.29,-0.4484,0.4828,0.4937,0.5673,-0.004,-0.002,-0.009000000000000001
2025-11-06 18:37:06.547,285.03,0.0,0.003,-0.001,-0.099,-0.99,-0.04,61.56,-10.58,-75.29,-0.4484,0.4828,0.49400000000000005,0.5671,-0.005,-0.003,-0.005
2025-11-06 18:37:06.547,285.035,0.002,0.004,-0.002,-0.098,-0.991,-0.04,61.56,-10.58,-75.59,-0.4485,0.4828,0.49420000000000003,0.5668000000000001,-0.005,-0.002,-0.005
2025-11-06 18:37:06.547,285.04,0.002,0.005,-0.002,-0.099,-0.992,-0.039,61.53,-10.58,-75.59,-0.4485,0.4828,0.4944,0.5666,-0.003,-0.001,-0.005
2025-11-06 18:37:06.547,285.045,0.005,0.005,0.001,-0.10200000000000001,-0.991,-0.042,61.53,-10.58,-75.59,-0.4484,0.4829,0.49450000000000005,0.5666,-0.001,-0.001,-0.001
2025-11-06 18:37:06.547,285.05,0.004,0.006,0.001,-0.10400000000000001,-0.992,-0.043000000000000003,61.67,-10.99,-74.62,-0.4484,0.4829,0.49450000000000005,0.5666,0.001,0.0,0.0
2025-11-06 18:37:06.547,285.055,0.004,0.007,0.002,-0.107,-0.991,-0.044,61.67,-10.99,-74.62,-0.44830000000000003,0.48300000000000004,0.4944,0.5667,0.003,-0.001,0.0
2025-11-06 18:37:06.547,285.06,0.004,0.003,0.001,-0.109,-0.991,-0.044,62.08,-10.93,-74.74,-0.4481,0.48310000000000003,0.4943,0.5668000000000001,0.004,-0.002,0.0
2025-11-06 18:37:06.547,285.065,0.002,0.0,0.003,-0.111,-0.991,-0.046,62.08,-10.93,-74.74,-0.448,0.4832,0.49410000000000004,0.5670000000000001,0.006,-0.002,0.002
2025-11-06 18:37:06.547,285.07,0.0,-0.001,0.001,-0.11,-0.992,-0.048,62.08,-10.93,-74.74,-0.4479,0.4832,0.4939,0.5672,0.004,0.0,0.003
2025-11-06 18:37:06.547,285.075,0.0,-0.007,0.001,-0.109,-0.993,-0.048,62.08,-10.84,-75.32000000000001,-0.4479,0.4832,0.4938,0.5673,0.003,0.0,0.003
2025-11-06 18:37:06.547,285.08,-0.003,-0.001,0.0,-0.109,-0.993,-0.048,62.08,-10.84,-75.32000000000001,-0.4479,0.4832,0.49360000000000004,0.5675,0.003,0.0,0.003
2025-11-06 18:37:06.547,285.085,-0.005,-0.003,-0.001,-0.106,-0.994,-0.048,61.21,-10.75,-74.59,-0.4479,0.48310000000000003,0.49360000000000004,0.5676,0.0,0.0,0.002
2025-11-06 18:37:06.547,285.09,-0.006,-0.004,0.0,-0.105,-0.993,-0.048,61.21,-10.75,-74.59,-0.448,0.48310000000000003,0.49350000000000005,0.5676,0.0,0.0,0.002
2025-11-06 18:37:06.547,285.095,-0.002,-0.004,-0.002,-0.10300000000000001,-0.993,-0.046,61.99,-10.75,-75.06,-0.4481,0.48300000000000004,0.49360000000000004,0.5676,-0.002,0.0,0.0
2025-11-06 18:37:06.547,285.1,-0.002,0.001,-0.004,-0.10300000000000001,-0.992,-0.045,61.99,-10.75,-75.06,-0.44820000000000004,0.4829,0.49360000000000004,0.5675,-0.002,-0.001,0.0
2025-11-06 18:37:06.547,285.105,-0.002,0.003,-0.004,-0.10300000000000001,-0.991,-0.043000000000000003,61.99,-10.75,-75.06,-0.44820000000000004,0.4829,0.4937,0.5674,-0.002,-0.002,-0.002
2025-11-06 18:37:06.547,285.11,0.0,0.012,-0.004,-0.10200000000000001,-0.991,-0.041,61.76,-10.96,-74.71000000000001,-0.4481,0.4829,0.4939,0.5673,-0.002,-0.002,-0.004
2025-11-06 18:37:06.547,285.115,0.002,0.013000000000000001,-0.005,-0.1,-0.991,-0.039,61.76,-10.96,-74.71000000000001,-0.4481,0.4829,0.49420000000000003,0.5670000000000001,-0.004,-0.001,-0.005
2025-11-06 18:37:06.547,285.12,0.001,0.013000000000000001,-0.004,-0.10200000000000001,-0.991,-0.038,61.410000000000004,-10.64,-75.7,-0.448,0.48300000000000004,0.4944,0.5669000000000001,-0.001,-0.001,-0.006
2025-11-06 18:37:06.547,285.125,0.0,0.013000000000000001,-0.005,-0.10400000000000001,-0.992,-0.037,61.410000000000004,-10.64,-75.7,-0.4479,0.48310000000000003,0.49460000000000004,0.5667,0.0,0.0,-0.006
2025-11-06 18:37:06.548,285.13,0.001,0.013000000000000001,-0.004,-0.10400000000000001,-0.99,-0.037,61.410000000000004,-10.64,-75.7,-0.44770000000000004,0.4833,0.4948,0.5666,0.0,-0.002,-0.006
2025-11-06 18:37:06.548,285.135,-0.003,0.012,-0.004,-0.105,-0.991,-0.037,62.7,-10.75,-75.44,-0.4476,0.4834,0.4949,0.5665,0.0,-0.001,-0.005
2025-11-06 18:37:06.548,285.14,-0.004,0.009000000000000001,0.0,-0.105,-0.993,-0.041,62.7,-10.75,-75.44,-0.4476,0.4834,0.4949,0.5665,0.0,0.0,0.0
2025-11-06 18:37:06.548,285.145,-0.008,0.006,0.0,-0.107,-0.992,-0.044,62.4,-10.69,-75.67,-0.4475,0.4834,0.4948,0.5666,0.002,-0.001,0.001
2025-11-06 18:37:06.548,285.15,-0.009000000000000001,0.006,0.004,-0.107,-0.992,-0.047,62.4,-10.69,-75.67,-0.4475,0.4833,0.49460000000000004,0.5668000000000001,0.002,-0.001,0.004
2025-11-06 18:37:06.548,285.155,-0.01,0.005,0.003,-0.109,-0.991,-0.052000000000000005,61.44,-10.28,-75.15,-0.4476,0.4832,0.4944,0.5671,0.003,-0.002,0.008
2025-11-06 18:37:06.548,285.16,-0.006,0.0,0.005,-0.109,-0.991,-0.054,61.44,-10.28,-75.15,-0.44770000000000004,0.48310000000000003,0.49400000000000005,0.5674,0.003,-0.001,0.009000000000000001
2025-11-06 18:37:06.548,285.165,-0.002,0.001,0.008,-0.109,-0.99,-0.052000000000000005,61.44,-10.28,-75.15,-0.44770000000000004,0.48300000000000004,0.4938,0.5677,0.002,-0.002,0.007
2025-11-06 18:37:06.548,285.17,0.001,0.003,0.005,-0.106,-0.991,-0.051000000000000004,61.59,-10.34,-75.65,-0.44780000000000003,0.4828,0.49360000000000004,0.5679000000000001,0.0,-0.001,0.005
2025-11-06 18:37:06.548,285.175,0.002,0.0,0.001,-0.107,-0.991,-0.05,61.59,-10.34,-75.65,-0.44780000000000003,0.4828,0.49350000000000005,0.5680000000000001,0.001,-0.001,0.003
2025-11-06 18:37:06.548,285.18,0.004,-0.006,0.0,-0.106,-0.99,-0.047,61.38,-10.66,-75.73,-0.44780000000000003,0.4828,0.49350000000000005,0.5680000000000001,0.0,-0.002,0.0
2025-11-06 18:37:06.548,285.185,0.005,-0.004,-0.001,-0.105,-0.99,-0.044,61.38,-10.66,-75.73,-0.44780000000000003,0.4828,0.49360000000000004,0.5679000000000001,0.0,-0.002,-0.002
2025-11-06 18:37:06.548,285.19,0.004,-0.011,-0.004,-0.10300000000000001,-0.992,-0.044,61.38,-10.66,-75.73,-0.4479,0.4828,0.4937,0.5678000000000001,-0.002,0.0,-0.001
2025-11-06 18:37:06.548,285.195,0.002,-0.007,-0.003,-0.10200000000000001,-0.992,-0.043000000000000003,61.910000000000004,-10.69,-75.5,-0.4479,0.4828,0.4938,0.5677,-0.003,0.0,-0.002
2025-11-06 18:37:06.548,285.2,0.0,-0.012,-0.004,-0.099,-0.993,-0.04,61.910000000000004,-10.69,-75.5,-0.448,0.4828,0.49400000000000005,0.5674,-0.005,0.0,-0.004
2025-11-06 18:37:06.548,285.205,-0.004,-0.008,-0.003,-0.099,-0.995,-0.041,61.26,-10.52,-75.32000000000001,-0.4481,0.4828,0.4943,0.5672,-0.005,0.001,-0.004
2025-11-06 18:37:06.548,285.21,-0.008,-0.008,-0.002,-0.099,-0.995,-0.041,61.26,-10.52,-75.32000000000001,-0.4481,0.4827,0.4944,0.5670000000000001,-0.004,0.001,-0.003
2025-11-06 18:37:06.548,285.215,-0.01,-0.009000000000000001,0.0,-0.099,-0.996,-0.04,61.64,-10.55,-75.67,-0.44820000000000004,0.4827,0.49460000000000004,0.5668000000000001,-0.004,0.002,-0.004
2025-11-06 18:37:06.548,285.22,-0.011,-0.007,0.0,-0.1,-0.994,-0.044,61.64,-10.55,-75.67,-0.44830000000000003,0.4827,0.49470000000000003,0.5667,-0.002,0.0,0.0
2025-11-06 18:37:06.548,285.225,-0.011,0.0,0.001,-0.101,-0.993,-0.042,61.64,-10.55,-75.67,-0.44830000000000003,0.48260000000000003,0.49470000000000003,0.5667,-0.001,0.0,-0.001
2025-11-06 18:37:06.548,285.23,-0.008,0.004,0.003,-0.10300000000000001,-0.991,-0.044,61.79,-11.13,-75.27,-0.44830000000000003,0.48260000000000003,0.49470000000000003,0.5667,0.0,-0.002,0.0
2025-11-06 18:37:06.549,285.235,-0.004,0.008,0.005,-0.105,-0.99,-0.046,61.79,-11.13,-75.27,-0.44830000000000003,0.48260000000000003,0.49460000000000004,0.5668000000000001,0.001,-0.003,0.001
2025-11-06 18:37:06.549,285.24,-0.002,0.011,0.006,-0.106,-0.988,-0.046,61.56,-9.88,-75.62,-0.44820000000000004,0.48260000000000003,0.49450000000000005,0.5670000000000001,0.002,-0.004,0.002
2025-11-06 18:37:06.549,285.245,-0.002,0.01,0.005,-0.106,-0.991,-0.045,61.56,-9.88,-75.62,-0.4481,0.4827,0.4944,0.5671,0.002,-0.001,0.0
2025-11-06 18:37:06.549,285.25,-0.004,0.009000000000000001,0.005,-0.108,-0.992,-0.047,61.56,-9.88,-75.62,-0.4481,0.4827,0.4943,0.5672,0.003,-0.001,0.001
2025-11-06 18:37:06.549,285.255,-0.004,0.0,0.003,-0.106,-0.992,-0.047,62.49,-10.05,-75.41,-0.4481,0.4827,0.49420000000000003,0.5673,0.001,0.0,0.001
2025-11-06 18:37:06.549,285.26,-0.005,-0.001,0.002,-0.106,-0.993,-0.046,62.49,-10.05,-75.41,-0.4481,0.4827,0.49410000000000004,0.5674,0.001,0.0,0.001
2025-11-06 18:37:06.549,285.265,-0.008,-0.003,0.001,-0.106,-0.994,-0.046,61.26,-10.72,-75.88,-0.4481,0.4827,0.49400000000000005,0.5674,0.001,0.0,0.0
2025-11-06 18:37:06.549,285.27,-0.006,-0.002,-0.001,-0.10400000000000001,-0.994,-0.044,61.26,-10.72,-75.88,-0.4481,0.4827,0.49410000000000004,0.5674,0.0,0.0,-0.001
2025-11-06 18:37:06.549,285.275,-0.008,-0.009000000000000001,-0.001,-0.10300000000000001,-0.994,-0.045,61.47,-10.96,-75.7,-0.4481,0.4827,0.49410000000000004,0.5673,-0.001,0.001,0.0
2025-11-06 18:37:06.549,285.28,-0.008,-0.01,-0.002,-0.10300000000000001,-0.992,-0.047,61.47,-10.96,-75.7,-0.44820000000000004,0.48260000000000003,0.49400000000000005,0.5674,0.0,0.0,0.001
2025-11-06 18:37:06.549,285.285,-0.007,-0.007,-0.001,-0.10400000000000001,-0.993,-0.048,61.47,-10.96,-75.7,-0.44830000000000003,0.48260000000000003,0.49400000000000005,0.5674,0.0,0.0,0.002
2025-11-06 18:37:06.549,285.29,-0.008,-0.008,0.0,-0.10400000000000001,-0.991,-0.048,61.59,-9.88,-75.35000000000001,-0.4484,0.48250000000000004,0.4939,0.5675,0.0,-0.001,0.002
2025-11-06 18:37:06.549,285.295,-0.006,-0.007,0.0,-0.10300000000000001,-0.99,-0.048,61.59,-9.88,-75.35000000000001,-0.4484,0.4824,0.4939,0.5675,-0.001,-0.002,0.001
2025-11-06 18:37:06.549,285.3,-0.005,-0.004,0.0,-0.10300000000000001,-0.989,-0.047,61.56,-10.43,-75.44,-0.4485,0.4824,0.4938,0.5675,0.0,-0.004,0.001
2025-11-06 18:37:06.549,285.305,-0.003,-0.004,0.002,-0.10400000000000001,-0.989,-0.045,61.56,-10.43,-75.44,-0.4485,0.4824,0.4938,0.5675,0.0,-0.003,0.0
2025-11-06 18:37:06.549,285.31,0.0,-0.006,0.001,-0.10400000000000001,-0.989,-0.044,61.56,-10.43,-75.44,-0.4485,0.48250000000000004,0.4938,0.5675,0.0,-0.004,-0.001
2025-11-06 18:37:06.549,285.315,-0.002,-0.007,0.001,-0.105,-0.99,-0.043000000000000003,61.61,-10.08,-75.44,-0.4484,0.48260000000000003,0.4939,0.5674,0.0,-0.003,-0.003
2025-11-06 18:37:06.549,285.32,0.0,-0.006,0.0,-0.105,-0.99,-0.041,61.61,-10.08,-75.44,-0.44830000000000003,0.4827,0.49400000000000005,0.5673,0.0,-0.003,-0.004
2025-11-06 18:37:06.549,285.325,-0.003,-0.004,0.0,-0.106,-0.991,-0.04,61.7,-10.69,-76.0,-0.44820000000000004,0.4828,0.49400000000000005,0.5672,0.001,-0.001,-0.004
2025-11-06 18:37:06.549,285.33,-0.005,-0.007,0.0,-0.107,-0.993,-0.042,61.7,-10.69,-76.0,-0.4481,0.48300000000000004,0.49400000000000005,0.5672,0.002,0.0,-0.002
2025-11-06 18:37:06.549,285.335,-0.006,-0.007,0.001,-0.106,-0.993,-0.041,61.59,-10.28,-75.53,-0.448,0.48310000000000003,0.49410000000000004,0.5671,0.0,0.0,-0.003
2025-11-06 18:37:06.549,285.34,-0.013000000000000001,-0.003,0.0,-0.10400000000000001,-0.993,-0.044,61.59,-10.28,-75.53,-0.448,0.48310000000000003,0.49410000000000004,0.5671,-0.001,0.0,0.0
2025-11-06 18:37:06.549,285.345,-0.014,-0.003,0.001,-0.10200000000000001,-0.996,-0.045,61.59,-10.28,-75.53,-0.4481,0.48300000000000004,0.49410000000000004,0.5671,-0.002,0.002,0.0
2025-11-06 18:37:06.549,285.35,-0.017,0.001,0.0,-0.10300000000000001,-0.994,-0.048,61.61,-10.14,-75.62,-0.44830000000000003,0.4828,0.49400000000000005,0.5671,-0.001,0.001,0.002
2025-11-06 18:37:06.549,285.355,-0.016,0.002,0.0,-0.10200000000000001,-0.995,-0.049,61.61,-10.14,-75.62,-0.4484,0.4827,0.49400000000000005,0.5672,-0.002,0.001,0.004
2025-11-06 18:37:06.549,285.36,-0.011,0.004,0.0,-0.10200000000000001,-0.994,-0.05,61.5,-10.34,-75.24,-0.4486,0.48250000000000004,0.4939,0.5673,-0.001,0.0,0.004
2025-11-06 18:37:06.549,285.365,-0.01,0.006,0.0,-0.10400000000000001,-0.992,-0.049,61.5,-10.34,-75.24,-0.4486,0.4824,0.4938,0.5674,0.0,-0.001,0.003
2025-11-06 18:37:06.549,285.37,-0.009000000000000001,0.009000000000000001,-0.002,-0.10300000000000001,-0.992,-0.049,61.5,-10.34,-75.24,-0.44870000000000004,0.4823,0.4938,0.5675,0.0,0.0,0.002
2025-11-06 18:37:06.549,285.375,-0.005,0.01,-0.001,-0.105,-0.989,-0.048,61.5,-10.58,-75.65,-0.44870000000000004,0.4823,0.4937,0.5676,0.001,-0.004,0.001
2025-11-06 18:37:06.549,285.38,-0.003,0.007,0.0,-0.10400000000000001,-0.989,-0.047,61.5,-10.58,-75.65,-0.44870000000000004,0.4823,0.4937,0.5676,0.0,-0.003,0.0
2025-11-06 18:37:06.549,285.385,0.0,0.009000000000000001,0.0,-0.105,-0.99,-0.045,62.81,-10.55,-75.12,-0.4486,0.4823,0.4937,0.5676,0.0,-0.003,-0.001
2025-11-06 18:37:06.549,285.39,0.0,-0.002,0.001,-0.105,-0.991,-0.044,62.81,-10.55,-75.12,-0.4486,0.4824,0.4937,0.5676,0.0,-0.002,-0.002
2025-11-06 18:37:06.549,285.395,0.002,-0.009000000000000001,0.0,-0.105,-0.991,-0.042,61.85,-11.16,-75.85000000000001,-0.4485,0.48250000000000004,0.4938,0.5675,0.0,-0.001,-0.004
2025-11-06 18:37:06.549,285.4,0.0,-0.015,0.0,-0.106,-0.991,-0.04,61.85,-11.16,-75.85000000000001,-0.44830000000000003,0.4827,0.4938,0.5674,0.001,-0.001,-0.005
2025-11-06 18:37:06.549,285.405,-0.003,-0.018000000000000002,0.001,-0.105,-0.992,-0.041,61.85,-11.16,-75.85000000000001,-0.44820000000000004,0.4829,0.4939,0.5672,0.0,-0.001,-0.004
2025-11-06 18:37:06.549,285.41,-0.011,-0.021,0.0,-0.10300000000000001,-0.991,-0.044,61.38,-10.26,-76.79,-0.44830000000000003,0.4829,0.4939,0.5672,-0.001,-0.001,0.0
2025-11-06 18:37:06.549,285.415,-0.012,-0.022,0.0,-0.10300000000000001,-0.99,-0.045,61.38,-10.26,-76.79,-0.4484,0.4829,0.4939,0.5672,-0.001,-0.002,0.0
2025-11-06 18:37:06.549,285.42,-0.01,-0.018000000000000002,0.001,-0.10200000000000001,-0.992,-0.047,61.44,-10.23,-76.58,-0.4485,0.4828,0.4938,0.5672,-0.001,0.0,0.001
2025-11-06 18:37:06.549,285.425,-0.014,-0.012,0.001,-0.10300000000000001,-0.993,-0.05,61.44,-10.23,-76.58,-0.4486,0.4827,0.4937,0.5672,0.0,0.0,0.004
2025-11-06 18:37:06.549,285.43,-0.014,-0.005,0.002,-0.10300000000000001,-0.993,-0.05,62.050000000000004,-10.49,-76.58,-0.44880000000000003,0.48260000000000003,0.49360000000000004,0.5673,-0.001,0.0,0.004
2025-11-06 18:37:06.549,285.435,-0.01,-0.004,0.002,-0.10400000000000001,-0.992,-0.051000000000000004,62.050000000000004,-10.49,-76.58,-0.4489,0.48250000000000004,0.49350000000000005,0.5674,0.0,0.0,0.004
2025-11-06 18:37:06.551,285.44,-0.01,0.003,0.003,-0.10400000000000001,-0.992,-0.051000000000000004,62.050000000000004,-10.49,-76.58,-0.4489,0.4824,0.4934,0.5676,0.0,0.0,0.004
2025-11-06 18:37:06.551,285.445,-0.007,0.001,0.003,-0.10400000000000001,-0.99,-0.052000000000000005,61.79,-10.75,-75.56,-0.449,0.4823,0.4933,0.5677,0.0,-0.002,0.004
2025-11-06 18:37:06.551,285.45,-0.005,0.003,0.002,-0.10400000000000001,-0.989,-0.052000000000000005,61.79,-10.75,-75.56,-0.4491,0.4822,0.49310000000000004,0.5678000000000001,0.0,-0.004,0.004
2025-11-06 18:37:06.551,285.455,-0.002,-0.006,0.002,-0.105,-0.99,-0.052000000000000005,62.9,-9.99,-75.53,-0.44920000000000004,0.48210000000000003,0.49300000000000005,0.5679000000000001,0.0,-0.002,0.003
2025-11-06 18:37:06.551,285.46,-0.003,-0.013000000000000001,0.001,-0.105,-0.991,-0.051000000000000004,62.9,-9.99,-75.53,-0.44920000000000004,0.48210000000000003,0.4929,0.5680000000000001,0.0,-0.002,0.002
2025-11-06 18:37:06.551,285.465,-0.002,-0.022,0.002,-0.10300000000000001,-0.994,-0.049,62.9,-9.99,-75.53,-0.44930000000000003,0.48210000000000003,0.4929,0.5680000000000001,0.0,0.001,0.0
2025-11-06 18:37:06.551,285.47,-0.005,-0.026000000000000002,0.003,-0.10300000000000001,-0.994,-0.047,62.14,-10.64,-75.03,-0.44930000000000003,0.48210000000000003,0.4929,0.5679000000000001,-0.001,0.001,-0.001
2025-11-06 18:37:06.551,285.475,-0.008,-0.032,0.0,-0.1,-0.996,-0.045,62.14,-10.64,-75.03,-0.4494,0.4822,0.49300000000000005,0.5677,-0.003,0.002,-0.003
2025-11-06 18:37:06.551,285.48,-0.01,-0.034,0.003,-0.101,-0.994,-0.044,61.26,-10.55,-75.5,-0.4494,0.4822,0.49310000000000004,0.5675,-0.002,0.001,-0.003
2025-11-06 18:37:06.551,285.485,-0.01,-0.034,0.003,-0.099,-0.994,-0.044,61.26,-10.55,-75.5,-0.4495,0.4822,0.4933,0.5673,-0.004,0.001,-0.003
2025-11-06 18:37:06.551,285.49,-0.01,-0.031,0.003,-0.099,-0.993,-0.044,61.7,-10.55,-75.32000000000001,-0.4496,0.4822,0.4934,0.5671,-0.004,0.0,-0.003
2025-11-06 18:37:06.551,285.495,-0.011,-0.028,0.002,-0.098,-0.992,-0.042,61.7,-10.55,-75.32000000000001,-0.4496,0.4823,0.49360000000000004,0.5669000000000001,-0.004,-0.001,-0.004
2025-11-06 18:37:06.551,285.5,-0.012,-0.025,0.004,-0.097,-0.992,-0.043000000000000003,61.7,-10.55,-75.32000000000001,-0.44970000000000004,0.4822,0.4938,0.5667,-0.005,-0.001,-0.003
2025-11-06 18:37:06.551,285.505,-0.014,-0.024,0.003,-0.098,-0.992,-0.042,61.61,-10.61,-75.03,-0.44970000000000004,0.4823,0.4939,0.5666,-0.004,-0.001,-0.004
2025-11-06 18:37:06.551,285.51,-0.017,-0.02,0.005,-0.097,-0.993,-0.04,61.61,-10.61,-75.03,-0.44980000000000003,0.4823,0.49410000000000004,0.5663,-0.004,0.0,-0.005
2025-11-06 18:37:06.551,285.515,-0.015,-0.024,0.005,-0.095,-0.993,-0.038,61.99,-10.31,-75.35000000000001,-0.44980000000000003,0.4824,0.4944,0.5661,-0.005,0.0,-0.007
2025-11-06 18:37:06.551,285.52,-0.019,-0.025,0.005,-0.096,-0.994,-0.039,61.99,-10.31,-75.35000000000001,-0.44980000000000003,0.4824,0.49460000000000004,0.5658000000000001,-0.004,0.0,-0.006
2025-11-06 18:37:06.551,285.525,-0.024,-0.033,0.006,-0.096,-0.994,-0.039,61.99,-10.31,-75.35000000000001,-0.4499,0.4824,0.49470000000000003,0.5656,-0.004,0.0,-0.005
2025-11-06 18:37:06.551,285.53,-0.021,-0.035,0.006,-0.095,-0.996,-0.04,61.56,-10.4,-75.32000000000001,-0.45,0.4824,0.4949,0.5654,-0.004,0.002,-0.003
2025-11-06 18:37:06.551,285.535,-0.023,-0.035,0.006,-0.093,-0.994,-0.044,61.56,-10.4,-75.32000000000001,-0.45020000000000004,0.4824,0.4949,0.5652,-0.006,0.0,0.0
2025-11-06 18:37:06.551,285.54,-0.021,-0.042,0.007,-0.094,-0.994,-0.046,62.29,-10.49,-75.47,-0.4505,0.4823,0.4949,0.5652,-0.005,0.0,0.001
2025-11-06 18:37:06.551,285.545,-0.024,-0.043000000000000003,0.005,-0.092,-0.995,-0.048,62.29,-10.49,-75.47,-0.45080000000000003,0.48210000000000003,0.4948,0.5651,-0.006,0.001,0.003
2025-11-06 18:37:06.551,285.55,-0.022,-0.048,0.008,-0.09,-0.995,-0.048,62.050000000000004,-10.870000000000001,-74.94,-0.45120000000000005,0.48190000000000005,0.4948,0.5649000000000001,-0.007,0.001,0.003
2025-11-06 18:37:06.552,285.555,-0.021,-0.05,0.006,-0.09,-0.994,-0.047,62.050000000000004,-10.870000000000001,-74.94,-0.4515,0.4818,0.4948,0.5648000000000001,-0.007,0.0,0.002
2025-11-06 18:37:06.552,285.56,-0.022,-0.048,0.006,-0.091,-0.993,-0.046,62.050000000000004,-10.870000000000001,-74.94,-0.45180000000000003,0.4817,0.4948,0.5646,-0.005,0.0,0.0
2025-11-06 18:37:06.554,285.565,-0.021,-0.055,0.008,-0.09,-0.994,-0.044,61.29,-10.43,-75.44,-0.452,0.4817,0.4949,0.5645,-0.005,0.0,-0.001
2025-11-06 18:37:06.554,285.57,-0.023,-0.058,0.005,-0.091,-0.996,-0.044,61.29,-10.43,-75.44,-0.45220000000000005,0.4817,0.4949,0.5643,-0.004,0.002,-0.001
2025-11-06 18:37:06.554,285.575,-0.027,-0.06,0.006,-0.093,-0.996,-0.042,61.730000000000004,-10.43,-75.85000000000001,-0.45220000000000005,0.4817,0.49500000000000005,0.5641,-0.002,0.002,-0.002
2025-11-06 18:37:06.554,285.58,-0.031,-0.063,0.008,-0.093,-0.997,-0.043000000000000003,61.730000000000004,-10.43,-75.85000000000001,-0.4524,0.4817,0.49500000000000005,0.5640000000000001,-0.002,0.003,-0.002
2025-11-06 18:37:06.554,285.585,-0.036000000000000004,-0.073,0.006,-0.091,-0.998,-0.042,61.730000000000004,-10.43,-75.85000000000001,-0.4525,0.4818,0.49500000000000005,0.5638000000000001,-0.003,0.003,-0.002
2025-11-06 18:37:06.554,285.59,-0.043000000000000003,-0.075,0.008,-0.089,-0.998,-0.038,61.26,-9.76,-76.17,-0.4526,0.4818,0.49520000000000003,0.5635,-0.005,0.004,-0.007
2025-11-06 18:37:06.554,285.595,-0.044,-0.075,0.006,-0.089,-0.999,-0.039,61.26,-9.76,-76.17,-0.45270000000000005,0.48190000000000005,0.4953,0.5633,-0.005,0.004,-0.005
2025-11-06 18:37:06.554,285.6,-0.047,-0.075,0.009000000000000001,-0.08700000000000001,-0.998,-0.038,61.18,-10.02,-75.67,-0.4529,0.48190000000000005,0.4955,0.5630000000000001,-0.006,0.004,-0.006
2025-11-06 18:37:06.554,285.605,-0.047,-0.073,0.008,-0.088,-0.997,-0.041,61.18,-10.02,-75.67,-0.453,0.48190000000000005,0.4955,0.5628000000000001,-0.004,0.003,-0.003
2025-11-06 18:37:06.554,285.61,-0.052000000000000005,-0.07,0.011,-0.088,-0.996,-0.041,61.18,-10.08,-75.41,-0.45320000000000005,0.48190000000000005,0.49560000000000004,0.5626,-0.005,0.001,-0.002
2025-11-06 18:37:06.554,285.615,-0.049,-0.075,0.014,-0.089,-0.996,-0.041,61.18,-10.08,-75.41,-0.4534,0.48200000000000004,0.4955,0.5625,-0.002,0.002,-0.002
2025-11-06 18:37:06.554,285.62,-0.05,-0.073,0.014,-0.09,-0.994,-0.043000000000000003,61.18,-10.08,-75.41,-0.4536,0.48200000000000004,0.4954,0.5624,-0.002,0.0,-0.001
2025-11-06 18:37:06.554,285.625,-0.049,-0.078,0.014,-0.088,-0.995,-0.044,61.99,-10.28,-75.56,-0.45380000000000004,0.48200000000000004,0.4953,0.5623,-0.003,0.001,0.0
2025-11-06 18:37:06.554,285.63,-0.047,-0.074,0.014,-0.09,-0.997,-0.043000000000000003,61.99,-10.28,-75.56,-0.454,0.48200000000000004,0.4953,0.5622,-0.001,0.002,-0.001
2025-11-06 18:37:06.555,285.635,-0.044,-0.077,0.017,-0.091,-0.996,-0.042,61.64,-10.23,-75.59,-0.4541,0.48210000000000003,0.49520000000000003,0.5621,0.0,0.001,-0.002
2025-11-06 18:37:06.555,285.64,-0.047,-0.083,0.018000000000000002,-0.088,-0.996,-0.043000000000000003,61.64,-10.23,-75.59,-0.45430000000000004,0.48210000000000003,0.49510000000000004,0.562,-0.003,0.001,-0.001
2025-11-06 18:37:06.555,285.645,-0.047,-0.09,0.016,-0.085,-0.996,-0.045,61.64,-10.23,-75.59,-0.4546,0.48210000000000003,0.49500000000000005,0.5618000000000001,-0.005,0.001,0.0
2025-11-06 18:37:06.555,285.65,-0.05,-0.095,0.017,-0.08600000000000001,-0.996,-0.047,61.35,-10.58,-76.64,-0.455,0.48210000000000003,0.4948,0.5617,-0.005,0.001,0.002
2025-11-06 18:37:06.555,285.655,-0.055,-0.101,0.017,-0.08600000000000001,-0.995,-0.048,61.35,-10.58,-76.64,-0.4554,0.48200000000000004,0.49460000000000004,0.5616,-0.004,0.0,0.002
2025-11-06 18:37:06.555,285.66,-0.057,-0.107,0.017,-0.088,-0.994,-0.046,61.15,-10.46,-75.56,-0.4556,0.48210000000000003,0.4944,0.5615,-0.002,0.0,0.0
2025-11-06 18:37:06.555,285.665,-0.06,-0.113,0.017,-0.08600000000000001,-0.995,-0.044,61.15,-10.46,-75.56,-0.4559,0.48210000000000003,0.4943,0.5614,-0.003,0.001,-0.001
2025-11-06 18:37:06.555,285.67,-0.06,-0.117,0.019,-0.088,-0.996,-0.042,61.230000000000004,-10.69,-76.26,-0.456,0.4823,0.4943,0.5612,-0.002,0.001,-0.003
2025-11-06 18:37:06.556,285.675,-0.061,-0.12,0.016,-0.091,-0.997,-0.042,61.230000000000004,-10.69,-76.26,-0.4561,0.4824,0.49410000000000004,0.5611,0.0,0.003,-0.003
2025-11-06 18:37:06.556,285.68,-0.062,-0.136,0.021,-0.09,-0.999,-0.039,61.230000000000004,-10.69,-76.26,-0.4562,0.4827,0.49410000000000004,0.5609000000000001,0.0,0.004,-0.006
2025-11-06 18:37:06.556,285.685,-0.063,-0.14200000000000002,0.023,-0.09,-0.999,-0.035,61.56,-10.61,-75.62,-0.4561,0.48300000000000004,0.49410000000000004,0.5607,0.0,0.004,-0.009000000000000001
2025-11-06 18:37:06.556,285.69,-0.066,-0.14200000000000002,0.025,-0.09,-0.999,-0.036000000000000004,61.56,-10.61,-75.62,-0.4561,0.4832,0.49410000000000004,0.5604,0.0,0.004,-0.008
2025-11-06 18:37:06.556,285.695,-0.067,-0.14200000000000002,0.024,-0.088,-0.997,-0.039,61.82,-9.9,-76.26,-0.45630000000000004,0.4834,0.49400000000000005,0.5602,-0.002,0.002,-0.005
2025-11-06 18:37:06.556,285.7,-0.067,-0.14400000000000002,0.027,-0.088,-0.995,-0.041,61.82,-9.9,-76.26,-0.4565,0.48360000000000003,0.4939,0.56,-0.002,0.001,-0.002
2025-11-06 18:37:06.556,285.705,-0.065,-0.14400000000000002,0.03,-0.08700000000000001,-0.994,-0.04,61.82,-9.9,-76.26,-0.4567,0.4838,0.4937,0.5598000000000001,-0.003,0.0,-0.003
2025-11-06 18:37:06.556,285.71,-0.061,-0.139,0.03,-0.088,-0.993,-0.041,61.0,-10.17,-76.84,-0.45690000000000003,0.4839,0.49360000000000004,0.5597,-0.002,-0.001,-0.003
2025-11-06 18:37:06.556,285.715,-0.06,-0.138,0.031,-0.089,-0.993,-0.041,61.0,-10.17,-76.84,-0.4571,0.48410000000000003,0.4934,0.5595,-0.001,-0.001,-0.002
2025-11-06 18:37:06.556,285.72,-0.058,-0.135,0.033,-0.088,-0.994,-0.042,61.06,-10.43,-76.52,-0.45730000000000004,0.4843,0.4932,0.5594,-0.002,0.0,-0.001
2025-11-06 18:37:06.556,285.725,-0.055,-0.137,0.034,-0.09,-0.995,-0.042,61.06,-10.43,-76.52,-0.45740000000000003,0.4844,0.49300000000000005,0.5593,0.0,0.0,-0.001
2025-11-06 18:37:06.556,285.73,-0.055,-0.138,0.036000000000000004,-0.091,-0.999,-0.043000000000000003,60.83,-10.69,-76.32000000000001,-0.4576,0.48460000000000003,0.4927,0.5592,0.0,0.004,0.0
2025-11-06 18:37:06.556,285.735,-0.055,-0.14200000000000002,0.039,-0.092,-0.998,-0.042,60.83,-10.69,-76.32000000000001,-0.4577,0.4849,0.49250000000000005,0.5591,0.0,0.004,-0.001
2025-11-06 18:37:06.556,285.74,-0.058,-0.139,0.041,-0.09,-0.998,-0.043000000000000003,60.83,-10.69,-76.32000000000001,-0.45790000000000003,0.48500000000000004,0.4923,0.559,-0.001,0.004,0.0
2025-11-06 18:37:06.556,285.745,-0.059000000000000004,-0.14400000000000002,0.042,-0.089,-0.996,-0.041,61.61,-10.4,-77.05,-0.4581,0.4852,0.49210000000000004,0.5589000000000001,-0.002,0.001,-0.003
2025-11-06 18:37:06.556,285.75,-0.062,-0.14200000000000002,0.044,-0.08700000000000001,-0.997,-0.043000000000000003,61.61,-10.4,-77.05,-0.45840000000000003,0.4854,0.4919,0.5587,-0.003,0.002,-0.001
2025-11-06 18:37:06.556,285.755,-0.058,-0.145,0.044,-0.08700000000000001,-0.994,-0.042,60.71,-10.69,-76.14,-0.4586,0.48550000000000004,0.4918,0.5585,-0.003,0.0,-0.002
2025-11-06 18:37:06.556,285.76,-0.057,-0.148,0.042,-0.08700000000000001,-0.993,-0.041,60.71,-10.69,-76.14,-0.45880000000000004,0.4857,0.49160000000000004,0.5583,-0.003,-0.001,-0.003
2025-11-06 18:37:06.556,285.765,-0.056,-0.152,0.045,-0.08700000000000001,-0.993,-0.042,61.410000000000004,-10.26,-76.73,-0.4591,0.4859,0.4914,0.5581,-0.004,-0.001,-0.001
2025-11-06 18:37:06.556,285.77,-0.055,-0.158,0.044,-0.08700000000000001,-0.994,-0.042,61.410000000000004,-10.26,-76.73,-0.45930000000000004,0.48610000000000003,0.4913,0.5579000000000001,-0.003,0.0,-0.002
2025-11-06 18:37:06.556,285.775,-0.059000000000000004,-0.163,0.041,-0.089,-0.993,-0.044,61.410000000000004,-10.26,-76.73,-0.4596,0.4863,0.49100000000000005,0.5578000000000001,-0.001,-0.001,0.0
2025-11-06 18:37:06.556,285.78,-0.062,-0.169,0.042,-0.08700000000000001,-0.991,-0.044,62.2,-10.26,-76.2,-0.45990000000000003,0.4864,0.4907,0.5576,-0.003,-0.002,0.0
2025-11-06 18:37:06.556,285.785,-0.065,-0.177,0.041,-0.085,-0.991,-0.045,62.2,-10.26,-76.2,-0.46030000000000004,0.48660000000000003,0.4904,0.5574,-0.005,-0.003,0.0
2025-11-06 18:37:06.556,285.79,-0.07100000000000001,-0.183,0.042,-0.08700000000000001,-0.993,-0.049,60.97,-10.52,-76.99,-0.46080000000000004,0.48660000000000003,0.49000000000000005,0.5573,-0.003,-0.001,0.003
2025-11-06 18:37:06.556,285.795,-0.07200000000000001,-0.197,0.039,-0.077,-0.994,-0.05,60.97,-10.52,-76.99,-0.4615,0.48660000000000003,0.4898,0.557,-0.012,0.0,0.003
2025-11-06 18:37:06.556,285.8,-0.077,-0.20400000000000001,0.039,-0.091,-0.997,-0.05,60.97,-10.52,-76.99,-0.46190000000000003,0.4868,0.4892,0.5569000000000001,0.001,0.002,0.003
2025-11-06 18:37:06.556,285.805,-0.082,-0.20500000000000002,0.041,-0.08600000000000001,-1.0,-0.053,61.730000000000004,-10.61,-76.84,-0.46240000000000003,0.4868,0.4887,0.5568000000000001,-0.003,0.005,0.006
2025-11-06 18:37:06.556,285.81,-0.079,-0.20400000000000001,0.043000000000000003,-0.089,-0.999,-0.056,61.730000000000004,-10.61,-76.84,-0.463,0.4869,0.48810000000000003,0.5568000000000001,0.0,0.004,0.007
2025-11-06 18:37:06.556,285.815,-0.074,-0.20700000000000002,0.048,-0.09,-0.997,-0.059000000000000004,61.32,-10.9,-77.4,-0.4635,0.48710000000000003,0.48750000000000004,0.5569000000000001,0.0,0.002,0.009000000000000001
2025-11-06 18:37:06.556,285.82,-0.07100000000000001,-0.20700000000000002,0.052000000000000005,-0.093,-0.993,-0.064,61.32,-10.9,-77.4,-0.4641,0.4872,0.48660000000000003,0.5571,0.002,-0.001,0.013000000000000001
2025-11-06 18:37:06.556,285.825,-0.065,-0.20500000000000002,0.054,-0.096,-0.991,-0.066,60.71,-10.46,-77.22,-0.4646,0.4873,0.48560000000000003,0.5573,0.004,-0.003,0.013000000000000001
2025-11-06 18:37:06.556,285.83,-0.058,-0.20500000000000002,0.058,-0.1,-0.988,-0.07,60.71,-10.46,-77.22,-0.4651,0.48750000000000004,0.48460000000000003,0.5577,0.007,-0.006,0.016
2025-11-06 18:37:06.556,285.835,-0.053,-0.199,0.06,-0.105,-0.985,-0.07100000000000001,60.71,-10.46,-77.22,-0.4655,0.4878,0.4834,0.5581,0.011,-0.008,0.015
2025-11-06 18:37:06.556,285.84,-0.043000000000000003,-0.199,0.064,-0.109,-0.983,-0.07200000000000001,61.940000000000005,-10.46,-77.14,-0.46580000000000005,0.4883,0.4822,0.5585,0.013000000000000001,-0.01,0.014
2025-11-06 18:37:06.556,285.845,-0.035,-0.197,0.061,-0.111,-0.982,-0.07100000000000001,61.940000000000005,-10.46,-77.14,-0.466,0.4887,0.48100000000000004,0.5589000000000001,0.013000000000000001,-0.01,0.012
2025-11-06 18:37:06.556,285.85,-0.033,-0.194,0.061,-0.114,-0.984,-0.065,60.53,-9.99,-77.11,-0.4661,0.4894,0.48000000000000004,0.5592,0.015,-0.009000000000000001,0.005
2025-11-06 18:37:06.556,285.855,-0.033,-0.191,0.06,-0.117,-0.987,-0.062,60.53,-9.99,-77.11,-0.466,0.4902,0.4791,0.5593,0.015,-0.005,0.002
2025-11-06 18:37:06.556,285.86,-0.035,-0.188,0.054,-0.121,-0.992,-0.058,60.53,-9.99,-77.11,-0.46590000000000004,0.49110000000000004,0.4782,0.5594,0.018000000000000002,0.0,-0.001
2025-11-06 18:37:06.556,285.865,-0.039,-0.18,0.05,-0.124,-0.994,-0.057,61.67,-10.34,-77.25,-0.46580000000000005,0.49200000000000005,0.4773,0.5594,0.019,0.001,-0.002
2025-11-06 18:37:06.556,285.87,-0.043000000000000003,-0.171,0.05,-0.129,-0.994,-0.059000000000000004,61.67,-10.34,-77.25,-0.4656,0.4929,0.4763,0.5596,0.021,0.001,0.0
2025-11-06 18:37:06.556,285.875,-0.05,-0.16,0.049,-0.133,-0.994,-0.06,60.74,-10.23,-78.28,-0.46540000000000004,0.4938,0.4753,0.5598000000000001,0.023,0.002,0.0
2025-11-06 18:37:06.556,285.88,-0.05,-0.14400000000000002,0.049,-0.139,-0.991,-0.067,60.74,-10.23,-78.28,-0.4652,0.49460000000000004,0.4741,0.5604,0.026000000000000002,0.0,0.007
2025-11-06 18:37:06.556,285.885,-0.05,-0.128,0.049,-0.14,-0.988,-0.073,60.800000000000004,-10.52,-77.19,-0.46490000000000004,0.49500000000000005,0.47290000000000004,0.5612,0.024,-0.003,0.012
2025-11-06 18:37:06.557,285.89,-0.048,-0.116,0.046,-0.14100000000000001,-0.985,-0.081,60.800000000000004,-10.52,-77.19,-0.4647,0.4953,0.4718,0.5621,0.024,-0.005,0.017
2025-11-06 18:37:06.559,285.895,-0.041,-0.106,0.047,-0.14400000000000002,-0.981,-0.081,60.800000000000004,-10.52,-77.19,-0.4645,0.4955,0.4706,0.5631,0.023,-0.008,0.016
2025-11-06 18:37:06.559,285.9,-0.034,-0.094,0.043000000000000003,-0.147,-0.978,-0.081,60.47,-10.31,-78.25,-0.4642,0.4959,0.46940000000000004,0.5640000000000001,0.024,-0.011,0.014
2025-11-06 18:37:06.559,285.905,-0.025,-0.07100000000000001,0.041,-0.149,-0.975,-0.081,60.47,-10.31,-78.25,-0.46390000000000003,0.4963,0.46830000000000005,0.5648000000000001,0.023,-0.014,0.012
2025-11-06 18:37:06.559,285.91,-0.018000000000000002,-0.062,0.041,-0.15,-0.974,-0.078,61.64,-10.58,-78.19,-0.4636,0.4968,0.4672,0.5655,0.022,-0.015,0.009000000000000001
2025-11-06 18:37:06.559,285.915,-0.015,-0.047,0.039,-0.152,-0.972,-0.076,61.64,-10.58,-78.19,-0.46340000000000003,0.4973,0.4662,0.5660000000000001,0.021,-0.016,0.006
2025-11-06 18:37:06.559,285.92,-0.013000000000000001,-0.034,0.038,-0.149,-0.972,-0.074,61.64,-10.58,-78.19,-0.4631,0.4979,0.46540000000000004,0.5664,0.017,-0.016,0.003
2025-11-06 18:37:06.559,285.925,-0.011,-0.024,0.035,-0.148,-0.976,-0.07200000000000001,61.230000000000004,-9.96,-77.28,-0.463,0.4984,0.4647,0.5667,0.014,-0.012,0.001
2025-11-06 18:37:06.559,285.93,-0.015,-0.015,0.033,-0.149,-0.979,-0.07200000000000001,61.230000000000004,-9.96,-77.28,-0.46280000000000004,0.4989,0.464,0.5669000000000001,0.013000000000000001,-0.009000000000000001,0.001
2025-11-06 18:37:06.559,285.935,-0.017,-0.009000000000000001,0.03,-0.149,-0.981,-0.073,60.83,-10.72,-77.75,-0.4626,0.4993,0.4635,0.5672,0.012,-0.006,0.001
2025-11-06 18:37:06.559,285.94,-0.018000000000000002,0.0,0.033,-0.149,-0.982,-0.07200000000000001,60.83,-10.72,-77.75,-0.46240000000000003,0.49970000000000003,0.463,0.5674,0.01,-0.004,0.0
2025-11-06 18:37:06.559,285.945,-0.017,0.002,0.034,-0.149,-0.983,-0.077,60.24,-10.28,-77.95,-0.4622,0.49970000000000003,0.4626,0.5678000000000001,0.009000000000000001,-0.003,0.005
2025-11-06 18:37:06.559,285.95,-0.015,0.015,0.034,-0.148,-0.983,-0.084,60.24,-10.28,-77.95,-0.462,0.4995,0.46230000000000004,0.5685,0.008,-0.004,0.011
2025-11-06 18:37:06.559,285.955,-0.014,0.024,0.035,-0.149,-0.981,-0.088,60.24,-10.28,-77.95,-0.4616,0.499,0.462,0.5694,0.008,-0.005,0.013000000000000001
2025-11-06 18:37:06.559,285.96,-0.01,0.026000000000000002,0.034,-0.148,-0.981,-0.094,60.77,-10.49,-77.66,-0.46130000000000004,0.4983,0.46180000000000004,0.5705,0.006,-0.005,0.018000000000000002
2025-11-06 18:37:06.559,285.965,-0.006,0.032,0.033,-0.147,-0.98,-0.095,60.77,-10.49,-77.66,-0.461,0.49760000000000004,0.4616,0.5715,0.004,-0.006,0.017
2025-11-06 18:37:06.559,285.97,-0.002,0.032,0.034,-0.146,-0.979,-0.098,60.47,-10.31,-77.17,-0.4607,0.4968,0.4615,0.5726,0.002,-0.007,0.019
2025-11-06 18:37:06.559,285.975,0.002,0.029,0.033,-0.146,-0.98,-0.098,60.47,-10.31,-77.17,-0.46040000000000003,0.496,0.46140000000000003,0.5735,0.002,-0.005,0.017
2025-11-06 18:37:06.559,285.98,0.002,0.024,0.031,-0.145,-0.982,-0.094,60.47,-10.31,-77.17,-0.4602,0.49560000000000004,0.46130000000000004,0.5741,0.001,-0.003,0.011
2025-11-06 18:37:06.559,285.985,-0.002,0.021,0.031,-0.145,-0.985,-0.093,59.800000000000004,-10.28,-77.05,-0.4601,0.49520000000000003,0.4612,0.5746,0.0,0.0,0.009000000000000001
2025-11-06 18:37:06.559,285.99,-0.004,0.012,0.028,-0.145,-0.986,-0.08600000000000001,59.800000000000004,-10.28,-77.05,-0.46,0.49510000000000004,0.4612,0.5748,0.0,0.0,0.002
2025-11-06 18:37:06.559,285.995,-0.009000000000000001,0.012,0.028,-0.145,-0.987,-0.08,59.89,-10.49,-77.31,-0.46,0.49520000000000003,0.4611,0.5747,0.0,0.001,-0.003
2025-11-06 18:37:06.559,286.0,-0.014,0.011,0.03,-0.14300000000000002,-0.988,-0.08,59.89,-10.49,-77.31,-0.46,0.4954,0.4612,0.5746,-0.001,0.002,-0.003
2025-11-06 18:37:06.559,286.005,-0.017,0.012,0.03,-0.14200000000000002,-0.986,-0.08,61.0,-10.200000000000001,-77.66,-0.46,0.4954,0.4612,0.5745,-0.001,0.0,-0.002
2025-11-06 18:37:06.559,286.01,-0.022,0.019,0.03,-0.14100000000000001,-0.987,-0.082,61.0,-10.200000000000001,-77.66,-0.46,0.4953,0.46130000000000004,0.5745,-0.003,0.001,-0.001
2025-11-06 18:37:06.559,286.015,-0.022,0.022,0.028,-0.14100000000000001,-0.985,-0.083,61.0,-10.200000000000001,-77.66,-0.45990000000000003,0.49520000000000003,0.46140000000000003,0.5746,-0.003,0.0,0.0
2025-11-06 18:37:06.559,286.02,-0.024,0.03,0.028,-0.14300000000000002,-0.982,-0.08600000000000001,60.39,-10.11,-77.52,-0.45990000000000003,0.49500000000000005,0.46140000000000003,0.5748,-0.001,-0.003,0.002
2025-11-06 18:37:06.559,286.025,-0.019,0.036000000000000004,0.027,-0.14400000000000002,-0.982,-0.089,60.39,-10.11,-77.52,-0.45990000000000003,0.4948,0.46130000000000004,0.5751000000000001,0.0,-0.003,0.004
2025-11-06 18:37:06.559,286.03,-0.017,0.046,0.027,-0.14400000000000002,-0.979,-0.088,60.300000000000004,-10.43,-77.52,-0.45980000000000004,0.49460000000000004,0.4612,0.5754,0.0,-0.006,0.003
2025-11-06 18:37:06.559,286.035,-0.014,0.055,0.025,-0.145,-0.977,-0.089,60.300000000000004,-10.43,-77.52,-0.4597,0.4944,0.4612,0.5757,0.0,-0.008,0.004
2025-11-06 18:37:06.559,286.04,-0.004,0.069,0.025,-0.147,-0.977,-0.085,60.300000000000004,-10.43,-77.52,-0.4596,0.4944,0.4611,0.5758,0.001,-0.008,0.0
2025-11-06 18:37:06.560,286.045,0.0,0.074,0.027,-0.146,-0.978,-0.081,60.36,-10.28,-77.46000000000001,-0.45940000000000003,0.49450000000000005,0.4611,0.5759000000000001,0.001,-0.007,-0.003
2025-11-06 18:37:06.560,286.05,0.002,0.084,0.024,-0.148,-0.978,-0.082,60.36,-10.28,-77.46000000000001,-0.4592,0.49460000000000004,0.461,0.5759000000000001,0.002,-0.007,-0.002
2025-11-06 18:37:06.560,286.055,0.007,0.093,0.025,-0.148,-0.978,-0.079,60.36,-10.64,-77.14,-0.459,0.4948,0.4611,0.5759000000000001,0.002,-0.006,-0.005
2025-11-06 18:37:06.560,286.06,0.01,0.096,0.023,-0.151,-0.98,-0.076,60.36,-10.64,-77.14,-0.45880000000000004,0.49520000000000003,0.4611,0.5758,0.004,-0.005,-0.007
2025-11-06 18:37:06.560,286.065,0.011,0.099,0.023,-0.152,-0.983,-0.075,60.18,-10.69,-77.60000000000001,-0.4585,0.4955,0.4611,0.5757,0.005,-0.002,-0.008
2025-11-06 18:37:06.560,286.07,0.011,0.10200000000000001,0.02,-0.153,-0.984,-0.07100000000000001,60.18,-10.69,-77.60000000000001,-0.4582,0.496,0.4611,0.5755,0.005,0.0,-0.01
2025-11-06 18:37:06.560,286.075,0.013000000000000001,0.098,0.02,-0.153,-0.985,-0.07,60.18,-10.69,-77.60000000000001,-0.45790000000000003,0.4964,0.4612,0.5753,0.005,0.0,-0.01
2025-11-06 18:37:06.560,286.08,0.014,0.1,0.02,-0.152,-0.983,-0.069,61.59,-10.72,-77.31,-0.4576,0.4969,0.46130000000000004,0.5751000000000001,0.003,-0.001,-0.011
2025-11-06 18:37:06.560,286.085,0.016,0.10400000000000001,0.02,-0.152,-0.982,-0.07,61.59,-10.72,-77.31,-0.45730000000000004,0.49720000000000003,0.46140000000000003,0.5750000000000001,0.002,-0.002,-0.009000000000000001
