System_Time,Timestamp,Gyro_X,Gyro_Y,Gyro_Z,Acc_X,Acc_Y,Acc_Z,Mag_X,Mag_Y,Mag_Z,Quat_W,Quat_X,Quat_Y,Quat_Z,Linear_Acc_X,Linear_Acc_Y,Linear_Acc_Z
2025-11-06 18:32:56.168,47.425,-0.095,-0.033,-0.168,-0.201,-0.99,0.004,13.18,-5.55,-48.93,0.8784000000000001,-0.4539,-0.11,-0.1009,0.28600000000000003,0.164,-0.539
2025-11-06 18:32:56.168,47.43,-0.28600000000000003,1.545,-1.237,-0.192,-0.992,0.07100000000000001,13.18,-5.55,-48.93,0.8786,-0.4526,-0.11470000000000001,-0.1,0.28300000000000003,0.169,-0.606
2025-11-06 18:32:56.168,47.435,-1.175,5.163,-3.887,-0.189,-0.999,0.082,12.450000000000001,-5.9,-52.47,0.8792000000000001,-0.4475,-0.1301,-0.0978,0.305,0.18,-0.618
2025-11-06 18:32:56.168,47.44,-0.687,3.111,-2.361,-0.185,-1.0030000000000001,0.093,12.450000000000001,-5.9,-52.47,0.8795000000000001,-0.4445,-0.1394,-0.0964,0.327,0.19,-0.63
2025-11-06 18:32:56.168,47.445,0.101,-0.267,0.20800000000000002,-0.181,-1.0070000000000001,0.10200000000000001,12.77,-5.8100000000000005,-52.61,0.8794000000000001,-0.445,-0.1386,-0.0964,0.323,0.193,-0.639
2025-11-06 18:32:56.168,47.45,-0.153,-0.023,0.07200000000000001,-0.178,-1.006,0.109,12.77,-5.8100000000000005,-52.61,0.8795000000000001,-0.4449,-0.1384,-0.0964,0.319,0.193,-0.646
2025-11-06 18:32:56.168,47.455,-0.224,0.053,0.026000000000000002,-0.17500000000000002,-1.008,0.111,12.77,-5.8100000000000005,-52.61,0.8796,-0.4445,-0.1384,-0.0965,0.316,0.195,-0.649
2025-11-06 18:32:56.168,47.46,-0.229,0.07,0.007,-0.17400000000000002,-1.012,0.108,12.01,-5.72,-52.49,0.8798,-0.4441,-0.1384,-0.0965,0.315,0.2,-0.646
2025-11-06 18:32:56.168,47.465,-0.227,0.076,-0.008,-0.176,-1.014,0.10300000000000001,12.01,-5.72,-52.49,0.88,-0.44370000000000004,-0.1385,-0.0966,0.317,0.202,-0.641
2025-11-06 18:32:56.168,47.47,-0.217,0.075,-0.02,-0.181,-1.018,0.097,12.07,-5.72,-52.47,0.8802000000000001,-0.4433,-0.1386,-0.0966,0.323,0.20600000000000002,-0.636
2025-11-06 18:32:56.168,47.475,-0.20400000000000001,0.07200000000000001,-0.033,-0.188,-1.018,0.091,12.07,-5.72,-52.47,0.8804000000000001,-0.4429,-0.13870000000000002,-0.0966,0.33,0.20700000000000002,-0.631
2025-11-06 18:32:56.168,47.48,-0.191,0.063,-0.043000000000000003,-0.198,-1.0170000000000001,0.08600000000000001,12.07,-5.72,-52.47,0.8806,-0.4425,-0.1389,-0.0966,0.34,0.20600000000000002,-0.626
2025-11-06 18:32:56.168,47.485,-0.18,0.055,-0.053,-0.212,-1.0150000000000001,0.076,11.66,-5.17,-52.0,0.8807,-0.44210000000000005,-0.139,-0.0966,0.354,0.20500000000000002,-0.617
2025-11-06 18:32:56.168,47.49,-0.165,0.054,-0.055,-0.225,-1.01,0.064,11.66,-5.17,-52.0,0.8809,-0.4418,-0.1391,-0.0966,0.368,0.199,-0.606
2025-11-06 18:32:56.168,47.495,-0.158,0.049,-0.053,-0.23500000000000001,-1.008,0.052000000000000005,12.36,-5.58,-52.47,0.881,-0.4415,-0.13920000000000002,-0.0965,0.378,0.197,-0.594
2025-11-06 18:32:56.168,47.5,-0.151,0.048,-0.049,-0.244,-1.0030000000000001,0.043000000000000003,12.36,-5.58,-52.47,0.8812000000000001,-0.4413,-0.1393,-0.0965,0.388,0.193,-0.586
2025-11-06 18:32:56.168,47.505,-0.146,0.051000000000000004,-0.043000000000000003,-0.254,-0.997,0.037,12.36,-5.58,-52.47,0.8812000000000001,-0.441,-0.1393,-0.0965,0.397,0.186,-0.581
2025-11-06 18:32:56.168,47.51,-0.14,0.052000000000000005,-0.033,-0.264,-0.99,0.034,12.620000000000001,-5.4,-52.64,0.8813000000000001,-0.4409,-0.1394,-0.0965,0.40800000000000003,0.18,-0.577
2025-11-06 18:32:56.168,47.515,-0.133,0.054,-0.02,-0.276,-0.982,0.034,12.620000000000001,-5.4,-52.64,0.8813000000000001,-0.4409,-0.1394,-0.0966,0.419,0.17200000000000001,-0.578
2025-11-06 18:32:56.168,47.52,-0.121,0.055,-0.009000000000000001,-0.28400000000000003,-0.974,0.036000000000000004,12.18,-5.14,-52.79,0.8812000000000001,-0.44120000000000004,-0.13920000000000002,-0.09680000000000001,0.427,0.163,-0.58
2025-11-06 18:32:56.168,47.525,-0.098,0.061,0.008,-0.293,-0.961,0.041,12.18,-5.14,-52.79,0.881,-0.4415,-0.1391,-0.0971,0.435,0.15,-0.585
2025-11-06 18:32:56.168,47.53,-0.08,0.063,0.018000000000000002,-0.297,-0.9510000000000001,0.045,12.18,-5.14,-52.79,0.881,-0.44160000000000005,-0.1391,-0.09730000000000001,0.439,0.139,-0.589
2025-11-06 18:32:56.168,47.535,-0.063,0.07,0.025,-0.301,-0.9400000000000001,0.049,12.21,-5.23,-53.11,0.8809,-0.4415,-0.1391,-0.0975,0.442,0.128,-0.593
2025-11-06 18:32:56.168,47.54,-0.048,0.07100000000000001,0.032,-0.303,-0.929,0.051000000000000004,12.21,-5.23,-53.11,0.8809,-0.4414,-0.13920000000000002,-0.0976,0.444,0.11800000000000001,-0.596
2025-11-06 18:32:56.168,47.545,-0.033,0.073,0.038,-0.303,-0.92,0.053,12.24,-5.29,-52.49,0.8809,-0.4414,-0.1393,-0.0978,0.444,0.108,-0.598
2025-11-06 18:32:56.168,47.55,-0.023,0.077,0.04,-0.3,-0.915,0.054,12.24,-5.29,-52.49,0.8809,-0.4414,-0.1394,-0.098,0.441,0.10400000000000001,-0.599
2025-11-06 18:32:56.168,47.555,-0.009000000000000001,0.088,0.04,-0.294,-0.914,0.058,12.24,-5.29,-52.49,0.8809,-0.4414,-0.1395,-0.09820000000000001,0.436,0.10300000000000001,-0.603
2025-11-06 18:32:56.168,47.56,-0.006,0.093,0.038,-0.28800000000000003,-0.917,0.062,12.36,-5.55,-53.02,0.8808,-0.4414,-0.13970000000000002,-0.0984,0.429,0.107,-0.607
2025-11-06 18:32:56.168,47.565,-0.003,0.101,0.038,-0.28400000000000003,-0.924,0.066,12.36,-5.55,-53.02,0.8808,-0.4414,-0.1398,-0.09860000000000001,0.426,0.113,-0.611
2025-11-06 18:32:56.168,47.57,-0.002,0.10400000000000001,0.034,-0.278,-0.929,0.07,12.040000000000001,-6.05,-52.44,0.8807,-0.4414,-0.14,-0.0988,0.42,0.11800000000000001,-0.614
2025-11-06 18:32:56.168,47.575,0.0,0.10400000000000001,0.03,-0.274,-0.937,0.075,12.040000000000001,-6.05,-52.44,0.8806,-0.4415,-0.14020000000000002,-0.099,0.41600000000000004,0.126,-0.619
2025-11-06 18:32:56.168,47.58,0.002,0.106,0.026000000000000002,-0.269,-0.9430000000000001,0.074,12.040000000000001,-6.05,-52.44,0.8805000000000001,-0.44160000000000005,-0.1403,-0.09920000000000001,0.41100000000000003,0.132,-0.617
2025-11-06 18:32:56.168,47.585,0.004,0.10400000000000001,0.023,-0.272,-0.9480000000000001,0.074,11.83,-5.58,-52.79,0.8804000000000001,-0.44170000000000004,-0.1405,-0.0993,0.41400000000000003,0.137,-0.617
2025-11-06 18:32:56.168,47.59,0.009000000000000001,0.11,0.015,-0.272,-0.9540000000000001,0.07100000000000001,11.83,-5.58,-52.79,0.8803000000000001,-0.4419,-0.1406,-0.0994,0.41400000000000003,0.14300000000000002,-0.614
2025-11-06 18:32:56.168,47.595,0.015,0.115,0.011,-0.272,-0.9590000000000001,0.069,11.83,-5.58,-52.96,0.8801,-0.4423,-0.14070000000000002,-0.0995,0.41500000000000004,0.147,-0.61
2025-11-06 18:32:56.168,47.6,0.022,0.121,0.006,-0.274,-0.963,0.066,12.24,-5.93,-52.96,0.8797,-0.4429,-0.14070000000000002,-0.09960000000000001,0.41600000000000004,0.15,-0.606
2025-11-06 18:32:56.168,47.605,0.031,0.13,-0.002,-0.279,-0.968,0.061,12.24,-5.93,-52.96,0.8793000000000001,-0.44380000000000003,-0.14070000000000002,-0.09970000000000001,0.421,0.154,-0.6
2025-11-06 18:32:56.168,47.61,0.041,0.137,-0.009000000000000001,-0.28400000000000003,-0.971,0.056,11.69,-5.78,-52.67,0.8789,-0.4445,-0.14070000000000002,-0.0999,0.425,0.155,-0.593
2025-11-06 18:32:56.169,47.615,0.046,0.14300000000000002,-0.013000000000000001,-0.291,-0.97,0.052000000000000005,11.69,-5.78,-52.67,0.8785000000000001,-0.44520000000000004,-0.1408,-0.10010000000000001,0.432,0.153,-0.588
2025-11-06 18:32:56.169,47.62,0.05,0.145,-0.016,-0.296,-0.97,0.046,11.69,-5.78,-52.67,0.8782000000000001,-0.44580000000000003,-0.1409,-0.1003,0.437,0.153,-0.582
2025-11-06 18:32:56.169,47.625,0.051000000000000004,0.14300000000000002,-0.015,-0.3,-0.969,0.043000000000000003,11.69,-5.93,-52.7,0.8778,-0.4464,-0.14100000000000001,-0.10060000000000001,0.441,0.151,-0.577
2025-11-06 18:32:56.169,47.63,0.05,0.137,-0.013000000000000001,-0.304,-0.971,0.042,11.69,-5.93,-52.7,0.8775000000000001,-0.4469,-0.14120000000000002,-0.1008,0.444,0.152,-0.5750000000000001
2025-11-06 18:32:56.169,47.635,0.05,0.128,-0.011,-0.308,-0.966,0.041,11.66,-6.05,-53.2,0.8772000000000001,-0.4475,-0.14120000000000002,-0.1012,0.448,0.146,-0.5740000000000001
2025-11-06 18:32:56.169,47.64,0.049,0.11800000000000001,-0.005,-0.31,-0.961,0.045,11.66,-6.05,-53.2,0.8767,-0.44830000000000003,-0.1411,-0.10160000000000001,0.449,0.14,-0.5760000000000001
2025-11-06 18:32:56.169,47.645,0.051000000000000004,0.11800000000000001,0.001,-0.31,-0.9580000000000001,0.046,11.66,-6.05,-53.2,0.8763000000000001,-0.449,-0.1411,-0.1019,0.449,0.136,-0.5760000000000001
2025-11-06 18:32:56.169,47.65,0.051000000000000004,0.11800000000000001,0.004,-0.311,-0.9540000000000001,0.049,11.25,-5.96,-53.34,0.876,-0.4496,-0.14120000000000002,-0.1023,0.449,0.132,-0.577
2025-11-06 18:32:56.169,47.655,0.056,0.122,0.01,-0.311,-0.9550000000000001,0.049,11.25,-5.96,-53.34,0.8756,-0.4501,-0.14120000000000002,-0.10260000000000001,0.449,0.131,-0.577
2025-11-06 18:32:56.169,47.66,0.059000000000000004,0.129,0.013000000000000001,-0.31,-0.9510000000000001,0.052000000000000005,11.6,-5.84,-52.79,0.8754000000000001,-0.4505,-0.1413,-0.1029,0.447,0.127,-0.579
2025-11-06 18:32:56.169,47.665,0.059000000000000004,0.131,0.018000000000000002,-0.308,-0.9470000000000001,0.056,11.6,-5.84,-52.79,0.8752000000000001,-0.4509,-0.14150000000000001,-0.10310000000000001,0.445,0.123,-0.583
2025-11-06 18:32:56.169,47.67,0.067,0.14100000000000001,0.021,-0.303,-0.9450000000000001,0.059000000000000004,11.6,-5.84,-52.79,0.875,-0.4511,-0.14170000000000002,-0.1033,0.44,0.12,-0.585
2025-11-06 18:32:56.169,47.675,0.076,0.145,0.024,-0.297,-0.9410000000000001,0.058,11.950000000000001,-6.25,-53.050000000000004,0.8748,-0.4514,-0.14200000000000002,-0.10350000000000001,0.434,0.116,-0.583
2025-11-06 18:32:56.169,47.68,0.089,0.148,0.026000000000000002,-0.294,-0.9380000000000001,0.058,11.950000000000001,-6.25,-53.050000000000004,0.8746,-0.4516,-0.1423,-0.1038,0.432,0.113,-0.582
2025-11-06 18:32:56.169,47.685,0.10300000000000001,0.16,0.027,-0.292,-0.9400000000000001,0.056,11.57,-5.72,-52.730000000000004,0.8743000000000001,-0.4519,-0.1426,-0.10400000000000001,0.429,0.115,-0.58
2025-11-06 18:32:56.169,47.69,0.12,0.169,0.026000000000000002,-0.291,-0.9410000000000001,0.052000000000000005,11.57,-5.72,-52.730000000000004,0.8741,-0.45230000000000004,-0.1429,-0.1042,0.429,0.115,-0.5750000000000001
2025-11-06 18:32:56.169,47.695,0.14100000000000001,0.178,0.022,-0.292,-0.9470000000000001,0.048,11.57,-5.72,-52.730000000000004,0.8738,-0.45270000000000005,-0.1432,-0.1044,0.431,0.12,-0.5700000000000001
2025-11-06 18:32:56.169,47.7,0.151,0.185,0.019,-0.294,-0.9540000000000001,0.045,12.33,-5.93,-52.67,0.8735,-0.45320000000000005,-0.1436,-0.1047,0.432,0.126,-0.5660000000000001
2025-11-06 18:32:56.169,47.705,0.156,0.187,0.016,-0.295,-0.9590000000000001,0.043000000000000003,12.33,-5.93,-52.67,0.8731,-0.45380000000000004,-0.1439,-0.10500000000000001,0.433,0.131,-0.5630000000000001
2025-11-06 18:32:56.169,47.71,0.166,0.186,0.015,-0.294,-0.961,0.041,11.86,-5.78,-52.76,0.8727,-0.4544,-0.1442,-0.1052,0.432,0.132,-0.559
2025-11-06 18:32:56.169,47.715,0.17,0.189,0.013000000000000001,-0.293,-0.966,0.045,11.86,-5.78,-52.76,0.8722000000000001,-0.455,-0.1444,-0.10550000000000001,0.431,0.136,-0.562
2025-11-06 18:32:56.169,47.72,0.176,0.186,0.013000000000000001,-0.29,-0.968,0.05,11.86,-5.78,-52.76,0.8718,-0.45570000000000005,-0.1447,-0.1057,0.428,0.137,-0.5650000000000001
2025-11-06 18:32:56.169,47.725,0.187,0.19,0.01,-0.28600000000000003,-0.974,0.058,12.24,-6.0200000000000005,-52.32,0.8714000000000001,-0.45640000000000003,-0.14500000000000002,-0.10590000000000001,0.425,0.14200000000000002,-0.5710000000000001
2025-11-06 18:32:56.169,47.73,0.188,0.195,0.008,-0.28300000000000003,-0.975,0.063,12.24,-6.0200000000000005,-52.32,0.8709,-0.4571,-0.1454,-0.1061,0.422,0.14300000000000002,-0.5760000000000001
2025-11-06 18:32:56.169,47.735,0.189,0.2,0.006,-0.281,-0.976,0.07200000000000001,12.1,-5.55,-52.2,0.8705,-0.4577,-0.1457,-0.1063,0.42,0.14200000000000002,-0.583
2025-11-06 18:32:56.169,47.74,0.186,0.20600000000000002,0.004,-0.281,-0.975,0.073,12.1,-5.55,-52.2,0.8701000000000001,-0.45840000000000003,-0.1461,-0.10640000000000001,0.42,0.14100000000000001,-0.583
2025-11-06 18:32:56.169,47.745,0.179,0.20600000000000002,0.0,-0.28,-0.977,0.075,12.1,-5.55,-52.2,0.8697,-0.459,-0.14650000000000002,-0.1066,0.419,0.14200000000000002,-0.583
2025-11-06 18:32:56.169,47.75,0.167,0.20400000000000001,0.0,-0.277,-0.976,0.07100000000000001,12.3,-6.72,-51.79,0.8693000000000001,-0.4596,-0.1468,-0.1068,0.417,0.14,-0.578
2025-11-06 18:32:56.169,47.755,0.156,0.186,0.0,-0.276,-0.977,0.065,12.3,-6.72,-51.79,0.8689,-0.4602,-0.1471,-0.10690000000000001,0.41600000000000004,0.14,-0.5700000000000001
2025-11-06 18:32:56.169,47.76,0.149,0.17200000000000001,-0.002,-0.275,-0.972,0.06,12.07,-5.61,-51.88,0.8684000000000001,-0.46090000000000003,-0.1474,-0.1071,0.41500000000000004,0.134,-0.5640000000000001
2025-11-06 18:32:56.169,47.765,0.14200000000000002,0.159,0.001,-0.273,-0.971,0.059000000000000004,12.07,-5.61,-51.88,0.868,-0.4616,-0.1476,-0.1072,0.41300000000000003,0.132,-0.562
2025-11-06 18:32:56.169,47.77,0.137,0.154,0.004,-0.271,-0.97,0.059000000000000004,12.07,-5.61,-51.88,0.8676,-0.46230000000000004,-0.14780000000000001,-0.10740000000000001,0.41100000000000003,0.131,-0.56
2025-11-06 18:32:56.169,47.775,0.138,0.152,0.006,-0.272,-0.968,0.061,12.56,-6.05,-51.76,0.8672000000000001,-0.463,-0.1479,-0.1075,0.41200000000000003,0.128,-0.561
2025-11-06 18:32:56.169,47.78,0.133,0.154,0.01,-0.274,-0.963,0.063,12.56,-6.05,-51.76,0.8668,-0.4636,-0.1482,-0.1077,0.41400000000000003,0.122,-0.562
2025-11-06 18:32:56.169,47.785,0.125,0.154,0.015,-0.276,-0.962,0.064,11.89,-5.61,-51.18,0.8664000000000001,-0.4642,-0.1484,-0.10790000000000001,0.41500000000000004,0.12,-0.561
2025-11-06 18:32:56.169,47.79,0.11,0.155,0.02,-0.278,-0.96,0.064,11.89,-5.61,-51.18,0.8661000000000001,-0.4647,-0.1486,-0.1081,0.417,0.117,-0.561
2025-11-06 18:32:56.169,47.795,0.095,0.153,0.025,-0.28,-0.96,0.065,11.89,-5.61,-51.18,0.8658,-0.4652,-0.14880000000000002,-0.10830000000000001,0.419,0.117,-0.561
2025-11-06 18:32:56.169,47.8,0.08600000000000001,0.163,0.025,-0.281,-0.963,0.07200000000000001,11.86,-5.96,-52.32,0.8654000000000001,-0.4657,-0.1489,-0.1086,0.42,0.11900000000000001,-0.5660000000000001
2025-11-06 18:32:56.169,47.805,0.077,0.17,0.026000000000000002,-0.28200000000000003,-0.964,0.075,11.86,-5.96,-52.32,0.8651000000000001,-0.46630000000000005,-0.1491,-0.10880000000000001,0.421,0.12,-0.5680000000000001
2025-11-06 18:32:56.169,47.81,0.078,0.17300000000000001,0.024,-0.28200000000000003,-0.967,0.08,11.89,-6.28,-51.82,0.8647,-0.46690000000000004,-0.14930000000000002,-0.109,0.421,0.122,-0.5720000000000001
2025-11-06 18:32:56.169,47.815,0.085,0.178,0.024,-0.28300000000000003,-0.969,0.084,11.89,-6.28,-51.82,0.8643000000000001,-0.4675,-0.1495,-0.10930000000000001,0.422,0.124,-0.5750000000000001
2025-11-06 18:32:56.169,47.82,0.095,0.18,0.022,-0.28,-0.973,0.08700000000000001,11.89,-6.28,-51.82,0.8639,-0.4681,-0.1497,-0.1095,0.419,0.126,-0.577
2025-11-06 18:32:56.169,47.825,0.099,0.179,0.023,-0.281,-0.973,0.09,11.72,-6.78,-51.71,0.8636,-0.4686,-0.1499,-0.1097,0.42,0.125,-0.579
2025-11-06 18:32:56.169,47.83,0.101,0.17500000000000002,0.023,-0.28,-0.974,0.094,11.72,-6.78,-51.71,0.8632000000000001,-0.4692,-0.1501,-0.10990000000000001,0.419,0.126,-0.581
2025-11-06 18:32:56.169,47.835,0.10300000000000001,0.17400000000000002,0.023,-0.28200000000000003,-0.975,0.094,12.040000000000001,-6.78,-51.82,0.8629,-0.4697,-0.1504,-0.1101,0.421,0.126,-0.579
2025-11-06 18:32:56.169,47.84,0.112,0.17300000000000001,0.024,-0.28300000000000003,-0.975,0.092,12.040000000000001,-5.87,-51.82,0.8625,-0.4702,-0.1506,-0.11030000000000001,0.421,0.126,-0.5760000000000001
2025-11-06 18:32:56.169,47.845,0.11900000000000001,0.167,0.027,-0.28400000000000003,-0.976,0.091,12.040000000000001,-5.87,-51.82,0.8622000000000001,-0.4707,-0.15080000000000002,-0.1105,0.423,0.125,-0.5740000000000001
2025-11-06 18:32:56.169,47.85,0.123,0.164,0.027,-0.28600000000000003,-0.976,0.089,12.13,-6.16,-52.09,0.8618,-0.4712,-0.1511,-0.1107,0.425,0.126,-0.5710000000000001
2025-11-06 18:32:56.169,47.855,0.126,0.156,0.026000000000000002,-0.289,-0.978,0.089,12.13,-6.16,-52.09,0.8615,-0.4717,-0.15130000000000002,-0.111,0.428,0.126,-0.5700000000000001
2025-11-06 18:32:56.171,47.86,0.127,0.15,0.026000000000000002,-0.289,-0.98,0.09,12.13,-6.16,-52.09,0.8612000000000001,-0.4721,-0.1516,-0.1111,0.428,0.128,-0.5700000000000001
2025-11-06 18:32:56.171,47.865,0.128,0.147,0.028,-0.292,-0.981,0.09,12.18,-5.67,-50.83,0.8609,-0.47250000000000003,-0.15180000000000002,-0.11130000000000001,0.431,0.128,-0.5690000000000001
2025-11-06 18:32:56.171,47.87,0.127,0.14200000000000002,0.03,-0.295,-0.982,0.092,12.18,-5.67,-50.83,0.8606,-0.47290000000000004,-0.1521,-0.1115,0.434,0.129,-0.5710000000000001
2025-11-06 18:32:56.171,47.875,0.126,0.145,0.031,-0.295,-0.982,0.091,12.01,-5.78,-50.51,0.8603000000000001,-0.4733,-0.15230000000000002,-0.11180000000000001,0.434,0.128,-0.5690000000000001
2025-11-06 18:32:56.171,47.88,0.124,0.145,0.029,-0.295,-0.98,0.088,12.01,-5.78,-50.51,0.86,-0.4737,-0.1525,-0.112,0.434,0.126,-0.5650000000000001
2025-11-06 18:32:56.171,47.885,0.123,0.15,0.03,-0.295,-0.977,0.083,12.01,-5.78,-50.51,0.8597,-0.4742,-0.1527,-0.11220000000000001,0.434,0.122,-0.559
2025-11-06 18:32:56.171,47.89,0.117,0.16,0.029,-0.294,-0.976,0.079,12.18,-6.1000000000000005,-50.74,0.8594,-0.4746,-0.153,-0.1124,0.433,0.12,-0.554
2025-11-06 18:32:56.171,47.895,0.112,0.167,0.023,-0.294,-0.973,0.075,12.18,-6.1000000000000005,-50.74,0.859,-0.4751,-0.1532,-0.11270000000000001,0.433,0.117,-0.549
2025-11-06 18:32:56.171,47.9,0.106,0.179,0.018000000000000002,-0.293,-0.972,0.07100000000000001,12.24,-7.13,-50.54,0.8586,-0.4757,-0.1534,-0.113,0.431,0.114,-0.544
2025-11-06 18:32:56.171,47.905,0.095,0.19,0.012,-0.295,-0.97,0.069,12.24,-7.13,-50.54,0.8583000000000001,-0.4762,-0.1537,-0.11330000000000001,0.433,0.112,-0.541
2025-11-06 18:32:56.171,47.91,0.08700000000000001,0.198,0.005,-0.293,-0.97,0.069,12.24,-7.13,-50.54,0.8579,-0.4767,-0.154,-0.1136,0.432,0.111,-0.54
2025-11-06 18:32:56.171,47.915,0.078,0.195,0.0,-0.294,-0.968,0.068,12.48,-5.84,-50.45,0.8575,-0.4772,-0.1542,-0.114,0.433,0.109,-0.537
2025-11-06 18:32:56.171,47.92,0.07100000000000001,0.187,-0.005,-0.294,-0.969,0.069,12.48,-5.84,-50.45,0.8571000000000001,-0.4777,-0.1544,-0.1143,0.432,0.109,-0.538
2025-11-06 18:32:56.171,47.925,0.066,0.18,-0.011,-0.29,-0.969,0.07200000000000001,12.040000000000001,-6.37,-50.01,0.8568,-0.4783,-0.15460000000000002,-0.1145,0.429,0.109,-0.539
2025-11-06 18:32:56.171,47.93,0.064,0.17500000000000002,-0.016,-0.291,-0.971,0.07200000000000001,12.040000000000001,-6.37,-50.01,0.8564,-0.4788,-0.1549,-0.1148,0.429,0.11,-0.538
2025-11-06 18:32:56.171,47.935,0.062,0.177,-0.021,-0.291,-0.972,0.073,12.040000000000001,-6.37,-50.01,0.8561000000000001,-0.4792,-0.15510000000000002,-0.115,0.429,0.11,-0.538
2025-11-06 18:32:56.171,47.94,0.063,0.177,-0.023,-0.292,-0.974,0.07200000000000001,12.040000000000001,-6.25,-50.01,0.8558,-0.4796,-0.1554,-0.11520000000000001,0.431,0.112,-0.536
2025-11-06 18:32:56.171,47.945,0.065,0.179,-0.025,-0.295,-0.975,0.073,12.040000000000001,-6.25,-50.01,0.8555,-0.47990000000000005,-0.1557,-0.1154,0.433,0.112,-0.536
2025-11-06 18:32:56.171,47.95,0.064,0.179,-0.027,-0.296,-0.976,0.074,11.98,-5.84,-49.4,0.8553000000000001,-0.4803,-0.156,-0.11560000000000001,0.435,0.112,-0.536
2025-11-06 18:32:56.171,47.955,0.059000000000000004,0.177,-0.029,-0.298,-0.976,0.07200000000000001,11.98,-5.84,-49.4,0.8550000000000001,-0.4806,-0.1564,-0.1158,0.437,0.112,-0.534
2025-11-06 18:32:56.171,47.96,0.048,0.176,-0.027,-0.302,-0.976,0.065,11.98,-5.84,-49.4,0.8548,-0.4808,-0.1567,-0.11610000000000001,0.441,0.112,-0.526
2025-11-06 18:32:56.173,47.965,0.035,0.176,-0.025,-0.303,-0.978,0.057,12.21,-5.7,-50.13,0.8546,-0.48100000000000004,-0.157,-0.1163,0.443,0.113,-0.517
2025-11-06 18:32:56.173,47.97,0.029,0.17400000000000002,-0.02,-0.304,-0.981,0.051000000000000004,12.21,-5.7,-50.13,0.8544,-0.4811,-0.1573,-0.1165,0.443,0.116,-0.511
2025-11-06 18:32:56.173,47.975,0.021,0.17300000000000001,-0.02,-0.305,-0.985,0.045,12.33,-6.1000000000000005,-49.51,0.8543000000000001,-0.4812,-0.1577,-0.11670000000000001,0.445,0.11900000000000001,-0.504
2025-11-06 18:32:56.173,47.98,0.019,0.171,-0.016,-0.306,-0.987,0.04,12.33,-6.1000000000000005,-49.51,0.8541000000000001,-0.4813,-0.158,-0.117,0.446,0.121,-0.498
2025-11-06 18:32:56.173,47.985,0.014,0.168,-0.012,-0.304,-0.993,0.037,12.33,-6.1000000000000005,-49.51,0.8540000000000001,-0.48140000000000005,-0.1584,-0.11720000000000001,0.445,0.127,-0.496
2025-11-06 18:32:56.173,47.99,0.018000000000000002,0.176,-0.007,-0.306,-0.999,0.041,13.530000000000001,-6.3100000000000005,-49.89,0.8539,-0.48140000000000005,-0.1587,-0.1174,0.447,0.134,-0.498
2025-11-06 18:32:56.173,47.995,0.018000000000000002,0.184,-0.006,-0.307,-1.0030000000000001,0.041,13.530000000000001,-6.3100000000000005,-49.89,0.8538,-0.48140000000000005,-0.15910000000000002,-0.11760000000000001,0.448,0.137,-0.499
2025-11-06 18:32:56.173,48.0,0.019,0.195,-0.007,-0.308,-1.006,0.039,12.040000000000001,-5.61,-49.78,0.8537,-0.48140000000000005,-0.1595,-0.1178,0.45,0.14,-0.496
2025-11-06 18:32:56.173,48.005,0.015,0.20800000000000002,-0.005,-0.307,-1.006,0.036000000000000004,12.040000000000001,-5.61,-49.78,0.8535,-0.48140000000000005,-0.15990000000000001,-0.11810000000000001,0.45,0.139,-0.493
2025-11-06 18:32:56.173,48.01,0.01,0.216,-0.004,-0.305,-1.002,0.033,12.040000000000001,-5.61,-49.78,0.8534,-0.48140000000000005,-0.16040000000000001,-0.1184,0.448,0.136,-0.489
2025-11-06 18:32:56.173,48.015,0.001,0.221,-0.002,-0.301,-0.999,0.032,13.3,-6.92,-49.92,0.8533000000000001,-0.48140000000000005,-0.1608,-0.1187,0.444,0.133,-0.488
2025-11-06 18:32:56.173,48.02,-0.012,0.215,-0.004,-0.297,-0.994,0.029,13.3,-6.92,-49.92,0.8532000000000001,-0.48140000000000005,-0.1613,-0.11900000000000001,0.441,0.128,-0.485
2025-11-06 18:32:56.173,48.025,-0.024,0.214,-0.003,-0.292,-0.99,0.031,12.620000000000001,-5.72,-49.4,0.8531000000000001,-0.48140000000000005,-0.1617,-0.1193,0.436,0.124,-0.487
2025-11-06 18:32:56.173,48.03,-0.033,0.212,-0.005,-0.28600000000000003,-0.984,0.032,12.620000000000001,-5.72,-49.4,0.8530000000000001,-0.48140000000000005,-0.162,-0.11960000000000001,0.43,0.11800000000000001,-0.487
2025-11-06 18:32:56.173,48.035,-0.041,0.211,-0.004,-0.279,-0.978,0.034,12.620000000000001,-5.72,-49.4,0.8528,-0.48160000000000003,-0.1623,-0.12000000000000001,0.423,0.111,-0.49
2025-11-06 18:32:56.173,48.04,-0.047,0.203,-0.005,-0.271,-0.97,0.035,12.01,-6.13,-50.160000000000004,0.8525,-0.4818,-0.1625,-0.12040000000000001,0.41500000000000004,0.10300000000000001,-0.49
2025-11-06 18:32:56.173,48.045,-0.051000000000000004,0.192,-0.007,-0.264,-0.964,0.036000000000000004,12.01,-6.13,-50.160000000000004,0.8524,-0.48190000000000005,-0.1628,-0.1207,0.40800000000000003,0.097,-0.491
2025-11-06 18:32:56.173,48.05,-0.053,0.18,-0.008,-0.259,-0.9590000000000001,0.036000000000000004,13.06,-6.890000000000001,-49.51,0.8523000000000001,-0.48190000000000005,-0.1631,-0.12100000000000001,0.403,0.092,-0.49
2025-11-06 18:32:56.173,48.055,-0.052000000000000005,0.159,-0.009000000000000001,-0.251,-0.9540000000000001,0.033,13.06,-6.890000000000001,-49.51,0.8522000000000001,-0.4818,-0.16340000000000002,-0.1212,0.395,0.08700000000000001,-0.488
2025-11-06 18:32:56.173,48.06,-0.053,0.145,-0.008,-0.247,-0.9520000000000001,0.03,13.06,-6.890000000000001,-49.51,0.8522000000000001,-0.4817,-0.1636,-0.12140000000000001,0.392,0.085,-0.485
2025-11-06 18:32:56.173,48.065,-0.056,0.127,-0.008,-0.243,-0.9510000000000001,0.031,11.98,-5.9,-49.34,0.8522000000000001,-0.48160000000000003,-0.16390000000000002,-0.12150000000000001,0.388,0.084,-0.486
2025-11-06 18:32:56.173,48.07,-0.059000000000000004,0.11,-0.006,-0.242,-0.9510000000000001,0.034,11.98,-5.9,-49.34,0.8522000000000001,-0.48150000000000004,-0.1641,-0.1217,0.387,0.084,-0.488
2025-11-06 18:32:56.173,48.075,-0.062,0.094,-0.002,-0.23800000000000002,-0.9520000000000001,0.036000000000000004,12.27,-6.0200000000000005,-50.21,0.8522000000000001,-0.48150000000000004,-0.1642,-0.1218,0.384,0.085,-0.491
2025-11-06 18:32:56.173,48.08,-0.066,0.064,0.0,-0.23800000000000002,-0.9550000000000001,0.041,12.27,-6.0200000000000005,-50.21,0.8522000000000001,-0.48140000000000005,-0.1643,-0.12190000000000001,0.383,0.089,-0.496
2025-11-06 18:32:56.173,48.085,-0.07100000000000001,0.044,0.004,-0.23800000000000002,-0.9590000000000001,0.046,12.27,-6.0200000000000005,-50.21,0.8522000000000001,-0.4813,-0.1643,-0.12200000000000001,0.384,0.092,-0.501
2025-11-06 18:32:56.173,48.09,-0.075,0.033,0.005,-0.23900000000000002,-0.962,0.05,12.01,-5.34,-49.86,0.8522000000000001,-0.48140000000000005,-0.1643,-0.1221,0.384,0.096,-0.505
2025-11-06 18:32:56.173,48.095,-0.08,0.026000000000000002,0.009000000000000001,-0.242,-0.965,0.055,12.01,-5.34,-49.86,0.8522000000000001,-0.48150000000000004,-0.1642,-0.1222,0.387,0.099,-0.51
2025-11-06 18:32:56.173,48.1,-0.08,0.02,0.01,-0.245,-0.968,0.06,12.01,-5.34,-49.86,0.8520000000000001,-0.4817,-0.164,-0.1222,0.389,0.101,-0.514
2025-11-06 18:32:56.173,48.105,-0.078,0.007,0.012,-0.25,-0.971,0.067,12.1,-5.49,-49.54,0.8517,-0.48250000000000004,-0.1636,-0.1222,0.394,0.10400000000000001,-0.521
2025-11-06 18:32:56.173,48.11,-0.08,0.0,0.01,-0.26,-0.977,0.069,12.1,-5.49,-49.54,0.8512000000000001,-0.48350000000000004,-0.1631,-0.1222,0.402,0.108,-0.52
2025-11-06 18:32:56.173,48.115,-0.077,-0.002,0.008,-0.267,-0.978,0.074,12.16,-5.37,-50.01,0.8509,-0.48410000000000003,-0.1627,-0.1222,0.40800000000000003,0.109,-0.524
2025-11-06 18:32:56.173,48.12,-0.078,0.0,0.007,-0.275,-0.977,0.077,12.16,-5.37,-50.01,0.8507,-0.48460000000000003,-0.16240000000000002,-0.1223,0.41600000000000004,0.108,-0.527
2025-11-06 18:32:56.173,48.125,-0.078,0.0,0.004,-0.28200000000000003,-0.977,0.081,12.16,-5.37,-50.01,0.8505,-0.4849,-0.1621,-0.12240000000000001,0.422,0.107,-0.531
2025-11-06 18:32:56.173,48.13,-0.07100000000000001,0.006,0.001,-0.28700000000000003,-0.977,0.084,12.1,-5.8100000000000005,-49.6,0.8504,-0.4852,-0.16190000000000002,-0.12250000000000001,0.426,0.107,-0.532
2025-11-06 18:32:56.173,48.135,-0.06,0.004,0.0,-0.293,-0.972,0.08,12.1,-5.8100000000000005,-49.6,0.8501000000000001,-0.4858,-0.16160000000000002,-0.1227,0.432,0.101,-0.528
2025-11-06 18:32:56.173,48.14,-0.054,-0.003,-0.003,-0.296,-0.969,0.079,12.65,-5.61,-49.660000000000004,0.8496,-0.4868,-0.161,-0.12300000000000001,0.433,0.097,-0.526
2025-11-06 18:32:56.173,48.145,-0.048,-0.005,-0.002,-0.298,-0.969,0.078,12.65,-5.61,-49.660000000000004,0.8491000000000001,-0.4877,-0.1605,-0.1233,0.434,0.096,-0.523
2025-11-06 18:32:56.173,48.15,-0.044,-0.01,0.0,-0.299,-0.965,0.075,12.65,-5.61,-49.660000000000004,0.8482000000000001,-0.48950000000000005,-0.15960000000000002,-0.12380000000000001,0.432,0.09,-0.518
2025-11-06 18:32:56.173,48.155,-0.045,-0.016,0.001,-0.301,-0.965,0.074,12.3,-6.13,-49.92,0.8474,-0.49100000000000005,-0.1588,-0.12440000000000001,0.431,0.088,-0.514
2025-11-06 18:32:56.173,48.16,-0.038,-0.013000000000000001,0.003,-0.3,-0.963,0.07200000000000001,12.3,-6.13,-49.92,0.8464,-0.4929,-0.1578,-0.12510000000000002,0.428,0.084,-0.51
2025-11-06 18:32:56.173,48.165,-0.034,-0.012,0.004,-0.302,-0.963,0.07100000000000001,12.68,-6.16,-49.51,0.8453,-0.4949,-0.1568,-0.1259,0.425,0.082,-0.506
2025-11-06 18:32:56.173,48.17,-0.036000000000000004,-0.013000000000000001,0.01,-0.302,-0.96,0.07,12.68,-6.16,-49.51,0.8445,-0.4963,-0.156,-0.1265,0.423,0.077,-0.502
2025-11-06 18:32:56.173,48.175,-0.036000000000000004,-0.021,0.013000000000000001,-0.3,-0.9580000000000001,0.07,12.68,-6.16,-49.51,0.8441000000000001,-0.49710000000000004,-0.1555,-0.1268,0.42,0.073,-0.5
2025-11-06 18:32:56.173,48.18,-0.038,-0.018000000000000002,0.015,-0.298,-0.9590000000000001,0.069,12.1,-6.46,-50.45,0.8436,-0.4979,-0.155,-0.1272,0.41600000000000004,0.074,-0.498
2025-11-06 18:32:56.175,48.185,-0.036000000000000004,-0.014,0.018000000000000002,-0.296,-0.9580000000000001,0.068,12.1,-6.46,-50.45,0.8433,-0.4985,-0.15460000000000002,-0.1275,0.41200000000000003,0.07200000000000001,-0.495
2025-11-06 18:32:56.175,48.19,-0.034,-0.011,0.022,-0.296,-0.9580000000000001,0.065,11.98,-5.7,-49.81,0.8430000000000001,-0.49920000000000003,-0.1542,-0.1278,0.41200000000000003,0.07100000000000001,-0.492
2025-11-06 18:32:56.175,48.195,-0.033,-0.006,0.027,-0.293,-0.9580000000000001,0.064,11.98,-5.7,-49.81,0.8427,-0.49970000000000003,-0.15380000000000002,-0.12810000000000002,0.40700000000000003,0.07,-0.49
2025-11-06 18:32:56.175,48.2,-0.028,-0.013000000000000001,0.027,-0.291,-0.962,0.063,11.98,-5.7,-49.81,0.8421000000000001,-0.5007,-0.1532,-0.1285,0.404,0.074,-0.487
2025-11-06 18:32:56.175,48.205,-0.026000000000000002,-0.019,0.029,-0.29,-0.965,0.064,11.83,-6.0200000000000005,-50.27,0.8414,-0.502,-0.1525,-0.12890000000000001,0.4,0.075,-0.486
2025-11-06 18:32:56.175,48.21,-0.023,-0.021,0.029,-0.28600000000000003,-0.966,0.065,11.83,-6.0200000000000005,-50.27,0.8407,-0.5034000000000001,-0.15180000000000002,-0.1293,0.394,0.075,-0.485
2025-11-06 18:32:56.175,48.215,-0.024,-0.019,0.027,-0.28500000000000003,-0.967,0.066,12.13,-5.7,-50.19,0.8399000000000001,-0.5048,-0.151,-0.1297,0.391,0.074,-0.484
2025-11-06 18:32:56.175,48.22,-0.026000000000000002,-0.021,0.027,-0.28300000000000003,-0.968,0.065,12.13,-5.7,-50.19,0.8391000000000001,-0.5061,-0.15030000000000002,-0.1301,0.387,0.074,-0.481
2025-11-06 18:32:56.175,48.225,-0.025,-0.015,0.023,-0.281,-0.969,0.065,12.13,-5.7,-50.19,0.8383,-0.5077,-0.1494,-0.1305,0.383,0.073,-0.47800000000000004
2025-11-06 18:32:56.175,48.23,-0.027,-0.01,0.021,-0.281,-0.97,0.062,11.66,-5.61,-49.86,0.8374,-0.5093,-0.1486,-0.13090000000000002,0.38,0.073,-0.47200000000000003
2025-11-06 18:32:56.175,48.235,-0.03,-0.01,0.019,-0.279,-0.971,0.062,11.66,-5.61,-49.86,0.8366,-0.5108,-0.14780000000000001,-0.1313,0.376,0.073,-0.46900000000000003
2025-11-06 18:32:56.175,48.24,-0.031,-0.002,0.016,-0.278,-0.974,0.06,11.83,-5.9,-49.45,0.8359000000000001,-0.5119,-0.1472,-0.1316,0.372,0.074,-0.465
2025-11-06 18:32:56.175,48.245,-0.035,-0.005,0.013000000000000001,-0.278,-0.977,0.059000000000000004,11.83,-5.9,-49.45,0.8356,-0.5126000000000001,-0.1468,-0.1318,0.371,0.076,-0.463
2025-11-06 18:32:56.175,48.25,-0.039,-0.001,0.011,-0.277,-0.977,0.058,11.83,-5.9,-49.45,0.8352,-0.5132,-0.14650000000000002,-0.13190000000000002,0.369,0.076,-0.461
2025-11-06 18:32:56.175,48.255,-0.044,0.002,0.009000000000000001,-0.276,-0.98,0.058,12.01,-5.37,-49.81,0.8350000000000001,-0.5136000000000001,-0.1462,-0.1321,0.368,0.078,-0.46
2025-11-06 18:32:56.175,48.26,-0.047,0.0,0.01,-0.274,-0.979,0.057,12.01,-5.37,-49.81,0.8347,-0.5141,-0.1459,-0.1323,0.365,0.076,-0.458
2025-11-06 18:32:56.175,48.265,-0.051000000000000004,-0.011,0.01,-0.274,-0.978,0.056,11.89,-5.87,-49.4,0.8345,-0.5146000000000001,-0.1456,-0.13240000000000002,0.364,0.075,-0.456
2025-11-06 18:32:56.175,48.27,-0.05,-0.015,0.011,-0.274,-0.977,0.052000000000000005,11.89,-5.87,-49.4,0.8341000000000001,-0.5152,-0.1452,-0.1326,0.363,0.073,-0.452
2025-11-06 18:32:56.175,48.275,-0.049,-0.028,0.011,-0.273,-0.976,0.051000000000000004,11.89,-5.87,-49.4,0.8338,-0.5159,-0.1447,-0.1328,0.36,0.07200000000000001,-0.449
2025-11-06 18:32:56.175,48.28,-0.05,-0.039,0.013000000000000001,-0.272,-0.978,0.046,11.78,-6.22,-49.660000000000004,0.8335,-0.5164,-0.1443,-0.133,0.359,0.073,-0.443
2025-11-06 18:32:56.175,48.285,-0.052000000000000005,-0.06,0.015,-0.276,-0.978,0.044,11.78,-6.22,-49.660000000000004,0.8333,-0.5167,-0.1439,-0.1331,0.361,0.073,-0.441
2025-11-06 18:32:56.175,48.29,-0.053,-0.067,0.018000000000000002,-0.275,-0.976,0.043000000000000003,12.620000000000001,-5.43,-49.660000000000004,0.8331000000000001,-0.5171,-0.14350000000000002,-0.1332,0.36,0.07,-0.439
2025-11-06 18:32:56.175,48.295,-0.054,-0.078,0.017,-0.274,-0.975,0.044,12.620000000000001,-5.43,-49.660000000000004,0.8329000000000001,-0.5176000000000001,-0.14300000000000002,-0.1333,0.357,0.069,-0.439
2025-11-06 18:32:56.175,48.3,-0.051000000000000004,-0.088,0.02,-0.274,-0.973,0.047,12.620000000000001,-5.43,-49.660000000000004,0.8327,-0.5181,-0.14250000000000002,-0.13340000000000002,0.356,0.066,-0.442
2025-11-06 18:32:56.175,48.305,-0.053,-0.098,0.018000000000000002,-0.274,-0.968,0.049,12.18,-5.99,-49.6,0.8325,-0.5185000000000001,-0.14200000000000002,-0.1335,0.355,0.061,-0.443
2025-11-06 18:32:56.175,48.31,-0.047,-0.101,0.019,-0.276,-0.966,0.054,12.18,-5.99,-49.6,0.8323,-0.5189,-0.1416,-0.1336,0.356,0.059000000000000004,-0.447
2025-11-06 18:32:56.175,48.315,-0.047,-0.10200000000000001,0.018000000000000002,-0.276,-0.965,0.055,12.3,-5.26,-50.13,0.8321000000000001,-0.5193,-0.1411,-0.1336,0.355,0.058,-0.448
2025-11-06 18:32:56.175,48.32,-0.05,-0.10200000000000001,0.016,-0.278,-0.963,0.058,12.3,-5.26,-50.13,0.8320000000000001,-0.5196000000000001,-0.14070000000000002,-0.1336,0.356,0.055,-0.451
2025-11-06 18:32:56.175,48.325,-0.055,-0.094,0.014,-0.28,-0.963,0.059000000000000004,12.3,-5.26,-50.13,0.8319000000000001,-0.5199,-0.1403,-0.1337,0.357,0.055,-0.452
2025-11-06 18:32:56.175,48.33,-0.056,-0.096,0.012,-0.28200000000000003,-0.963,0.06,11.950000000000001,-5.4,-49.980000000000004,0.8317,-0.5202,-0.1398,-0.1337,0.358,0.054,-0.452
2025-11-06 18:32:56.175,48.335,-0.058,-0.097,0.008,-0.28200000000000003,-0.962,0.062,11.950000000000001,-5.4,-49.980000000000004,0.8316,-0.5205000000000001,-0.1394,-0.1337,0.357,0.053,-0.453
2025-11-06 18:32:56.175,48.34,-0.057,-0.097,0.004,-0.28700000000000003,-0.961,0.062,11.950000000000001,-5.4,-49.980000000000004,0.8315,-0.5208,-0.139,-0.1337,0.362,0.052000000000000005,-0.453
2025-11-06 18:32:56.175,48.345,-0.054,-0.094,-0.001,-0.29,-0.96,0.063,11.950000000000001,-5.2,-50.160000000000004,0.8313,-0.5212,-0.1386,-0.1338,0.364,0.051000000000000004,-0.454
2025-11-06 18:32:56.175,48.35,-0.053,-0.09,-0.004,-0.293,-0.9590000000000001,0.065,11.950000000000001,-5.2,-50.160000000000004,0.8312,-0.5215000000000001,-0.13820000000000002,-0.1338,0.366,0.049,-0.456
2025-11-06 18:32:56.175,48.355,-0.051000000000000004,-0.08,-0.005,-0.293,-0.9570000000000001,0.068,12.01,-5.64,-50.04,0.8311000000000001,-0.5218,-0.1378,-0.13390000000000002,0.366,0.047,-0.458
2025-11-06 18:32:56.175,48.36,-0.053,-0.068,-0.008,-0.292,-0.9570000000000001,0.07,12.01,-5.64,-50.04,0.8309000000000001,-0.522,-0.1375,-0.13390000000000002,0.364,0.047,-0.46
2025-11-06 18:32:56.175,48.365,-0.053,-0.064,-0.007,-0.293,-0.9550000000000001,0.07,12.01,-5.64,-50.04,0.8309000000000001,-0.5223,-0.13720000000000002,-0.13390000000000002,0.364,0.045,-0.459
2025-11-06 18:32:56.175,48.37,-0.05,-0.055,-0.009000000000000001,-0.295,-0.9550000000000001,0.069,11.950000000000001,-5.23,-50.45,0.8308000000000001,-0.5225000000000001,-0.1369,-0.134,0.365,0.044,-0.458
2025-11-06 18:32:56.175,48.375,-0.047,-0.053,-0.006,-0.295,-0.9540000000000001,0.066,11.950000000000001,-5.23,-50.45,0.8307,-0.5227,-0.13670000000000002,-0.134,0.365,0.043000000000000003,-0.455
2025-11-06 18:32:56.175,48.38,-0.042,-0.048,-0.005,-0.298,-0.9570000000000001,0.064,11.66,-5.46,-50.39,0.8305,-0.5231,-0.1363,-0.1342,0.367,0.045,-0.452
2025-11-06 18:32:56.175,48.385,-0.039,-0.039,0.0,-0.299,-0.9580000000000001,0.064,11.66,-5.46,-50.39,0.8301000000000001,-0.5236000000000001,-0.1359,-0.13440000000000002,0.367,0.046,-0.452
2025-11-06 18:32:56.175,48.39,-0.036000000000000004,-0.038,0.0,-0.301,-0.9580000000000001,0.066,11.66,-5.46,-50.39,0.8298000000000001,-0.5243,-0.1355,-0.13470000000000001,0.367,0.046,-0.452
2025-11-06 18:32:56.175,48.395,-0.036000000000000004,-0.036000000000000004,0.004,-0.3,-0.9580000000000001,0.068,12.450000000000001,-5.14,-50.480000000000004,0.8294,-0.5249,-0.135,-0.135,0.365,0.046,-0.453
2025-11-06 18:32:56.175,48.4,-0.034,-0.038,0.007,-0.301,-0.961,0.068,12.450000000000001,-5.14,-50.480000000000004,0.8288000000000001,-0.5259,-0.13440000000000002,-0.13540000000000002,0.365,0.047,-0.452
2025-11-06 18:32:56.175,48.405,-0.028,-0.043000000000000003,0.01,-0.302,-0.961,0.069,12.450000000000001,-5.32,-50.620000000000005,0.8282,-0.5269,-0.1338,-0.13570000000000002,0.364,0.047,-0.451
2025-11-06 18:32:56.175,48.41,-0.026000000000000002,-0.039,0.013000000000000001,-0.302,-0.962,0.066,12.450000000000001,-5.32,-50.620000000000005,0.8276,-0.5279,-0.1331,-0.13620000000000002,0.361,0.046,-0.446
2025-11-06 18:32:56.175,48.415,-0.02,-0.035,0.014,-0.302,-0.965,0.067,12.450000000000001,-5.32,-50.620000000000005,0.8269000000000001,-0.529,-0.13240000000000002,-0.13670000000000002,0.359,0.048,-0.445
2025-11-06 18:32:56.175,48.42,-0.015,-0.033,0.015,-0.301,-0.968,0.065,12.07,-5.75,-50.57,0.8263,-0.53,-0.1318,-0.137,0.357,0.05,-0.441
2025-11-06 18:32:56.175,48.425,-0.012,-0.031,0.016,-0.299,-0.971,0.062,12.07,-5.75,-50.57,0.8259000000000001,-0.5306000000000001,-0.13140000000000002,-0.1373,0.353,0.052000000000000005,-0.437
2025-11-06 18:32:56.175,48.43,-0.011,-0.03,0.016,-0.299,-0.97,0.062,12.36,-5.4,-50.71,0.8255,-0.5313,-0.131,-0.1376,0.352,0.051000000000000004,-0.435
2025-11-06 18:32:56.176,48.435,-0.007,-0.03,0.014,-0.297,-0.97,0.063,12.36,-5.4,-50.71,0.8250000000000001,-0.5322,-0.13040000000000002,-0.1379,0.34900000000000003,0.05,-0.435
2025-11-06 18:32:56.176,48.44,-0.008,-0.025,0.012,-0.297,-0.97,0.065,12.36,-5.4,-50.71,0.8245,-0.533,-0.12990000000000002,-0.13820000000000002,0.34700000000000003,0.05,-0.435
2025-11-06 18:32:56.176,48.445,-0.012,-0.019,0.01,-0.298,-0.969,0.067,11.75,-5.67,-50.21,0.8239000000000001,-0.534,-0.12940000000000002,-0.1386,0.34600000000000003,0.048,-0.436
2025-11-06 18:32:56.176,48.45,-0.014,-0.01,0.006,-0.297,-0.969,0.069,11.75,-5.67,-50.21,0.8231,-0.5353,-0.1287,-0.139,0.343,0.046,-0.436
2025-11-06 18:32:56.176,48.455,-0.017,-0.003,0.005,-0.298,-0.967,0.069,11.950000000000001,-5.5200000000000005,-50.160000000000004,0.8219000000000001,-0.5371,-0.1277,-0.13970000000000002,0.342,0.043000000000000003,-0.433
2025-11-06 18:32:56.176,48.46,-0.02,-0.001,0.002,-0.298,-0.964,0.068,11.950000000000001,-5.5200000000000005,-50.160000000000004,0.8198000000000001,-0.5404,-0.126,-0.1409,0.336,0.038,-0.426
2025-11-06 18:32:56.176,48.465,-0.025,-0.003,0.002,-0.299,-0.963,0.067,11.950000000000001,-5.5200000000000005,-50.160000000000004,0.8182,-0.5429,-0.1247,-0.1419,0.333,0.034,-0.42
2025-11-06 18:32:56.176,48.47,-0.025,0.002,0.003,-0.299,-0.964,0.064,11.57,-5.29,-50.800000000000004,0.8166,-0.5453,-0.12340000000000001,-0.14300000000000002,0.329,0.032,-0.41200000000000003
2025-11-06 18:32:56.176,48.475,-0.022,0.005,0.004,-0.3,-0.962,0.063,11.57,-5.29,-50.800000000000004,0.8153,-0.5473,-0.1223,-0.1438,0.325,0.029,-0.40700000000000003
2025-11-06 18:32:56.176,48.48,-0.02,0.011,0.005,-0.3,-0.963,0.062,12.18,-5.29,-50.86,0.8140000000000001,-0.5492,-0.1213,-0.1447,0.322,0.028,-0.402
2025-11-06 18:32:56.176,48.485,-0.015,0.016,0.007,-0.301,-0.963,0.062,12.18,-5.29,-50.86,0.8127000000000001,-0.5511,-0.1203,-0.1456,0.319,0.027,-0.399
2025-11-06 18:32:56.176,48.49,-0.006,0.016,0.008,-0.303,-0.962,0.065,12.18,-5.29,-50.86,0.8112,-0.5533,-0.1192,-0.1466,0.318,0.024,-0.398
2025-11-06 18:32:56.176,48.495,-0.006,0.021,0.01,-0.305,-0.962,0.066,12.1,-5.37,-50.86,0.8099000000000001,-0.5552,-0.1182,-0.14750000000000002,0.316,0.023,-0.395
2025-11-06 18:32:56.176,48.5,-0.005,0.021,0.01,-0.303,-0.963,0.067,12.1,-5.37,-50.86,0.8086,-0.5571,-0.11720000000000001,-0.14830000000000002,0.311,0.022,-0.392
2025-11-06 18:32:56.176,48.505,-0.004,0.026000000000000002,0.012,-0.305,-0.964,0.067,12.13,-5.46,-50.36,0.8076,-0.5585,-0.1164,-0.149,0.31,0.021,-0.389
2025-11-06 18:32:56.176,48.51,0.0,0.034,0.015,-0.304,-0.963,0.066,12.13,-5.46,-50.36,0.8066,-0.5599000000000001,-0.11570000000000001,-0.1497,0.306,0.019,-0.385
2025-11-06 18:32:56.176,48.515,0.0,0.036000000000000004,0.017,-0.306,-0.961,0.063,12.13,-5.46,-50.36,0.8057000000000001,-0.5611,-0.11510000000000001,-0.1504,0.306,0.017,-0.38
2025-11-06 18:32:56.176,48.52,0.0,0.035,0.023,-0.307,-0.963,0.062,11.75,-5.64,-51.300000000000004,0.8049000000000001,-0.5622,-0.1145,-0.151,0.304,0.017,-0.376
2025-11-06 18:32:56.176,48.525,0.0,0.035,0.028,-0.306,-0.965,0.062,11.75,-5.64,-51.300000000000004,0.8042,-0.5631,-0.11410000000000001,-0.1515,0.302,0.018000000000000002,-0.374
2025-11-06 18:32:56.176,48.53,-0.003,0.028,0.034,-0.304,-0.966,0.06,11.370000000000001,-5.26,-50.27,0.8036000000000001,-0.5640000000000001,-0.1136,-0.152,0.298,0.019,-0.371
2025-11-06 18:32:56.176,48.535,-0.004,0.024,0.037,-0.303,-0.967,0.059000000000000004,11.370000000000001,-5.26,-50.27,0.8031,-0.5646,-0.11330000000000001,-0.1524,0.296,0.02,-0.368
2025-11-06 18:32:56.176,48.54,-0.008,0.024,0.043000000000000003,-0.304,-0.968,0.058,11.370000000000001,-5.26,-50.27,0.8027000000000001,-0.5651,-0.113,-0.15280000000000002,0.296,0.02,-0.366
2025-11-06 18:32:56.176,48.545,-0.01,0.027,0.048,-0.306,-0.968,0.056,11.48,-5.32,-50.160000000000004,0.8024,-0.5655,-0.11270000000000001,-0.1531,0.296,0.02,-0.363
2025-11-06 18:32:56.176,48.55,-0.015,0.03,0.053,-0.305,-0.968,0.055,11.48,-5.32,-50.160000000000004,0.8021,-0.5659000000000001,-0.1124,-0.1535,0.295,0.02,-0.362
2025-11-06 18:32:56.176,48.555,-0.019,0.028,0.059000000000000004,-0.305,-0.966,0.053,11.86,-5.72,-50.42,0.8017000000000001,-0.5664,-0.1121,-0.1539,0.294,0.017,-0.359
2025-11-06 18:32:56.176,48.56,-0.023,0.03,0.061,-0.306,-0.966,0.052000000000000005,11.86,-5.72,-50.42,0.8014,-0.5668000000000001,-0.11180000000000001,-0.15430000000000002,0.294,0.016,-0.357
2025-11-06 18:32:56.176,48.565,-0.023,0.035,0.061,-0.308,-0.961,0.049,11.86,-5.72,-50.42,0.801,-0.5673,-0.1115,-0.15480000000000002,0.294,0.012,-0.353
2025-11-06 18:32:56.176,48.57,-0.02,0.045,0.06,-0.309,-0.9590000000000001,0.049,11.89,-5.46,-50.57,0.8007000000000001,-0.5677,-0.11120000000000001,-0.1553,0.294,0.009000000000000001,-0.352
2025-11-06 18:32:56.176,48.575,-0.014,0.059000000000000004,0.06,-0.311,-0.9550000000000001,0.048,11.89,-5.46,-50.57,0.8004,-0.5680000000000001,-0.1111,-0.1557,0.295,0.005,-0.35100000000000003
2025-11-06 18:32:56.176,48.58,-0.004,0.068,0.056,-0.312,-0.9530000000000001,0.046,11.89,-5.46,-50.57,0.8002,-0.5682,-0.111,-0.15610000000000002,0.295,0.002,-0.34800000000000003
2025-11-06 18:32:56.176,48.585,0.009000000000000001,0.078,0.051000000000000004,-0.314,-0.9510000000000001,0.044,11.83,-5.49,-51.0,0.8,-0.5684,-0.111,-0.1564,0.296,0.0,-0.34600000000000003
2025-11-06 18:32:56.176,48.59,0.02,0.08,0.047,-0.315,-0.9500000000000001,0.042,11.83,-5.49,-51.0,0.7998000000000001,-0.5686,-0.111,-0.1567,0.296,0.0,-0.343
2025-11-06 18:32:56.176,48.595,0.027,0.08700000000000001,0.044,-0.316,-0.9510000000000001,0.04,11.8,-5.05,-50.27,0.7996000000000001,-0.5688,-0.111,-0.15710000000000002,0.297,0.0,-0.341
2025-11-06 18:32:56.176,48.6,0.032,0.085,0.045,-0.317,-0.9500000000000001,0.037,11.8,-5.05,-50.27,0.7994,-0.5690000000000001,-0.111,-0.1574,0.298,0.0,-0.338
2025-11-06 18:32:56.176,48.605,0.04,0.09,0.046,-0.317,-0.9530000000000001,0.035,11.8,-5.05,-50.27,0.7991,-0.5693,-0.111,-0.1578,0.298,0.002,-0.335
2025-11-06 18:32:56.176,48.61,0.045,0.093,0.049,-0.321,-0.9550000000000001,0.035,11.98,-5.32,-50.59,0.7988000000000001,-0.5696,-0.1109,-0.1583,0.3,0.003,-0.334
2025-11-06 18:32:56.176,48.615,0.048,0.099,0.053,-0.322,-0.9560000000000001,0.036000000000000004,11.98,-5.32,-50.59,0.7984,-0.5699000000000001,-0.1109,-0.1588,0.3,0.005,-0.335
2025-11-06 18:32:56.176,48.62,0.053,0.101,0.057,-0.322,-0.9580000000000001,0.035,11.86,-5.32,-50.42,0.7981,-0.5703,-0.1109,-0.1592,0.3,0.006,-0.333
2025-11-06 18:32:56.176,48.625,0.056,0.101,0.06,-0.323,-0.961,0.037,11.86,-5.32,-50.42,0.7978000000000001,-0.5706,-0.1109,-0.1597,0.3,0.008,-0.334
2025-11-06 18:32:56.176,48.63,0.059000000000000004,0.107,0.062,-0.324,-0.962,0.04,11.86,-5.32,-50.42,0.7975,-0.5709000000000001,-0.1109,-0.16010000000000002,0.3,0.009000000000000001,-0.336
2025-11-06 18:32:56.176,48.635,0.062,0.115,0.069,-0.323,-0.964,0.043000000000000003,11.42,-5.58,-50.77,0.7972,-0.5712,-0.1109,-0.1605,0.299,0.011,-0.338
2025-11-06 18:32:56.176,48.64,0.062,0.124,0.07100000000000001,-0.321,-0.966,0.043000000000000003,11.42,-5.58,-50.77,0.7969,-0.5715,-0.111,-0.161,0.297,0.013000000000000001,-0.338
2025-11-06 18:32:56.176,48.645,0.061,0.132,0.07100000000000001,-0.321,-0.967,0.043000000000000003,11.92,-5.17,-50.83,0.7966000000000001,-0.5717,-0.1111,-0.16140000000000002,0.296,0.014,-0.337
2025-11-06 18:32:56.176,48.65,0.059000000000000004,0.131,0.07200000000000001,-0.32,-0.969,0.043000000000000003,11.92,-5.17,-50.83,0.7964,-0.5719000000000001,-0.11120000000000001,-0.1618,0.295,0.016,-0.336
2025-11-06 18:32:56.176,48.655,0.056,0.126,0.07,-0.32,-0.969,0.043000000000000003,11.92,-5.17,-50.83,0.7961,-0.5722,-0.11130000000000001,-0.1622,0.294,0.015,-0.336
2025-11-06 18:32:56.176,48.66,0.054,0.122,0.07,-0.318,-0.969,0.044,12.33,-5.4,-50.24,0.7959,-0.5724,-0.11130000000000001,-0.1626,0.292,0.015,-0.336
2025-11-06 18:32:56.176,48.665,0.057,0.117,0.069,-0.316,-0.966,0.048,12.33,-5.4,-50.24,0.7956000000000001,-0.5727,-0.1114,-0.163,0.29,0.012,-0.34
2025-11-06 18:32:56.176,48.67,0.063,0.11900000000000001,0.067,-0.316,-0.962,0.049,11.8,-5.61,-50.24,0.7952,-0.5730000000000001,-0.1114,-0.16340000000000002,0.289,0.008,-0.34
2025-11-06 18:32:56.176,48.675,0.068,0.12,0.063,-0.316,-0.9580000000000001,0.05,11.8,-5.61,-50.24,0.7949,-0.5733,-0.1114,-0.1638,0.28800000000000003,0.003,-0.34
2025-11-06 18:32:56.176,48.68,0.073,0.123,0.062,-0.315,-0.9520000000000001,0.05,11.8,-5.61,-50.24,0.7946000000000001,-0.5736,-0.1115,-0.1642,0.28600000000000003,-0.002,-0.34
2025-11-06 18:32:56.176,48.685,0.079,0.12,0.059000000000000004,-0.313,-0.9490000000000001,0.05,11.4,-5.32,-50.24,0.7943,-0.5739000000000001,-0.1116,-0.1645,0.28500000000000003,-0.005,-0.34
2025-11-06 18:32:56.176,48.69,0.084,0.121,0.057,-0.313,-0.9450000000000001,0.05,11.4,-5.32,-50.24,0.7941,-0.5741,-0.11180000000000001,-0.1648,0.28300000000000003,-0.009000000000000001,-0.339
2025-11-06 18:32:56.176,48.695,0.089,0.12,0.055,-0.31,-0.9430000000000001,0.049,11.78,-5.08,-49.81,0.7939,-0.5743,-0.1119,-0.1651,0.281,-0.011,-0.338
2025-11-06 18:32:56.176,48.7,0.098,0.128,0.052000000000000005,-0.313,-0.9400000000000001,0.047,11.78,-5.08,-49.81,0.7936000000000001,-0.5746,-0.1121,-0.16540000000000002,0.28300000000000003,-0.014,-0.335
2025-11-06 18:32:56.176,48.705,0.101,0.134,0.054,-0.313,-0.9400000000000001,0.047,11.78,-5.08,-49.81,0.7933,-0.5748,-0.11230000000000001,-0.16570000000000001,0.28300000000000003,-0.015,-0.334
2025-11-06 18:32:56.176,48.71,0.10400000000000001,0.135,0.054,-0.313,-0.9420000000000001,0.048,11.86,-5.4,-50.24,0.7931,-0.5750000000000001,-0.1125,-0.166,0.28200000000000003,-0.013000000000000001,-0.335
2025-11-06 18:32:56.176,48.715,0.10400000000000001,0.136,0.051000000000000004,-0.314,-0.9410000000000001,0.05,11.86,-5.4,-50.24,0.7928000000000001,-0.5753,-0.11270000000000001,-0.1663,0.28300000000000003,-0.013000000000000001,-0.336
2025-11-06 18:32:56.176,48.72,0.106,0.136,0.052000000000000005,-0.315,-0.9450000000000001,0.051000000000000004,11.950000000000001,-5.55,-49.89,0.7925000000000001,-0.5755,-0.1129,-0.1666,0.28500000000000003,-0.01,-0.336
2025-11-06 18:32:56.177,48.725,0.105,0.136,0.049,-0.317,-0.9490000000000001,0.052000000000000005,11.950000000000001,-5.55,-49.89,0.7922,-0.5758,-0.113,-0.167,0.28600000000000003,-0.006,-0.336
2025-11-06 18:32:56.177,48.73,0.109,0.14100000000000001,0.046,-0.318,-0.9540000000000001,0.052000000000000005,11.950000000000001,-5.55,-49.89,0.7919,-0.5762,-0.11320000000000001,-0.1673,0.28700000000000003,-0.002,-0.335
2025-11-06 18:32:56.177,48.735,0.113,0.145,0.044,-0.319,-0.9580000000000001,0.051000000000000004,11.83,-5.67,-49.57,0.7915000000000001,-0.5766,-0.11330000000000001,-0.16770000000000002,0.28800000000000003,0.001,-0.334
2025-11-06 18:32:56.177,48.74,0.117,0.152,0.041,-0.319,-0.963,0.05,11.83,-5.67,-49.57,0.7911,-0.5769000000000001,-0.1135,-0.1681,0.28800000000000003,0.006,-0.331
2025-11-06 18:32:56.177,48.745,0.122,0.155,0.038,-0.321,-0.967,0.052000000000000005,12.18,-5.49,-49.81,0.7908000000000001,-0.5772,-0.11370000000000001,-0.16840000000000002,0.289,0.01,-0.333
2025-11-06 18:32:56.177,48.75,0.125,0.155,0.035,-0.321,-0.969,0.052000000000000005,12.18,-5.49,-49.81,0.7905000000000001,-0.5775,-0.114,-0.16870000000000002,0.289,0.011,-0.331
2025-11-06 18:32:56.177,48.755,0.131,0.159,0.03,-0.321,-0.974,0.052000000000000005,12.18,-5.49,-49.81,0.7901,-0.5778,-0.11420000000000001,-0.169,0.289,0.016,-0.33
2025-11-06 18:32:56.177,48.76,0.134,0.159,0.026000000000000002,-0.319,-0.977,0.052000000000000005,11.78,-5.55,-48.870000000000005,0.7898000000000001,-0.5781000000000001,-0.1145,-0.1693,0.28700000000000003,0.019,-0.33
2025-11-06 18:32:56.177,48.765,0.134,0.162,0.023,-0.317,-0.976,0.056,11.78,-5.55,-48.870000000000005,0.7895000000000001,-0.5784,-0.1148,-0.1696,0.28400000000000003,0.017,-0.333
2025-11-06 18:32:56.178,48.77,0.136,0.17,0.018000000000000002,-0.313,-0.976,0.055,11.75,-5.75,-48.870000000000005,0.7892,-0.5787,-0.11510000000000001,-0.1699,0.281,0.017,-0.331
2025-11-06 18:32:56.178,48.775,0.134,0.17500000000000002,0.013000000000000001,-0.309,-0.977,0.056,11.75,-5.75,-48.870000000000005,0.7889,-0.5790000000000001,-0.1155,-0.1701,0.277,0.018000000000000002,-0.331
2025-11-06 18:32:56.178,48.78,0.131,0.17500000000000002,0.008,-0.304,-0.975,0.057,11.75,-5.75,-48.870000000000005,0.7886000000000001,-0.5793,-0.1158,-0.1704,0.272,0.016,-0.331
2025-11-06 18:32:56.178,48.785,0.127,0.17500000000000002,0.005,-0.301,-0.974,0.056,12.97,-5.75,-49.31,0.7882,-0.5796,-0.11610000000000001,-0.17070000000000002,0.269,0.014,-0.33
2025-11-06 18:32:56.178,48.79,0.12,0.17400000000000002,0.0,-0.3,-0.973,0.055,12.97,-5.75,-49.31,0.7879,-0.5799000000000001,-0.1164,-0.1709,0.267,0.013000000000000001,-0.327
2025-11-06 18:32:56.178,48.795,0.112,0.178,-0.003,-0.298,-0.97,0.055,11.75,-5.93,-49.370000000000005,0.7875000000000001,-0.5803,-0.11670000000000001,-0.17120000000000002,0.265,0.01,-0.326
2025-11-06 18:32:56.178,48.8,0.111,0.185,-0.005,-0.296,-0.969,0.052000000000000005,11.75,-5.93,-49.370000000000005,0.7872,-0.5806,-0.117,-0.1715,0.264,0.008,-0.322
2025-11-06 18:32:56.178,48.805,0.108,0.184,-0.012,-0.294,-0.967,0.051000000000000004,11.75,-5.93,-49.370000000000005,0.7868,-0.5809000000000001,-0.1173,-0.17170000000000002,0.262,0.006,-0.32
2025-11-06 18:32:56.178,48.81,0.108,0.183,-0.015,-0.293,-0.966,0.049,12.65,-5.7,-49.13,0.7865000000000001,-0.5813,-0.11760000000000001,-0.17200000000000001,0.261,0.005,-0.318
2025-11-06 18:32:56.178,48.815,0.10300000000000001,0.179,-0.02,-0.295,-0.966,0.047,12.65,-5.7,-49.13,0.7861,-0.5816,-0.1179,-0.1723,0.262,0.005,-0.316
2025-11-06 18:32:56.178,48.82,0.097,0.17300000000000001,-0.027,-0.294,-0.969,0.048,12.65,-5.7,-49.13,0.7858,-0.5819,-0.1182,-0.17250000000000001,0.262,0.008,-0.315
2025-11-06 18:32:56.178,48.825,0.092,0.17300000000000001,-0.03,-0.295,-0.971,0.05,11.4,-5.32,-48.93,0.7855000000000001,-0.5822,-0.11860000000000001,-0.17270000000000002,0.263,0.01,-0.316
2025-11-06 18:32:56.178,48.83,0.08700000000000001,0.17,-0.031,-0.293,-0.974,0.053,11.4,-5.32,-48.93,0.7852,-0.5824,-0.1189,-0.1729,0.261,0.012,-0.319
2025-11-06 18:32:56.178,48.835,0.076,0.168,-0.033,-0.292,-0.977,0.053,11.8,-6.3100000000000005,-49.22,0.785,-0.5827,-0.1192,-0.1731,0.26,0.015,-0.318
2025-11-06 18:32:56.178,48.84,0.069,0.161,-0.037,-0.29,-0.979,0.056,11.8,-6.3100000000000005,-49.22,0.7847000000000001,-0.5828,-0.11950000000000001,-0.1733,0.258,0.017,-0.32
2025-11-06 18:32:56.178,48.845,0.056,0.153,-0.039,-0.289,-0.983,0.059000000000000004,11.8,-6.3100000000000005,-49.22,0.7846000000000001,-0.5830000000000001,-0.1199,-0.1734,0.258,0.021,-0.322
2025-11-06 18:32:56.178,48.85,0.039,0.148,-0.042,-0.28700000000000003,-0.987,0.06,11.48,-5.72,-48.43,0.7844,-0.5830000000000001,-0.1202,-0.1736,0.256,0.024,-0.323
2025-11-06 18:32:56.178,48.855,0.026000000000000002,0.148,-0.045,-0.28600000000000003,-0.989,0.06,11.48,-5.72,-48.43,0.7843,-0.5831000000000001,-0.12050000000000001,-0.17370000000000002,0.256,0.027,-0.323
2025-11-06 18:32:56.178,48.86,0.016,0.145,-0.049,-0.28600000000000003,-0.992,0.058,11.69,-5.34,-48.9,0.7842,-0.5831000000000001,-0.12090000000000001,-0.1738,0.256,0.029,-0.321
2025-11-06 18:32:56.178,48.865,0.006,0.151,-0.052000000000000005,-0.28600000000000003,-0.993,0.054,11.69,-5.34,-48.9,0.7842,-0.5831000000000001,-0.1212,-0.1739,0.256,0.03,-0.317
2025-11-06 18:32:56.178,48.87,-0.007,0.145,-0.055,-0.28400000000000003,-0.994,0.049,11.69,-5.34,-48.9,0.7841,-0.5830000000000001,-0.1216,-0.17400000000000002,0.255,0.031,-0.311
2025-11-06 18:32:56.178,48.875,-0.021,0.132,-0.056,-0.28400000000000003,-0.994,0.045,12.01,-5.37,-48.49,0.7841,-0.5829,-0.12190000000000001,-0.17420000000000002,0.255,0.031,-0.307
2025-11-06 18:32:56.178,48.88,-0.027,0.124,-0.061,-0.28200000000000003,-0.993,0.044,12.01,-5.37,-48.49,0.7841,-0.5829,-0.1222,-0.17420000000000002,0.254,0.03,-0.306
2025-11-06 18:32:56.178,48.885,-0.037,0.115,-0.064,-0.281,-0.993,0.045,12.21,-5.46,-48.69,0.7841,-0.5828,-0.12240000000000001,-0.1743,0.252,0.03,-0.307
2025-11-06 18:32:56.178,48.89,-0.05,0.112,-0.066,-0.28,-0.994,0.05,12.21,-5.46,-48.69,0.7842,-0.5826,-0.1227,-0.1744,0.252,0.031,-0.313
2025-11-06 18:32:56.178,48.895,-0.062,0.113,-0.068,-0.276,-0.993,0.054,12.21,-5.46,-48.69,0.7842,-0.5825,-0.12300000000000001,-0.1744,0.248,0.031,-0.317
2025-11-06 18:32:56.178,48.9,-0.077,0.115,-0.069,-0.273,-0.994,0.058,12.16,-5.58,-49.25,0.7843,-0.5823,-0.1232,-0.17450000000000002,0.245,0.032,-0.321
2025-11-06 18:32:56.178,48.905,-0.089,0.11,-0.068,-0.27,-0.995,0.06,12.16,-5.58,-49.25,0.7844,-0.5821000000000001,-0.12350000000000001,-0.17450000000000002,0.244,0.033,-0.324
2025-11-06 18:32:56.178,48.91,-0.099,0.10400000000000001,-0.065,-0.266,-0.994,0.062,12.21,-5.99,-48.52,0.7845000000000001,-0.5819,-0.1237,-0.1746,0.24,0.032,-0.326
2025-11-06 18:32:56.178,48.915,-0.106,0.10200000000000001,-0.064,-0.266,-0.995,0.063,12.21,-5.99,-48.52,0.7846000000000001,-0.5817,-0.12390000000000001,-0.1746,0.24,0.033,-0.327
2025-11-06 18:32:56.178,48.92,-0.11,0.097,-0.063,-0.265,-0.992,0.062,12.21,-5.99,-48.52,0.7847000000000001,-0.5815,-0.1241,-0.17470000000000002,0.23900000000000002,0.03,-0.327
2025-11-06 18:32:56.178,48.925,-0.114,0.092,-0.064,-0.266,-0.991,0.062,12.13,-5.96,-48.84,0.7848,-0.5813,-0.12430000000000001,-0.17470000000000002,0.241,0.029,-0.327
2025-11-06 18:32:56.178,48.93,-0.114,0.084,-0.06,-0.267,-0.99,0.056,12.13,-5.96,-48.84,0.7849,-0.5811000000000001,-0.1245,-0.1748,0.242,0.029,-0.321
2025-11-06 18:32:56.178,48.935,-0.113,0.07100000000000001,-0.058,-0.267,-0.989,0.054,11.66,-5.61,-48.75,0.7851,-0.5809000000000001,-0.1246,-0.1748,0.243,0.028,-0.319
2025-11-06 18:32:56.178,48.94,-0.113,0.061,-0.06,-0.268,-0.991,0.048,11.66,-5.61,-48.75,0.7852,-0.5807,-0.1247,-0.1748,0.243,0.029,-0.314
2025-11-06 18:32:56.178,48.945,-0.114,0.057,-0.057,-0.269,-0.989,0.045,11.66,-5.61,-48.75,0.7853,-0.5805,-0.12480000000000001,-0.1748,0.245,0.028,-0.311
2025-11-06 18:32:56.178,48.95,-0.11800000000000001,0.053,-0.056,-0.27,-0.987,0.042,13.120000000000001,-6.22,-49.45,0.7854,-0.5803,-0.12490000000000001,-0.1748,0.246,0.025,-0.309
2025-11-06 18:32:56.178,48.955,-0.123,0.046,-0.058,-0.27,-0.985,0.041,13.120000000000001,-6.22,-49.45,0.7855000000000001,-0.5802,-0.12490000000000001,-0.1749,0.247,0.024,-0.308
2025-11-06 18:32:56.178,48.96,-0.124,0.044,-0.06,-0.273,-0.984,0.035,12.21,-5.32,-48.69,0.7856000000000001,-0.5800000000000001,-0.125,-0.1749,0.249,0.023,-0.303
2025-11-06 18:32:56.178,48.965,-0.127,0.054,-0.058,-0.272,-0.983,0.037,12.21,-5.32,-48.69,0.7857000000000001,-0.5798,-0.12510000000000002,-0.1749,0.249,0.022,-0.305
2025-11-06 18:32:56.178,48.97,-0.129,0.055,-0.056,-0.276,-0.979,0.038,12.21,-5.32,-48.69,0.7858,-0.5797,-0.12510000000000002,-0.1749,0.252,0.017,-0.306
2025-11-06 18:32:56.179,48.975,-0.136,0.057,-0.057,-0.275,-0.975,0.039,12.36,-5.9,-49.02,0.7859,-0.5796,-0.12510000000000002,-0.17500000000000002,0.252,0.014,-0.308
2025-11-06 18:32:56.179,48.98,-0.139,0.059000000000000004,-0.056,-0.277,-0.973,0.045,12.36,-5.9,-49.02,0.7859,-0.5795,-0.12510000000000002,-0.1751,0.254,0.012,-0.314
2025-11-06 18:32:56.179,48.985,-0.145,0.06,-0.056,-0.276,-0.971,0.052000000000000005,12.48,-5.72,-49.370000000000005,0.786,-0.5795,-0.12510000000000002,-0.1751,0.253,0.01,-0.322
2025-11-06 18:32:56.179,48.99,-0.14400000000000002,0.057,-0.053,-0.277,-0.966,0.056,12.48,-5.72,-49.370000000000005,0.786,-0.5793,-0.12510000000000002,-0.1752,0.254,0.005,-0.325
2025-11-06 18:32:56.179,48.995,-0.146,0.053,-0.05,-0.276,-0.964,0.057,12.48,-5.72,-49.370000000000005,0.7861,-0.5792,-0.12510000000000002,-0.1752,0.252,0.003,-0.326
2025-11-06 18:32:56.179,49.0,-0.149,0.046,-0.05,-0.275,-0.962,0.055,12.83,-6.54,-49.4,0.7862,-0.5790000000000001,-0.1252,-0.1752,0.252,0.001,-0.325
2025-11-06 18:32:56.179,49.005,-0.152,0.038,-0.047,-0.273,-0.9590000000000001,0.052000000000000005,12.83,-6.54,-49.4,0.7864,-0.5788,-0.1252,-0.1753,0.25,0.0,-0.323
2025-11-06 18:32:56.179,49.01,-0.152,0.027,-0.045,-0.273,-0.9590000000000001,0.049,12.27,-6.08,-49.07,0.7865000000000001,-0.5786,-0.1252,-0.1753,0.25,0.0,-0.32
2025-11-06 18:32:56.179,49.015,-0.152,0.017,-0.042,-0.273,-0.9570000000000001,0.047,12.27,-6.08,-49.07,0.7867000000000001,-0.5784,-0.12510000000000002,-0.1753,0.25,-0.002,-0.319
2025-11-06 18:32:56.179,49.02,-0.14300000000000002,0.01,-0.041,-0.274,-0.9590000000000001,0.046,12.27,-6.08,-49.07,0.7868,-0.5782,-0.12510000000000002,-0.1753,0.251,0.0,-0.319
2025-11-06 18:32:56.179,49.025,-0.135,0.0,-0.04,-0.275,-0.961,0.046,12.21,-6.54,-49.1,0.7869,-0.5781000000000001,-0.125,-0.1753,0.252,0.002,-0.319
2025-11-06 18:32:56.179,49.03,-0.125,-0.003,-0.04,-0.277,-0.964,0.047,12.21,-6.54,-49.1,0.787,-0.5781000000000001,-0.12480000000000001,-0.1753,0.253,0.004,-0.32
2025-11-06 18:32:56.179,49.035,-0.117,-0.014,-0.039,-0.277,-0.965,0.048,12.27,-5.7,-48.660000000000004,0.787,-0.5781000000000001,-0.1247,-0.1753,0.254,0.006,-0.32
2025-11-06 18:32:56.179,49.04,-0.111,-0.019,-0.039,-0.279,-0.969,0.05,12.27,-5.7,-48.660000000000004,0.7869,-0.5783,-0.12440000000000001,-0.1752,0.255,0.009000000000000001,-0.322
2025-11-06 18:32:56.179,49.045,-0.106,-0.025,-0.037,-0.28,-0.972,0.051000000000000004,12.27,-5.7,-48.660000000000004,0.7868,-0.5784,-0.1242,-0.1752,0.256,0.012,-0.323
2025-11-06 18:32:56.179,49.05,-0.101,-0.028,-0.037,-0.28,-0.973,0.053,12.540000000000001,-6.3100000000000005,-49.34,0.7868,-0.5786,-0.124,-0.1752,0.255,0.013000000000000001,-0.325
2025-11-06 18:32:56.179,49.055,-0.10300000000000001,-0.03,-0.034,-0.28,-0.973,0.054,12.540000000000001,-6.3100000000000005,-49.34,0.7867000000000001,-0.5787,-0.1237,-0.1751,0.255,0.013000000000000001,-0.326
2025-11-06 18:32:56.179,49.06,-0.101,-0.03,-0.033,-0.278,-0.972,0.056,12.540000000000001,-6.3100000000000005,-49.34,0.7866000000000001,-0.5789000000000001,-0.12350000000000001,-0.1751,0.253,0.012,-0.327
2025-11-06 18:32:56.179,49.065,-0.10300000000000001,-0.028,-0.031,-0.279,-0.973,0.057,12.3,-5.46,-49.1,0.7866000000000001,-0.5791000000000001,-0.1232,-0.17500000000000002,0.253,0.013000000000000001,-0.328
2025-11-06 18:32:56.179,49.07,-0.105,-0.035,-0.028,-0.275,-0.972,0.056,12.3,-5.46,-49.1,0.7865000000000001,-0.5793,-0.12300000000000001,-0.17500000000000002,0.248,0.012,-0.326
2025-11-06 18:32:56.179,49.075,-0.105,-0.036000000000000004,-0.027,-0.273,-0.97,0.055,12.8,-5.46,-49.4,0.7864,-0.5794,-0.1227,-0.1749,0.246,0.01,-0.326
2025-11-06 18:32:56.179,49.08,-0.105,-0.034,-0.024,-0.272,-0.969,0.054,12.8,-5.46,-49.4,0.7864,-0.5796,-0.12240000000000001,-0.1748,0.245,0.008,-0.324
2025-11-06 18:32:56.179,49.085,-0.105,-0.031,-0.024,-0.271,-0.966,0.053,12.8,-5.46,-49.4,0.7863,-0.5797,-0.1222,-0.1748,0.244,0.006,-0.323
2025-11-06 18:32:56.179,49.09,-0.10300000000000001,-0.033,-0.024,-0.268,-0.965,0.053,12.36,-5.2,-49.63,0.7864,-0.5797,-0.12200000000000001,-0.17470000000000002,0.24,0.005,-0.323
2025-11-06 18:32:56.179,49.095,-0.1,-0.039,-0.022,-0.269,-0.966,0.052000000000000005,12.36,-5.2,-49.63,0.7864,-0.5798,-0.1218,-0.17470000000000002,0.241,0.005,-0.322
2025-11-06 18:32:56.179,49.1,-0.1,-0.046,-0.019,-0.269,-0.966,0.051000000000000004,12.3,-6.78,-50.19,0.7863,-0.5799000000000001,-0.12150000000000001,-0.1746,0.241,0.006,-0.321
2025-11-06 18:32:56.179,49.105,-0.099,-0.05,-0.017,-0.269,-0.967,0.05,12.3,-6.78,-50.19,0.7863,-0.5800000000000001,-0.1213,-0.17450000000000002,0.24,0.007,-0.32
2025-11-06 18:32:56.179,49.11,-0.099,-0.053,-0.015,-0.271,-0.968,0.05,12.3,-6.78,-50.19,0.7863,-0.5801000000000001,-0.12100000000000001,-0.17450000000000002,0.242,0.008,-0.319
2025-11-06 18:32:56.179,49.115,-0.099,-0.054,-0.013000000000000001,-0.275,-0.969,0.046,12.27,-4.91,-50.01,0.7862,-0.5803,-0.1207,-0.1744,0.245,0.008,-0.316
2025-11-06 18:32:56.179,49.12,-0.096,-0.053,-0.011,-0.278,-0.97,0.046,12.27,-4.91,-50.01,0.7861,-0.5805,-0.1203,-0.1744,0.247,0.009000000000000001,-0.315
2025-11-06 18:32:56.179,49.125,-0.094,-0.058,-0.009000000000000001,-0.28,-0.971,0.046,11.6,-6.19,-50.27,0.786,-0.5807,-0.12000000000000001,-0.1744,0.249,0.01,-0.315
2025-11-06 18:32:56.180,49.13,-0.088,-0.057,-0.007,-0.28300000000000003,-0.972,0.046,11.6,-6.19,-50.27,0.7859,-0.5809000000000001,-0.11960000000000001,-0.1744,0.252,0.011,-0.314
2025-11-06 18:32:56.180,49.135,-0.083,-0.067,-0.005,-0.28500000000000003,-0.974,0.047,11.6,-6.19,-50.27,0.7858,-0.5811000000000001,-0.1193,-0.1744,0.253,0.013000000000000001,-0.315
2025-11-06 18:32:56.180,49.14,-0.08,-0.067,-0.003,-0.28600000000000003,-0.975,0.049,11.98,-5.29,-50.07,0.7858,-0.5812,-0.11900000000000001,-0.1744,0.254,0.014,-0.317
2025-11-06 18:32:56.180,49.145,-0.073,-0.064,-0.004,-0.289,-0.976,0.05,11.98,-5.29,-50.07,0.7858,-0.5813,-0.1188,-0.1743,0.255,0.015,-0.318
2025-11-06 18:32:56.180,49.15,-0.07,-0.064,-0.002,-0.28800000000000003,-0.975,0.052000000000000005,12.42,-6.08,-50.04,0.7857000000000001,-0.5815,-0.11850000000000001,-0.1743,0.254,0.013000000000000001,-0.32
2025-11-06 18:32:56.180,49.155,-0.064,-0.06,-0.003,-0.289,-0.974,0.053,12.42,-6.08,-50.04,0.7856000000000001,-0.5816,-0.1182,-0.1743,0.255,0.013000000000000001,-0.32
2025-11-06 18:32:56.180,49.16,-0.06,-0.057,0.001,-0.28800000000000003,-0.972,0.053,12.42,-6.08,-50.04,0.7854,-0.5820000000000001,-0.1178,-0.1743,0.253,0.011,-0.321
2025-11-06 18:32:56.180,49.165,-0.06,-0.057,0.0,-0.28600000000000003,-0.969,0.053,12.36,-4.94,-50.160000000000004,0.7852,-0.5824,-0.1174,-0.1743,0.251,0.008,-0.32
2025-11-06 18:32:56.180,49.17,-0.064,-0.061,0.001,-0.28500000000000003,-0.967,0.052000000000000005,12.36,-4.94,-50.160000000000004,0.785,-0.5827,-0.117,-0.1744,0.248,0.005,-0.317
2025-11-06 18:32:56.180,49.175,-0.068,-0.063,0.0,-0.28300000000000003,-0.966,0.05,12.48,-5.14,-50.07,0.7848,-0.5830000000000001,-0.11660000000000001,-0.1744,0.245,0.004,-0.316
2025-11-06 18:32:56.180,49.18,-0.068,-0.068,0.001,-0.28200000000000003,-0.963,0.046,12.48,-5.14,-50.07,0.7847000000000001,-0.5832,-0.1163,-0.1743,0.244,0.001,-0.311
2025-11-06 18:32:56.180,49.185,-0.066,-0.07200000000000001,0.0,-0.281,-0.964,0.043000000000000003,12.48,-5.14,-50.07,0.7846000000000001,-0.5834,-0.116,-0.1743,0.243,0.002,-0.307
2025-11-06 18:32:56.180,49.19,-0.065,-0.079,0.0,-0.28,-0.965,0.04,12.07,-5.37,-50.36,0.7845000000000001,-0.5836,-0.11560000000000001,-0.1743,0.24,0.003,-0.305
2025-11-06 18:32:56.180,49.195,-0.062,-0.091,0.0,-0.278,-0.964,0.039,12.07,-5.37,-50.36,0.7845000000000001,-0.5838,-0.1153,-0.17420000000000002,0.23800000000000002,0.002,-0.303
2025-11-06 18:32:56.180,49.2,-0.061,-0.099,0.0,-0.279,-0.963,0.038,13.09,-5.72,-49.89,0.7844,-0.5839,-0.1149,-0.17420000000000002,0.23900000000000002,0.0,-0.302
2025-11-06 18:32:56.180,49.205,-0.06,-0.1,0.0,-0.279,-0.963,0.039,13.09,-5.72,-49.89,0.7844,-0.5841000000000001,-0.11460000000000001,-0.1741,0.23800000000000002,0.001,-0.303
2025-11-06 18:32:56.180,49.21,-0.062,-0.093,0.0,-0.281,-0.962,0.043000000000000003,13.09,-5.72,-49.89,0.7843,-0.5842,-0.1143,-0.17400000000000002,0.23900000000000002,0.0,-0.306
2025-11-06 18:32:56.180,49.215,-0.059000000000000004,-0.091,-0.002,-0.28,-0.962,0.044,12.59,-5.43,-50.57,0.7843,-0.5843,-0.114,-0.1739,0.23800000000000002,0.0,-0.307
2025-11-06 18:32:56.180,49.22,-0.061,-0.085,0.0,-0.28400000000000003,-0.961,0.044,12.59,-5.43,-50.57,0.7843,-0.5845,-0.1136,-0.1739,0.241,0.0,-0.307
2025-11-06 18:32:56.180,49.225,-0.064,-0.085,-0.003,-0.28700000000000003,-0.962,0.042,12.77,-5.37,-50.13,0.7842,-0.5846,-0.11330000000000001,-0.1738,0.244,0.0,-0.306
2025-11-06 18:32:56.180,49.23,-0.064,-0.082,-0.003,-0.289,-0.961,0.04,12.77,-5.37,-50.13,0.7842,-0.5848,-0.113,-0.1738,0.246,-0.001,-0.303
2025-11-06 18:32:56.180,49.235,-0.065,-0.082,-0.004,-0.292,-0.962,0.038,12.77,-5.37,-50.13,0.7841,-0.5850000000000001,-0.11270000000000001,-0.1738,0.248,0.0,-0.301
2025-11-06 18:32:56.180,49.24,-0.062,-0.083,-0.004,-0.294,-0.961,0.037,12.8,-5.5200000000000005,-49.72,0.784,-0.5851000000000001,-0.11230000000000001,-0.1738,0.249,-0.001,-0.299
2025-11-06 18:32:56.180,49.245,-0.058,-0.084,-0.005,-0.295,-0.9590000000000001,0.036000000000000004,12.8,-5.5200000000000005,-49.72,0.7839,-0.5853,-0.112,-0.1738,0.25,-0.003,-0.298
2025-11-06 18:32:56.181,49.25,-0.051000000000000004,-0.08700000000000001,-0.005,-0.294,-0.9590000000000001,0.034,12.39,-5.58,-49.45,0.7839,-0.5854,-0.11170000000000001,-0.1738,0.248,-0.003,-0.296
2025-11-06 18:32:56.182,49.255,-0.039,-0.085,-0.003,-0.294,-0.962,0.034,12.39,-5.58,-49.45,0.7837000000000001,-0.5857,-0.11130000000000001,-0.1738,0.247,0.0,-0.296
2025-11-06 18:32:56.182,49.26,-0.031,-0.089,-0.003,-0.293,-0.96,0.035,12.39,-5.58,-49.45,0.7836000000000001,-0.5860000000000001,-0.111,-0.1738,0.246,-0.002,-0.296
2025-11-06 18:32:56.182,49.265,-0.024,-0.089,0.0,-0.292,-0.962,0.037,13.0,-6.84,-50.33,0.7833,-0.5863,-0.1106,-0.1738,0.245,0.0,-0.297
2025-11-06 18:32:56.182,49.27,-0.02,-0.085,0.0,-0.291,-0.963,0.035,13.0,-6.84,-50.33,0.7831,-0.5867,-0.1102,-0.1738,0.243,0.0,-0.295
2025-11-06 18:32:56.182,49.275,-0.014,-0.076,-0.002,-0.29,-0.963,0.033,12.27,-5.99,-50.480000000000004,0.7828,-0.5871000000000001,-0.10980000000000001,-0.1739,0.241,0.0,-0.292
2025-11-06 18:32:56.182,49.28,-0.012,-0.07100000000000001,0.0,-0.29,-0.964,0.03,12.27,-5.99,-50.480000000000004,0.7825000000000001,-0.5876,-0.10940000000000001,-0.17400000000000002,0.24,0.0,-0.28800000000000003
2025-11-06 18:32:56.182,49.285,-0.006,-0.068,0.0,-0.289,-0.969,0.03,12.27,-5.99,-50.480000000000004,0.782,-0.5883,-0.10890000000000001,-0.17420000000000002,0.23700000000000002,0.004,-0.28700000000000003
2025-11-06 18:32:56.182,49.29,-0.006,-0.073,0.0,-0.28700000000000003,-0.971,0.032,12.620000000000001,-5.75,-49.69,0.7816000000000001,-0.5889,-0.10840000000000001,-0.1743,0.23500000000000001,0.006,-0.28700000000000003
2025-11-06 18:32:56.182,49.295,-0.006,-0.07200000000000001,0.001,-0.28600000000000003,-0.974,0.032,12.620000000000001,-5.75,-49.69,0.7813,-0.5894,-0.108,-0.1743,0.233,0.009000000000000001,-0.28600000000000003
2025-11-06 18:32:56.182,49.3,-0.009000000000000001,-0.07200000000000001,0.002,-0.28700000000000003,-0.975,0.031,12.620000000000001,-5.75,-49.69,0.7811,-0.5897,-0.1077,-0.1743,0.233,0.01,-0.28500000000000003
2025-11-06 18:32:56.182,49.305,-0.011,-0.07200000000000001,0.004,-0.28600000000000003,-0.978,0.031,12.68,-5.61,-50.39,0.7809,-0.5899,-0.10740000000000001,-0.1743,0.231,0.012,-0.28400000000000003
2025-11-06 18:32:56.182,49.31,-0.014,-0.066,0.002,-0.28800000000000003,-0.979,0.03,12.68,-5.61,-50.39,0.7808,-0.5901000000000001,-0.1072,-0.1743,0.233,0.013000000000000001,-0.28200000000000003
2025-11-06 18:32:56.182,49.315,-0.017,-0.066,0.002,-0.29,-0.982,0.03,12.1,-5.8100000000000005,-50.54,0.7808,-0.5902000000000001,-0.10690000000000001,-0.17420000000000002,0.234,0.016,-0.28300000000000003
2025-11-06 18:32:56.182,49.32,-0.015,-0.065,0.002,-0.291,-0.98,0.028,12.1,-5.8100000000000005,-50.54,0.7807000000000001,-0.5904,-0.1067,-0.17420000000000002,0.23500000000000001,0.015,-0.28
2025-11-06 18:32:56.182,49.325,-0.018000000000000002,-0.068,0.003,-0.29,-0.98,0.028,12.1,-5.8100000000000005,-50.54,0.7807000000000001,-0.5905,-0.10650000000000001,-0.17420000000000002,0.233,0.014,-0.28
2025-11-06 18:32:56.182,49.33,-0.019,-0.07,0.001,-0.289,-0.978,0.028,13.38,-5.49,-49.75,0.7806000000000001,-0.5907,-0.1063,-0.17420000000000002,0.232,0.012,-0.279
2025-11-06 18:32:56.182,49.335,-0.015,-0.074,0.001,-0.29,-0.974,0.028,13.38,-5.49,-49.75,0.7804,-0.5910000000000001,-0.10590000000000001,-0.17420000000000002,0.232,0.008,-0.279
2025-11-06 18:32:56.182,49.34,-0.013000000000000001,-0.07100000000000001,0.002,-0.29,-0.971,0.029,12.56,-6.28,-50.620000000000005,0.78,-0.5915,-0.10550000000000001,-0.1743,0.231,0.005,-0.279
2025-11-06 18:32:56.182,49.345,-0.012,-0.07200000000000001,0.0,-0.29,-0.968,0.027,12.56,-6.28,-50.620000000000005,0.7796000000000001,-0.5921000000000001,-0.10500000000000001,-0.17450000000000002,0.23,0.002,-0.277
2025-11-06 18:32:56.182,49.35,-0.011,-0.07200000000000001,-0.002,-0.291,-0.966,0.024,12.56,-6.28,-50.620000000000005,0.7792,-0.5926,-0.1046,-0.1746,0.23,0.0,-0.272
2025-11-06 18:32:56.182,49.355,-0.009000000000000001,-0.07200000000000001,-0.005,-0.291,-0.964,0.021,12.77,-5.4,-50.54,0.7789,-0.5931000000000001,-0.1042,-0.17470000000000002,0.229,-0.002,-0.268
2025-11-06 18:32:56.182,49.36,-0.011,-0.077,-0.004,-0.29,-0.965,0.02,12.77,-5.4,-50.54,0.7786000000000001,-0.5935,-0.1038,-0.1748,0.227,-0.002,-0.266
2025-11-06 18:32:56.182,49.365,-0.014,-0.085,-0.008,-0.289,-0.963,0.021,12.040000000000001,-7.01,-50.13,0.7785000000000001,-0.5938,-0.1034,-0.1748,0.225,-0.003,-0.267
2025-11-06 18:32:56.182,49.37,-0.019,-0.091,-0.011,-0.28600000000000003,-0.963,0.021,12.040000000000001,-7.01,-50.13,0.7783,-0.5940000000000001,-0.10310000000000001,-0.1748,0.222,-0.003,-0.267
2025-11-06 18:32:56.182,49.375,-0.021,-0.081,-0.011,-0.28600000000000003,-0.963,0.021,12.040000000000001,-7.01,-50.13,0.7781,-0.5943,-0.1028,-0.1748,0.221,-0.003,-0.266
2025-11-06 18:32:56.182,49.38,-0.023,-0.074,-0.01,-0.28500000000000003,-0.965,0.022,12.24,-6.8100000000000005,-50.33,0.7779,-0.5946,-0.10250000000000001,-0.1748,0.219,-0.001,-0.266
2025-11-06 18:32:56.182,49.385,-0.03,-0.069,-0.009000000000000001,-0.28800000000000003,-0.968,0.021,12.24,-6.8100000000000005,-50.33,0.7776000000000001,-0.595,-0.10210000000000001,-0.1749,0.222,0.0,-0.264
2025-11-06 18:32:56.182,49.39,-0.029,-0.068,-0.009000000000000001,-0.289,-0.97,0.022,13.27,-6.16,-50.74,0.7774000000000001,-0.5954,-0.1017,-0.17500000000000002,0.222,0.002,-0.264
2025-11-06 18:32:56.182,49.395,-0.028,-0.068,-0.005,-0.289,-0.971,0.022,13.27,-6.16,-50.74,0.7771,-0.5958,-0.1013,-0.1751,0.221,0.003,-0.264
2025-11-06 18:32:56.182,49.4,-0.028,-0.07200000000000001,-0.005,-0.291,-0.973,0.021,13.27,-6.16,-50.74,0.7769,-0.5961000000000001,-0.101,-0.1752,0.222,0.005,-0.262
2025-11-06 18:32:56.182,49.405,-0.025,-0.07100000000000001,-0.001,-0.291,-0.977,0.02,11.92,-6.05,-50.57,0.7769,-0.5962000000000001,-0.1008,-0.1751,0.222,0.009000000000000001,-0.261
2025-11-06 18:32:56.182,49.41,-0.022,-0.066,-0.001,-0.291,-0.978,0.023,11.92,-6.05,-50.57,0.7768,-0.5964,-0.1005,-0.1751,0.222,0.009000000000000001,-0.263
2025-11-06 18:32:56.182,49.415,-0.017,-0.061,0.0,-0.291,-0.981,0.025,12.27,-5.55,-50.77,0.7767000000000001,-0.5965,-0.1003,-0.1751,0.221,0.013000000000000001,-0.265
2025-11-06 18:32:56.182,49.42,-0.012,-0.057,0.002,-0.293,-0.982,0.027,12.27,-5.55,-50.77,0.7767000000000001,-0.5966,-0.10020000000000001,-0.1751,0.223,0.014,-0.267
2025-11-06 18:32:56.182,49.425,-0.011,-0.058,0.003,-0.293,-0.983,0.031,12.27,-5.55,-50.77,0.7766000000000001,-0.5967,-0.1,-0.17500000000000002,0.222,0.015,-0.27
2025-11-06 18:32:56.182,49.43,-0.009000000000000001,-0.056,0.003,-0.294,-0.984,0.035,12.040000000000001,-5.58,-50.480000000000004,0.7766000000000001,-0.5968,-0.0998,-0.17500000000000002,0.223,0.016,-0.274
2025-11-06 18:32:56.182,49.435,-0.015,-0.055,0.002,-0.294,-0.985,0.036000000000000004,12.040000000000001,-5.58,-50.480000000000004,0.7766000000000001,-0.5968,-0.09970000000000001,-0.1749,0.222,0.017,-0.275
2025-11-06 18:32:56.182,49.44,-0.016,-0.051000000000000004,0.003,-0.294,-0.983,0.034,11.6,-5.5200000000000005,-51.27,0.7766000000000001,-0.5969,-0.0995,-0.1749,0.223,0.015,-0.274
2025-11-06 18:32:56.182,49.445,-0.022,-0.05,0.002,-0.295,-0.984,0.033,11.6,-5.5200000000000005,-51.27,0.7765000000000001,-0.597,-0.0993,-0.1748,0.223,0.015,-0.272
2025-11-06 18:32:56.182,49.45,-0.023,-0.044,0.001,-0.294,-0.98,0.031,11.6,-5.5200000000000005,-51.27,0.7765000000000001,-0.5971000000000001,-0.09920000000000001,-0.1748,0.222,0.012,-0.27
2025-11-06 18:32:56.182,49.455,-0.03,-0.049,0.0,-0.295,-0.978,0.027,13.24,-6.08,-51.18,0.7764000000000001,-0.5972000000000001,-0.099,-0.1748,0.223,0.009000000000000001,-0.266
2025-11-06 18:32:56.182,49.46,-0.031,-0.051000000000000004,0.0,-0.295,-0.975,0.024,13.24,-6.08,-51.18,0.7763,-0.5974,-0.09870000000000001,-0.1749,0.222,0.006,-0.263
2025-11-06 18:32:56.182,49.465,-0.033,-0.054,0.001,-0.293,-0.971,0.024,11.450000000000001,-6.3100000000000005,-50.620000000000005,0.7761,-0.5977,-0.0984,-0.17500000000000002,0.22,0.003,-0.262
2025-11-06 18:32:56.182,49.47,-0.031,-0.055,0.002,-0.294,-0.969,0.025,11.450000000000001,-6.3100000000000005,-50.620000000000005,0.7758,-0.5981000000000001,-0.098,-0.1752,0.219,0.0,-0.262
2025-11-06 18:32:56.184,49.475,-0.027,-0.059000000000000004,0.003,-0.291,-0.969,0.025,11.450000000000001,-6.3100000000000005,-50.620000000000005,0.7754000000000001,-0.5986,-0.0976,-0.1753,0.216,0.0,-0.261
2025-11-06 18:32:56.184,49.48,-0.02,-0.06,0.004,-0.291,-0.967,0.027,11.78,-5.58,-51.27,0.775,-0.5991000000000001,-0.0971,-0.17550000000000002,0.214,-0.001,-0.263
2025-11-06 18:32:56.184,49.485,-0.013000000000000001,-0.058,0.006,-0.29,-0.965,0.028,11.78,-5.58,-51.27,0.7747,-0.5996,-0.09670000000000001,-0.1756,0.212,-0.004,-0.263
2025-11-06 18:32:56.185,49.49,-0.008,-0.061,0.006,-0.289,-0.962,0.032,11.8,-5.58,-50.65,0.7744000000000001,-0.6,-0.0964,-0.1757,0.21,-0.007,-0.266
2025-11-06 18:32:56.185,49.495,0.004,-0.061,0.005,-0.28600000000000003,-0.964,0.036000000000000004,11.8,-6.08,-50.65,0.7741,-0.6004,-0.096,-0.1757,0.20700000000000002,-0.005,-0.269
2025-11-06 18:32:56.185,49.5,0.008,-0.057,0.006,-0.28800000000000003,-0.962,0.037,11.8,-6.08,-50.65,0.7738,-0.6008,-0.09570000000000001,-0.1758,0.20800000000000002,-0.007,-0.27
2025-11-06 18:32:56.185,49.505,0.01,-0.057,0.008,-0.289,-0.965,0.038,11.78,-5.72,-51.120000000000005,0.7734000000000001,-0.6014,-0.09530000000000001,-0.1759,0.20800000000000002,-0.004,-0.269
2025-11-06 18:32:56.185,49.51,0.01,-0.051000000000000004,0.005,-0.291,-0.965,0.041,11.78,-5.72,-51.120000000000005,0.7729,-0.6021000000000001,-0.09480000000000001,-0.17600000000000002,0.20800000000000002,-0.004,-0.271
2025-11-06 18:32:56.185,49.515,0.01,-0.055,0.003,-0.292,-0.968,0.042,11.66,-6.3100000000000005,-51.120000000000005,0.7724000000000001,-0.6028,-0.09430000000000001,-0.1761,0.209,-0.002,-0.27
2025-11-06 18:32:56.185,49.52,0.006,-0.05,0.001,-0.294,-0.97,0.042,11.66,-6.3100000000000005,-51.120000000000005,0.7719,-0.6034,-0.09390000000000001,-0.1762,0.209,0.0,-0.269
2025-11-06 18:32:56.185,49.525,0.001,-0.044,0.001,-0.297,-0.975,0.046,11.66,-6.3100000000000005,-51.120000000000005,0.7717,-0.6037,-0.0937,-0.1762,0.211,0.004,-0.271
2025-11-06 18:32:56.185,49.53,-0.006,-0.033,0.0,-0.297,-0.977,0.046,11.92,-5.43,-50.620000000000005,0.7716000000000001,-0.6038,-0.0935,-0.1762,0.211,0.006,-0.271
2025-11-06 18:32:56.185,49.535,-0.012,-0.028,0.0,-0.298,-0.981,0.047,11.92,-5.43,-50.620000000000005,0.7716000000000001,-0.6039,-0.09340000000000001,-0.1762,0.212,0.01,-0.272
2025-11-06 18:32:56.185,49.54,-0.022,-0.016,0.0,-0.299,-0.981,0.048,11.92,-5.43,-50.620000000000005,0.7715000000000001,-0.604,-0.09330000000000001,-0.1762,0.213,0.01,-0.272
2025-11-06 18:32:56.185,49.545,-0.023,-0.014,0.0,-0.298,-0.981,0.045,11.98,-5.46,-50.97,0.7715000000000001,-0.604,-0.0932,-0.1763,0.212,0.01,-0.27
2025-11-06 18:32:56.185,49.55,-0.029,-0.006,0.001,-0.298,-0.983,0.044,11.98,-5.46,-50.97,0.7715000000000001,-0.604,-0.0932,-0.1763,0.212,0.012,-0.269
2025-11-06 18:32:56.185,49.555,-0.034,-0.001,0.003,-0.297,-0.984,0.047,11.69,-5.4,-51.0,0.7715000000000001,-0.604,-0.0931,-0.1763,0.211,0.013000000000000001,-0.272
2025-11-06 18:32:56.185,49.56,-0.039,0.005,0.005,-0.296,-0.984,0.049,11.69,-5.4,-51.0,0.7715000000000001,-0.604,-0.093,-0.1764,0.21,0.012,-0.273
2025-11-06 18:32:56.185,49.565,-0.039,0.012,0.006,-0.294,-0.981,0.05,11.69,-5.4,-51.0,0.7715000000000001,-0.6041000000000001,-0.093,-0.1764,0.20800000000000002,0.01,-0.275
2025-11-06 18:32:56.185,49.57,-0.037,0.022,0.008,-0.295,-0.981,0.051000000000000004,11.98,-5.2,-50.89,0.7714000000000001,-0.6041000000000001,-0.09290000000000001,-0.17650000000000002,0.20800000000000002,0.01,-0.276
2025-11-06 18:32:56.185,49.575,-0.036000000000000004,0.026000000000000002,0.01,-0.294,-0.979,0.048,11.98,-5.2,-50.89,0.7714000000000001,-0.6041000000000001,-0.09290000000000001,-0.1766,0.20600000000000002,0.008,-0.273
2025-11-06 18:32:56.185,49.58,-0.038,0.026000000000000002,0.012,-0.293,-0.976,0.042,11.92,-5.43,-50.19,0.7713,-0.6043000000000001,-0.09280000000000001,-0.1767,0.20500000000000002,0.005,-0.267
2025-11-06 18:32:56.185,49.585,-0.042,0.027,0.012,-0.294,-0.975,0.039,11.92,-5.43,-50.19,0.7711,-0.6044,-0.0926,-0.1769,0.20600000000000002,0.003,-0.263
2025-11-06 18:32:56.185,49.59,-0.047,0.027,0.013000000000000001,-0.292,-0.973,0.034,11.92,-5.43,-50.19,0.771,-0.6046,-0.0925,-0.1771,0.203,0.002,-0.258
2025-11-06 18:32:56.185,49.595,-0.047,0.026000000000000002,0.015,-0.291,-0.971,0.032,12.39,-5.5200000000000005,-50.620000000000005,0.7707,-0.6049,-0.09230000000000001,-0.1773,0.202,0.0,-0.256
2025-11-06 18:32:56.185,49.6,-0.045,0.024,0.014,-0.289,-0.969,0.032,12.39,-5.5200000000000005,-50.620000000000005,0.7704000000000001,-0.6053000000000001,-0.092,-0.1776,0.199,-0.001,-0.255
2025-11-06 18:32:56.185,49.605,-0.046,0.022,0.018000000000000002,-0.28600000000000003,-0.968,0.033,12.18,-5.75,-50.74,0.77,-0.6057,-0.0917,-0.1778,0.195,-0.002,-0.255
2025-11-06 18:32:56.185,49.61,-0.042,0.016,0.018000000000000002,-0.28500000000000003,-0.967,0.033,12.18,-5.75,-50.74,0.7697,-0.6061000000000001,-0.09140000000000001,-0.17800000000000002,0.193,-0.004,-0.254
2025-11-06 18:32:56.185,49.615,-0.038,0.013000000000000001,0.019,-0.28300000000000003,-0.967,0.035,12.18,-5.75,-50.74,0.7693,-0.6066,-0.0911,-0.1782,0.19,-0.004,-0.255
2025-11-06 18:32:56.185,49.62,-0.037,0.014,0.019,-0.28300000000000003,-0.964,0.033,11.6,-5.87,-50.65,0.7691,-0.6069,-0.0908,-0.1784,0.189,-0.007,-0.252
2025-11-06 18:32:56.185,49.625,-0.037,0.012,0.017,-0.28300000000000003,-0.965,0.031,11.6,-5.87,-50.65,0.7688,-0.6072000000000001,-0.0906,-0.17850000000000002,0.188,-0.006,-0.25
2025-11-06 18:32:56.185,49.63,-0.037,0.012,0.016,-0.28300000000000003,-0.963,0.029,12.8,-5.5200000000000005,-50.74,0.7686000000000001,-0.6074,-0.09040000000000001,-0.1787,0.188,-0.008,-0.247
2025-11-06 18:32:56.186,49.635,-0.038,0.008,0.013000000000000001,-0.28500000000000003,-0.964,0.025,12.8,-5.5200000000000005,-50.74,0.7684000000000001,-0.6077,-0.0901,-0.1789,0.189,-0.007,-0.242
2025-11-06 18:32:56.186,49.64,-0.041,0.007,0.01,-0.28200000000000003,-0.964,0.025,12.8,-5.5200000000000005,-50.74,0.7681,-0.608,-0.08990000000000001,-0.17900000000000002,0.186,-0.008,-0.242
2025-11-06 18:32:56.186,49.645,-0.041,0.007,0.01,-0.28500000000000003,-0.966,0.025,12.07,-5.72,-50.83,0.7678,-0.6084,-0.0896,-0.17930000000000001,0.187,-0.006,-0.241
2025-11-06 18:32:56.186,49.65,-0.04,0.003,0.009000000000000001,-0.28600000000000003,-0.966,0.025,12.07,-5.72,-50.83,0.7674000000000001,-0.6089,-0.0892,-0.17950000000000002,0.187,-0.006,-0.24
2025-11-06 18:32:56.186,49.655,-0.041,0.002,0.009000000000000001,-0.28800000000000003,-0.968,0.026000000000000002,11.72,-5.49,-51.15,0.7668,-0.6096,-0.0887,-0.17980000000000002,0.188,-0.004,-0.24
2025-11-06 18:32:56.186,49.66,-0.037,0.004,0.006,-0.28800000000000003,-0.969,0.028,11.72,-5.49,-51.15,0.7662,-0.6104,-0.0882,-0.1802,0.187,-0.003,-0.23900000000000002
2025-11-06 18:32:56.186,49.665,-0.031,0.006,0.006,-0.29,-0.969,0.03,11.72,-5.49,-51.15,0.7655000000000001,-0.6112000000000001,-0.0877,-0.18050000000000002,0.187,-0.004,-0.24
2025-11-06 18:32:56.186,49.67,-0.029,0.008,0.005,-0.291,-0.97,0.03,11.69,-5.34,-50.92,0.7649,-0.6119,-0.0873,-0.18080000000000002,0.186,-0.003,-0.23800000000000002
2025-11-06 18:32:56.186,49.675,-0.025,0.005,0.006,-0.292,-0.97,0.03,11.69,-5.34,-50.92,0.7643000000000001,-0.6127,-0.0868,-0.1811,0.185,-0.004,-0.23600000000000002
2025-11-06 18:32:56.186,49.68,-0.022,0.004,0.007,-0.292,-0.969,0.029,12.33,-5.75,-51.18,0.7635000000000001,-0.6136,-0.0862,-0.18150000000000002,0.184,-0.004,-0.234
2025-11-06 18:32:56.186,49.685,-0.023,-0.003,0.008,-0.292,-0.967,0.031,12.33,-5.75,-51.18,0.7627,-0.6146,-0.0855,-0.1819,0.182,-0.007,-0.233
2025-11-06 18:32:56.186,49.69,-0.018000000000000002,-0.002,0.008,-0.293,-0.966,0.031,12.33,-5.75,-51.18,0.7617,-0.6158,-0.0848,-0.1824,0.181,-0.008,-0.232
2025-11-06 18:32:56.186,49.695,-0.011,0.0,0.007,-0.293,-0.966,0.032,12.56,-6.13,-50.68,0.7603000000000001,-0.6175,-0.0838,-0.1831,0.178,-0.009000000000000001,-0.229
2025-11-06 18:32:56.186,49.7,-0.004,-0.002,0.009000000000000001,-0.294,-0.965,0.034,12.56,-6.13,-50.68,0.7588,-0.6192000000000001,-0.08270000000000001,-0.18380000000000002,0.176,-0.011,-0.227
2025-11-06 18:32:56.186,49.705,0.0,-0.005,0.012,-0.296,-0.962,0.034,12.450000000000001,-5.72,-51.59,0.7581,-0.6201,-0.0821,-0.1841,0.17500000000000002,-0.014,-0.224
2025-11-06 18:32:56.186,49.71,0.005,-0.011,0.01,-0.296,-0.962,0.036000000000000004,12.450000000000001,-5.72,-51.59,0.7575000000000001,-0.6208,-0.08170000000000001,-0.1844,0.17400000000000002,-0.014,-0.224
2025-11-06 18:32:56.186,49.715,0.01,-0.013000000000000001,0.011,-0.297,-0.961,0.037,12.450000000000001,-5.72,-51.59,0.757,-0.6213000000000001,-0.0814,-0.18460000000000001,0.17400000000000002,-0.015,-0.224
2025-11-06 18:32:56.186,49.72,0.015,-0.014,0.011,-0.296,-0.961,0.036000000000000004,11.950000000000001,-5.72,-50.92,0.7567,-0.6218,-0.0811,-0.1847,0.17200000000000001,-0.015,-0.222
2025-11-06 18:32:56.186,49.725,0.021,-0.018000000000000002,0.012,-0.297,-0.961,0.036000000000000004,11.950000000000001,-5.72,-50.92,0.7563000000000001,-0.6222,-0.08080000000000001,-0.1849,0.17200000000000001,-0.015,-0.221
2025-11-06 18:32:56.186,49.73,0.028,-0.019,0.011,-0.296,-0.961,0.037,12.18,-5.67,-51.53,0.7559,-0.6226,-0.0805,-0.185,0.171,-0.016,-0.222
2025-11-06 18:32:56.186,49.735,0.029,-0.015,0.011,-0.295,-0.961,0.037,12.18,-5.67,-51.53,0.7556,-0.623,-0.08030000000000001,-0.18510000000000001,0.168,-0.016,-0.22
2025-11-06 18:32:56.186,49.74,0.032,-0.016,0.013000000000000001,-0.297,-0.962,0.035,12.18,-5.67,-51.53,0.7553000000000001,-0.6234000000000001,-0.0801,-0.1852,0.169,-0.015,-0.218
2025-11-06 18:32:56.186,49.745,0.035,-0.014,0.012,-0.296,-0.962,0.037,11.89,-5.75,-51.33,0.7549,-0.6239,-0.07980000000000001,-0.1854,0.168,-0.015,-0.218
2025-11-06 18:32:56.186,49.75,0.037,-0.015,0.012,-0.295,-0.962,0.033,11.89,-5.75,-51.33,0.7545000000000001,-0.6244000000000001,-0.0796,-0.1855,0.166,-0.015,-0.213
2025-11-06 18:32:56.186,49.755,0.041,-0.008,0.013000000000000001,-0.295,-0.966,0.033,12.94,-6.08,-50.92,0.754,-0.625,-0.0792,-0.1857,0.165,-0.012,-0.212
2025-11-06 18:32:56.186,49.76,0.043000000000000003,-0.008,0.013000000000000001,-0.296,-0.964,0.035,12.94,-6.08,-50.92,0.7535000000000001,-0.6255000000000001,-0.0789,-0.1859,0.166,-0.013000000000000001,-0.212
2025-11-06 18:32:56.186,49.765,0.05,-0.006,0.013000000000000001,-0.295,-0.965,0.036000000000000004,12.94,-6.08,-50.92,0.753,-0.6261,-0.0787,-0.18610000000000002,0.163,-0.013000000000000001,-0.212
2025-11-06 18:32:56.186,49.77,0.052000000000000005,-0.001,0.014,-0.294,-0.966,0.036000000000000004,12.01,-5.75,-51.0,0.7525000000000001,-0.6267,-0.0784,-0.18630000000000002,0.162,-0.012,-0.211
2025-11-06 18:32:56.186,49.775,0.05,-0.006,0.015,-0.294,-0.967,0.038,12.01,-5.75,-51.0,0.7521,-0.6272,-0.0781,-0.1864,0.161,-0.01,-0.211
2025-11-06 18:32:56.186,49.78,0.051000000000000004,0.001,0.016,-0.294,-0.967,0.041,12.01,-5.75,-51.0,0.7516,-0.6278,-0.07780000000000001,-0.18660000000000002,0.159,-0.011,-0.213
2025-11-06 18:32:56.186,49.785,0.053,0.007,0.017,-0.294,-0.97,0.043000000000000003,12.97,-6.22,-51.09,0.7512000000000001,-0.6282,-0.0776,-0.1867,0.159,-0.008,-0.214
2025-11-06 18:32:56.186,49.79,0.057,0.013000000000000001,0.018000000000000002,-0.294,-0.97,0.043000000000000003,12.97,-6.22,-51.09,0.7508,-0.6287,-0.07740000000000001,-0.1869,0.158,-0.008,-0.213
2025-11-06 18:32:56.186,49.795,0.061,0.015,0.018000000000000002,-0.292,-0.969,0.044,13.41,-6.0200000000000005,-51.15,0.7504000000000001,-0.6291,-0.07730000000000001,-0.187,0.156,-0.009000000000000001,-0.213
2025-11-06 18:32:56.186,49.8,0.064,0.009000000000000001,0.018000000000000002,-0.293,-0.97,0.045,13.41,-6.0200000000000005,-51.15,0.75,-0.6295000000000001,-0.0771,-0.18710000000000002,0.156,-0.009000000000000001,-0.212
2025-11-06 18:32:56.186,49.805,0.07200000000000001,0.013000000000000001,0.016,-0.294,-0.969,0.045,13.41,-6.0200000000000005,-51.15,0.7497,-0.63,-0.077,-0.1872,0.156,-0.01,-0.212
2025-11-06 18:32:56.186,49.81,0.076,0.013000000000000001,0.019,-0.292,-0.968,0.045,11.98,-5.5200000000000005,-50.89,0.7493000000000001,-0.6304000000000001,-0.07680000000000001,-0.18730000000000002,0.154,-0.011,-0.211
2025-11-06 18:32:56.186,49.815,0.081,0.013000000000000001,0.018000000000000002,-0.293,-0.964,0.047,11.98,-5.5200000000000005,-50.89,0.7489,-0.6309,-0.0767,-0.1874,0.154,-0.015,-0.212
2025-11-06 18:32:56.186,49.82,0.084,0.01,0.018000000000000002,-0.292,-0.962,0.045,11.28,-5.7,-50.83,0.7486,-0.6312,-0.0766,-0.1875,0.153,-0.017,-0.20800000000000002
2025-11-06 18:32:56.186,49.825,0.08700000000000001,0.011,0.017,-0.291,-0.9590000000000001,0.044,11.28,-5.7,-50.83,0.7483000000000001,-0.6315000000000001,-0.0765,-0.18760000000000002,0.151,-0.02,-0.20700000000000002
2025-11-06 18:32:56.186,49.83,0.088,0.004,0.017,-0.291,-0.9590000000000001,0.044,11.28,-5.7,-50.83,0.748,-0.6319,-0.0765,-0.1877,0.151,-0.02,-0.20600000000000002
2025-11-06 18:32:56.186,49.835,0.089,0.006,0.018000000000000002,-0.291,-0.9590000000000001,0.039,12.16,-6.05,-51.410000000000004,0.7477,-0.6322,-0.07640000000000001,-0.1877,0.15,-0.02,-0.201
2025-11-06 18:32:56.186,49.84,0.09,0.0,0.019,-0.28800000000000003,-0.9580000000000001,0.039,12.16,-6.05,-51.410000000000004,0.7475,-0.6325000000000001,-0.07640000000000001,-0.18780000000000002,0.148,-0.021,-0.199
2025-11-06 18:32:56.186,49.845,0.09,-0.006,0.018000000000000002,-0.28800000000000003,-0.9580000000000001,0.038,12.68,-6.0200000000000005,-51.06,0.7472000000000001,-0.6327,-0.0763,-0.18780000000000002,0.147,-0.022,-0.198
2025-11-06 18:32:56.186,49.85,0.093,-0.008,0.018000000000000002,-0.28700000000000003,-0.9590000000000001,0.038,12.68,-6.0200000000000005,-51.06,0.747,-0.633,-0.0762,-0.1879,0.146,-0.021,-0.197
2025-11-06 18:32:56.186,49.855,0.096,-0.011,0.019,-0.28700000000000003,-0.9590000000000001,0.04,12.68,-6.0200000000000005,-51.06,0.7467,-0.6333000000000001,-0.0762,-0.1879,0.145,-0.021,-0.198
2025-11-06 18:32:56.186,49.86,0.098,-0.012,0.019,-0.28700000000000003,-0.961,0.042,13.21,-6.1000000000000005,-50.95,0.7465,-0.6337,-0.0761,-0.1879,0.145,-0.019,-0.2
2025-11-06 18:32:56.186,49.865,0.101,-0.014,0.019,-0.28700000000000003,-0.9590000000000001,0.047,13.21,-6.1000000000000005,-50.95,0.7462000000000001,-0.634,-0.076,-0.1879,0.145,-0.02,-0.20400000000000001
2025-11-06 18:32:56.186,49.87,0.10300000000000001,-0.016,0.021,-0.28800000000000003,-0.9580000000000001,0.051000000000000004,12.1,-5.9,-51.18,0.7459,-0.6343,-0.07590000000000001,-0.188,0.145,-0.022,-0.20700000000000002
2025-11-06 18:32:56.186,49.875,0.105,-0.017,0.023,-0.28800000000000003,-0.9590000000000001,0.054,12.1,-5.9,-51.18,0.7456,-0.6347,-0.0758,-0.188,0.146,-0.021,-0.209
2025-11-06 18:32:56.186,49.88,0.105,-0.021,0.023,-0.289,-0.962,0.059000000000000004,12.1,-5.9,-51.18,0.7453000000000001,-0.6351,-0.0757,-0.188,0.146,-0.018000000000000002,-0.214
2025-11-06 18:32:56.186,49.885,0.10400000000000001,-0.017,0.023,-0.291,-0.962,0.062,11.78,-5.84,-50.68,0.745,-0.6355000000000001,-0.0756,-0.188,0.148,-0.018000000000000002,-0.215
2025-11-06 18:32:56.186,49.89,0.10400000000000001,-0.014,0.023,-0.294,-0.965,0.063,11.78,-5.84,-50.68,0.7446,-0.6359,-0.07540000000000001,-0.188,0.15,-0.015,-0.215
2025-11-06 18:32:56.186,49.895,0.098,-0.014,0.024,-0.296,-0.967,0.063,11.86,-5.58,-50.24,0.7442000000000001,-0.6364000000000001,-0.0753,-0.18810000000000002,0.151,-0.014,-0.214
2025-11-06 18:32:56.186,49.9,0.096,-0.016,0.023,-0.297,-0.969,0.062,11.86,-5.58,-50.24,0.7439,-0.6367,-0.0751,-0.18810000000000002,0.152,-0.011,-0.213
2025-11-06 18:32:56.187,49.905,0.093,-0.016,0.023,-0.299,-0.97,0.061,11.86,-5.58,-50.24,0.7436,-0.6371,-0.075,-0.1882,0.153,-0.01,-0.21
2025-11-06 18:32:56.187,49.91,0.095,-0.015,0.023,-0.297,-0.971,0.061,11.57,-5.72,-50.36,0.7433000000000001,-0.6375000000000001,-0.07490000000000001,-0.1882,0.151,-0.01,-0.209
2025-11-06 18:32:56.187,49.915,0.097,-0.009000000000000001,0.024,-0.299,-0.972,0.06,11.57,-5.72,-50.36,0.743,-0.6378,-0.0748,-0.1882,0.153,-0.009000000000000001,-0.20700000000000002
2025-11-06 18:32:56.187,49.92,0.098,-0.007,0.024,-0.299,-0.973,0.06,12.24,-5.87,-50.57,0.7427,-0.6381,-0.0747,-0.1883,0.152,-0.008,-0.20600000000000002
2025-11-06 18:32:56.187,49.925,0.10400000000000001,-0.002,0.024,-0.298,-0.973,0.056,12.24,-5.87,-50.57,0.7424000000000001,-0.6384000000000001,-0.0746,-0.1883,0.151,-0.008,-0.202
2025-11-06 18:32:56.188,49.93,0.106,0.0,0.022,-0.298,-0.972,0.056,12.24,-5.87,-50.57,0.7421,-0.6388,-0.0746,-0.1884,0.15,-0.009000000000000001,-0.201
2025-11-06 18:32:56.188,49.935,0.101,0.002,0.021,-0.298,-0.973,0.054,11.72,-5.37,-50.24,0.7418,-0.6391,-0.0745,-0.1885,0.15,-0.008,-0.198
2025-11-06 18:32:56.188,49.94,0.10400000000000001,0.004,0.023,-0.297,-0.974,0.053,11.72,-5.37,-50.24,0.7416,-0.6394000000000001,-0.0745,-0.1885,0.149,-0.007,-0.197
2025-11-06 18:32:56.188,49.945,0.10400000000000001,0.01,0.022,-0.298,-0.974,0.05,12.18,-5.8100000000000005,-50.19,0.7413000000000001,-0.6397,-0.07440000000000001,-0.18860000000000002,0.15,-0.008,-0.193
2025-11-06 18:32:56.188,49.95,0.106,0.01,0.019,-0.298,-0.974,0.05,12.18,-5.8100000000000005,-50.19,0.741,-0.64,-0.07440000000000001,-0.1887,0.149,-0.008,-0.192
2025-11-06 18:32:56.188,49.955,0.10300000000000001,0.009000000000000001,0.02,-0.297,-0.974,0.049,12.18,-5.8100000000000005,-50.19,0.7407,-0.6403,-0.07440000000000001,-0.1887,0.148,-0.008,-0.19
2025-11-06 18:32:56.188,49.96,0.10400000000000001,0.007,0.019,-0.297,-0.973,0.051000000000000004,12.07,-6.08,-50.59,0.7404000000000001,-0.6406000000000001,-0.0743,-0.1888,0.148,-0.008,-0.191
2025-11-06 18:32:56.188,49.965,0.10400000000000001,0.005,0.018000000000000002,-0.297,-0.971,0.05,12.07,-6.08,-50.59,0.7401,-0.641,-0.0743,-0.1889,0.148,-0.011,-0.19
2025-11-06 18:32:56.188,49.97,0.106,0.004,0.015,-0.297,-0.971,0.052000000000000005,11.950000000000001,-5.96,-50.160000000000004,0.7398,-0.6414000000000001,-0.0742,-0.189,0.147,-0.011,-0.19
2025-11-06 18:32:56.188,49.975,0.10400000000000001,0.002,0.015,-0.295,-0.97,0.052000000000000005,11.950000000000001,-5.96,-50.160000000000004,0.7394000000000001,-0.6417,-0.0741,-0.189,0.145,-0.012,-0.19
2025-11-06 18:32:56.188,49.98,0.106,0.001,0.012,-0.295,-0.967,0.052000000000000005,11.950000000000001,-5.96,-50.160000000000004,0.739,-0.6422,-0.07400000000000001,-0.18910000000000002,0.14400000000000002,-0.015,-0.188
2025-11-06 18:32:56.188,49.985,0.101,0.002,0.013000000000000001,-0.293,-0.966,0.054,11.83,-6.25,-50.51,0.7386,-0.6426000000000001,-0.07390000000000001,-0.1892,0.14200000000000002,-0.016,-0.189
2025-11-06 18:32:56.188,49.99,0.098,0.0,0.011,-0.292,-0.966,0.055,11.83,-6.25,-50.51,0.7382000000000001,-0.6431,-0.0738,-0.1893,0.14,-0.016,-0.19
2025-11-06 18:32:56.188,49.995,0.09,-0.004,0.011,-0.289,-0.966,0.057,12.36,-5.99,-49.660000000000004,0.7378,-0.6435000000000001,-0.0736,-0.1894,0.137,-0.016,-0.191
2025-11-06 18:32:56.188,50.0,0.083,-0.001,0.01,-0.28800000000000003,-0.968,0.06,12.36,-5.99,-49.660000000000004,0.7374,-0.644,-0.07350000000000001,-0.1894,0.135,-0.015,-0.192
2025-11-06 18:32:56.188,50.005,0.078,-0.002,0.008,-0.28600000000000003,-0.969,0.064,12.36,-5.99,-49.660000000000004,0.737,-0.6445000000000001,-0.0733,-0.1895,0.133,-0.014,-0.195
2025-11-06 18:32:56.188,50.01,0.073,0.0,0.01,-0.28700000000000003,-0.971,0.064,12.540000000000001,-6.13,-49.92,0.7366,-0.6449,-0.0731,-0.1895,0.133,-0.012,-0.194
2025-11-06 18:32:56.188,50.015,0.068,0.003,0.007,-0.28700000000000003,-0.975,0.062,12.540000000000001,-6.13,-49.92,0.7364,-0.6452,-0.0731,-0.1895,0.133,-0.008,-0.19
2025-11-06 18:32:56.188,50.02,0.062,0.001,0.007,-0.28700000000000003,-0.973,0.055,12.540000000000001,-6.13,-49.92,0.7361000000000001,-0.6456000000000001,-0.07300000000000001,-0.18960000000000002,0.132,-0.01,-0.183
2025-11-06 18:32:56.188,50.025,0.059000000000000004,0.0,0.006,-0.28800000000000003,-0.975,0.05,11.66,-5.49,-49.54,0.7358,-0.6458,-0.0729,-0.1897,0.133,-0.008,-0.178
2025-11-06 18:32:56.188,50.03,0.057,-0.004,0.006,-0.289,-0.977,0.048,11.66,-5.49,-49.54,0.7356,-0.6461,-0.0728,-0.1897,0.134,-0.007,-0.17400000000000002
2025-11-06 18:32:56.189,50.035,0.054,-0.005,0.006,-0.29,-0.977,0.047,11.89,-5.43,-50.07,0.7354,-0.6463,-0.0727,-0.1897,0.134,-0.006,-0.17300000000000001
2025-11-06 18:32:56.189,50.04,0.054,-0.007,0.004,-0.292,-0.979,0.045,11.89,-5.43,-50.07,0.7353000000000001,-0.6465000000000001,-0.0727,-0.1897,0.136,-0.005,-0.17
2025-11-06 18:32:56.189,50.045,0.053,-0.011,0.004,-0.294,-0.98,0.045,11.89,-5.43,-50.07,0.7351000000000001,-0.6467,-0.0726,-0.1898,0.138,-0.004,-0.17
2025-11-06 18:32:56.189,50.05,0.056,-0.004,0.005,-0.295,-0.982,0.044,12.040000000000001,-5.78,-50.13,0.735,-0.6468,-0.0726,-0.1898,0.139,-0.001,-0.168
2025-11-06 18:32:56.189,50.055,0.056,-0.002,0.006,-0.296,-0.98,0.042,12.040000000000001,-5.78,-50.13,0.7348,-0.647,-0.0726,-0.1898,0.14,-0.004,-0.166
2025-11-06 18:32:56.189,50.06,0.057,0.002,0.005,-0.295,-0.979,0.041,11.8,-5.72,-50.24,0.7346,-0.6472,-0.0726,-0.1898,0.138,-0.005,-0.165
2025-11-06 18:32:56.189,50.065,0.057,0.004,0.004,-0.296,-0.977,0.039,11.8,-5.72,-50.24,0.7345,-0.6474000000000001,-0.0726,-0.1899,0.139,-0.007,-0.163
2025-11-06 18:32:56.189,50.07,0.054,0.004,0.001,-0.295,-0.973,0.039,11.8,-5.72,-50.24,0.7342000000000001,-0.6476000000000001,-0.07250000000000001,-0.19,0.138,-0.01,-0.161
2025-11-06 18:32:56.189,50.075,0.054,0.008,0.0,-0.294,-0.968,0.036000000000000004,12.24,-6.05,-50.1,0.7338,-0.6481,-0.0723,-0.1902,0.136,-0.016,-0.158
2025-11-06 18:32:56.189,50.08,0.046,0.009000000000000001,0.0,-0.295,-0.965,0.035,12.24,-6.05,-50.1,0.7333000000000001,-0.6485000000000001,-0.0721,-0.1905,0.136,-0.019,-0.156
2025-11-06 18:32:56.189,50.085,0.043000000000000003,0.005,-0.002,-0.295,-0.963,0.034,11.69,-5.49,-50.04,0.7329,-0.6489,-0.0719,-0.1908,0.136,-0.021,-0.154
2025-11-06 18:32:56.189,50.09,0.039,0.002,-0.002,-0.296,-0.963,0.034,11.69,-5.49,-50.04,0.7325,-0.6493,-0.0717,-0.191,0.136,-0.022,-0.153
2025-11-06 18:32:56.189,50.095,0.036000000000000004,-0.006,-0.003,-0.296,-0.961,0.034,11.69,-5.49,-50.04,0.7322000000000001,-0.6496000000000001,-0.0716,-0.1912,0.135,-0.023,-0.152
2025-11-06 18:32:56.189,50.1,0.031,-0.015,-0.002,-0.294,-0.9590000000000001,0.034,12.13,-6.05,-50.21,0.732,-0.6499,-0.07150000000000001,-0.1913,0.133,-0.025,-0.152
2025-11-06 18:32:56.189,50.105,0.03,-0.02,-0.002,-0.295,-0.9580000000000001,0.035,12.13,-6.05,-50.21,0.7318,-0.6501,-0.0713,-0.19140000000000001,0.134,-0.026000000000000002,-0.152
2025-11-06 18:32:56.189,50.11,0.028,-0.024,-0.001,-0.294,-0.9580000000000001,0.036000000000000004,13.120000000000001,-5.87,-50.01,0.7316,-0.6502,-0.0712,-0.19140000000000001,0.132,-0.026000000000000002,-0.152
2025-11-06 18:32:56.189,50.115,0.027,-0.03,0.0,-0.294,-0.9580000000000001,0.037,13.120000000000001,-5.87,-50.01,0.7315,-0.6504,-0.0711,-0.19140000000000001,0.132,-0.026000000000000002,-0.153
2025-11-06 18:32:56.189,50.12,0.03,-0.032,0.001,-0.293,-0.96,0.037,13.120000000000001,-5.87,-50.01,0.7313000000000001,-0.6507000000000001,-0.07100000000000001,-0.1915,0.131,-0.024,-0.152
2025-11-06 18:32:56.189,50.125,0.032,-0.028,0.002,-0.294,-0.96,0.037,11.92,-6.0200000000000005,-50.300000000000004,0.7311000000000001,-0.6509,-0.0708,-0.19160000000000002,0.13,-0.024,-0.152
2025-11-06 18:32:56.189,50.13,0.031,-0.029,0.004,-0.291,-0.962,0.039,11.92,-6.0200000000000005,-50.300000000000004,0.7308,-0.6512,-0.07060000000000001,-0.19160000000000002,0.128,-0.022,-0.154
2025-11-06 18:32:56.189,50.135,0.031,-0.027,0.005,-0.292,-0.964,0.044,11.72,-5.67,-49.83,0.7305,-0.6515000000000001,-0.0704,-0.1918,0.128,-0.02,-0.157
2025-11-06 18:32:56.189,50.14,0.027,-0.023,0.005,-0.292,-0.965,0.049,11.72,-5.67,-49.83,0.7301000000000001,-0.652,-0.07010000000000001,-0.19190000000000002,0.127,-0.02,-0.161
2025-11-06 18:32:56.189,50.145,0.023,-0.012,0.003,-0.291,-0.968,0.05,11.72,-5.67,-49.83,0.7295,-0.6526000000000001,-0.0698,-0.19210000000000002,0.125,-0.016,-0.161
2025-11-06 18:32:56.189,50.15,0.026000000000000002,-0.014,0.003,-0.29,-0.969,0.05,12.450000000000001,-5.78,-49.86,0.7291000000000001,-0.6531,-0.0695,-0.1923,0.123,-0.015,-0.16
2025-11-06 18:32:56.189,50.155,0.029,-0.012,0.002,-0.291,-0.971,0.047,12.450000000000001,-5.78,-49.86,0.7287,-0.6534,-0.0693,-0.19240000000000002,0.123,-0.013000000000000001,-0.156
2025-11-06 18:32:56.189,50.16,0.029,-0.019,0.001,-0.289,-0.973,0.046,12.18,-6.3100000000000005,-50.07,0.7285,-0.6537000000000001,-0.06910000000000001,-0.19240000000000002,0.121,-0.011,-0.154
2025-11-06 18:32:56.189,50.165,0.033,-0.016,0.002,-0.28800000000000003,-0.975,0.044,12.18,-6.3100000000000005,-50.07,0.7283000000000001,-0.6539,-0.069,-0.1925,0.11900000000000001,-0.009000000000000001,-0.151
2025-11-06 18:32:56.189,50.17,0.034,-0.019,0.002,-0.28700000000000003,-0.977,0.041,12.18,-6.3100000000000005,-50.07,0.7281000000000001,-0.6541,-0.0689,-0.1925,0.11800000000000001,-0.007,-0.148
2025-11-06 18:32:56.189,50.175,0.038,-0.019,0.004,-0.28700000000000003,-0.979,0.043000000000000003,12.01,-5.61,-49.31,0.728,-0.6543,-0.0688,-0.1925,0.11900000000000001,-0.005,-0.149
2025-11-06 18:32:56.190,50.18,0.043000000000000003,-0.019,0.005,-0.289,-0.981,0.045,12.01,-5.61,-49.31,0.7279,-0.6544,-0.0688,-0.1925,0.12,-0.003,-0.151
2025-11-06 18:32:56.190,50.185,0.044,-0.022,0.006,-0.289,-0.981,0.047,12.68,-6.08,-49.480000000000004,0.7277,-0.6546000000000001,-0.0687,-0.1925,0.12,-0.004,-0.152
2025-11-06 18:32:56.190,50.19,0.051000000000000004,-0.02,0.008,-0.29,-0.981,0.05,12.68,-6.08,-49.480000000000004,0.7276,-0.6547000000000001,-0.0687,-0.1925,0.121,-0.004,-0.155
2025-11-06 18:32:56.190,50.195,0.052000000000000005,-0.021,0.009000000000000001,-0.29,-0.981,0.053,12.68,-6.08,-49.480000000000004,0.7274,-0.6549,-0.06860000000000001,-0.1925,0.121,-0.004,-0.158
2025-11-06 18:32:56.190,50.2,0.052000000000000005,-0.013000000000000001,0.009000000000000001,-0.291,-0.981,0.055,11.66,-5.9,-48.99,0.7273000000000001,-0.6551,-0.06860000000000001,-0.1925,0.122,-0.003,-0.159
2025-11-06 18:32:56.190,50.205,0.053,-0.006,0.008,-0.293,-0.981,0.054,11.66,-5.9,-48.99,0.7272000000000001,-0.6552,-0.0685,-0.1925,0.123,-0.004,-0.157
2025-11-06 18:32:56.190,50.21,0.05,-0.007,0.009000000000000001,-0.293,-0.979,0.052000000000000005,11.92,-5.61,-48.64,0.727,-0.6554,-0.0685,-0.1925,0.123,-0.005,-0.156
2025-11-06 18:32:56.190,50.215,0.047,-0.006,0.009000000000000001,-0.294,-0.978,0.051000000000000004,11.92,-5.61,-48.64,0.7269,-0.6556000000000001,-0.0684,-0.1925,0.123,-0.007,-0.155
2025-11-06 18:32:56.190,50.22,0.043000000000000003,-0.01,0.01,-0.294,-0.978,0.05,11.92,-5.61,-48.64,0.7267,-0.6557000000000001,-0.0684,-0.19260000000000002,0.124,-0.007,-0.153
2025-11-06 18:32:56.190,50.225,0.039,-0.014,0.009000000000000001,-0.293,-0.976,0.049,12.18,-5.7,-49.31,0.7266,-0.6559,-0.0683,-0.19260000000000002,0.123,-0.009000000000000001,-0.151
2025-11-06 18:32:56.190,50.23,0.035,-0.02,0.009000000000000001,-0.292,-0.973,0.05,12.18,-5.7,-49.31,0.7263000000000001,-0.6561,-0.06810000000000001,-0.19260000000000002,0.121,-0.012,-0.152
2025-11-06 18:32:56.190,50.235,0.031,-0.022,0.007,-0.291,-0.971,0.052000000000000005,11.92,-5.8100000000000005,-49.31,0.7260000000000001,-0.6565000000000001,-0.0679,-0.1927,0.12,-0.013000000000000001,-0.153
2025-11-06 18:32:56.190,50.24,0.031,-0.021,0.01,-0.29,-0.966,0.052000000000000005,11.92,-5.8100000000000005,-49.31,0.7257,-0.6569,-0.06770000000000001,-0.1928,0.11800000000000001,-0.018000000000000002,-0.153
2025-11-06 18:32:56.190,50.245,0.031,-0.025,0.012,-0.289,-0.966,0.054,11.92,-5.8100000000000005,-49.31,0.7253000000000001,-0.6573,-0.0674,-0.19290000000000002,0.116,-0.019,-0.154
2025-11-06 18:32:56.190,50.25,0.029,-0.024,0.014,-0.29,-0.965,0.056,11.540000000000001,-5.5200000000000005,-49.370000000000005,0.7250000000000001,-0.6576000000000001,-0.06720000000000001,-0.193,0.117,-0.02,-0.154
2025-11-06 18:32:56.190,50.255,0.028,-0.027,0.012,-0.292,-0.963,0.058,11.540000000000001,-5.5200000000000005,-49.370000000000005,0.7247,-0.658,-0.067,-0.19310000000000002,0.117,-0.021,-0.156
2025-11-06 18:32:56.190,50.26,0.021,-0.034,0.013000000000000001,-0.291,-0.965,0.06,11.540000000000001,-5.5200000000000005,-49.370000000000005,0.7243,-0.6583,-0.06670000000000001,-0.1932,0.116,-0.02,-0.157
2025-11-06 18:32:56.190,50.265,0.013000000000000001,-0.033,0.01,-0.293,-0.965,0.062,12.01,-5.46,-49.75,0.7239,-0.6588,-0.0664,-0.1933,0.11800000000000001,-0.019,-0.157
2025-11-06 18:32:56.190,50.27,0.012,-0.033,0.01,-0.295,-0.965,0.063,12.01,-5.46,-49.75,0.7235,-0.6592,-0.0661,-0.19340000000000002,0.11800000000000001,-0.019,-0.158
2025-11-06 18:32:56.190,50.275,0.009000000000000001,-0.035,0.011,-0.296,-0.967,0.064,12.68,-5.49,-49.370000000000005,0.7232000000000001,-0.6596000000000001,-0.06570000000000001,-0.1935,0.11900000000000001,-0.017,-0.157
2025-11-06 18:32:56.190,50.28,0.005,-0.038,0.008,-0.298,-0.967,0.065,12.68,-5.49,-49.370000000000005,0.7228,-0.66,-0.0655,-0.19360000000000002,0.12,-0.018000000000000002,-0.157
2025-11-06 18:32:56.190,50.285,0.0,-0.044,0.006,-0.299,-0.969,0.064,12.68,-5.49,-49.370000000000005,0.7226,-0.6602,-0.06520000000000001,-0.19360000000000002,0.121,-0.015,-0.156
2025-11-06 18:32:56.190,50.29,-0.001,-0.046,0.005,-0.3,-0.97,0.065,11.89,-5.58,-49.42,0.7224,-0.6604,-0.065,-0.19360000000000002,0.121,-0.015,-0.157
2025-11-06 18:32:56.190,50.295,-0.002,-0.042,0.007,-0.301,-0.972,0.065,11.89,-5.58,-49.42,0.7223,-0.6606000000000001,-0.0649,-0.19360000000000002,0.121,-0.012,-0.156
2025-11-06 18:32:56.192,50.3,-0.002,-0.041,0.004,-0.301,-0.971,0.065,11.72,-5.43,-49.660000000000004,0.7222000000000001,-0.6607000000000001,-0.06470000000000001,-0.19360000000000002,0.122,-0.013000000000000001,-0.155
2025-11-06 18:32:56.192,50.305,-0.001,-0.038,0.005,-0.302,-0.973,0.067,11.72,-5.43,-49.660000000000004,0.7221000000000001,-0.6609,-0.0645,-0.19360000000000002,0.122,-0.012,-0.157
2025-11-06 18:32:56.192,50.31,-0.004,-0.033,0.004,-0.302,-0.973,0.068,11.72,-5.43,-49.660000000000004,0.7220000000000001,-0.661,-0.0644,-0.19360000000000002,0.121,-0.011,-0.158
2025-11-06 18:32:56.192,50.315,-0.011,-0.035,0.006,-0.302,-0.973,0.067,12.42,-5.29,-49.31,0.7219,-0.6611,-0.06430000000000001,-0.19360000000000002,0.121,-0.012,-0.157
2025-11-06 18:32:56.192,50.32,-0.013000000000000001,-0.032,0.006,-0.301,-0.971,0.067,12.42,-5.29,-49.31,0.7218,-0.6612,-0.0641,-0.19360000000000002,0.12,-0.014,-0.157
2025-11-06 18:32:56.192,50.325,-0.015,-0.028,0.005,-0.3,-0.969,0.066,12.040000000000001,-5.4,-49.34,0.7216,-0.6614,-0.0639,-0.1937,0.11900000000000001,-0.016,-0.155
2025-11-06 18:32:56.192,50.33,-0.015,-0.025,0.006,-0.303,-0.968,0.064,12.040000000000001,-5.4,-49.34,0.7214,-0.6617000000000001,-0.0637,-0.1938,0.121,-0.017,-0.153
2025-11-06 18:32:56.192,50.335,-0.018000000000000002,-0.024,0.002,-0.302,-0.967,0.063,12.040000000000001,-5.4,-49.34,0.7212000000000001,-0.6619,-0.0634,-0.19390000000000002,0.12,-0.017,-0.151
2025-11-06 18:32:56.192,50.34,-0.022,-0.023,0.003,-0.304,-0.968,0.061,12.040000000000001,-5.29,-49.19,0.7210000000000001,-0.6621,-0.0632,-0.194,0.121,-0.016,-0.148
2025-11-06 18:32:56.192,50.345,-0.024,-0.024,0.004,-0.303,-0.97,0.062,12.040000000000001,-5.29,-49.19,0.7209,-0.6622,-0.0631,-0.194,0.12,-0.015,-0.149
2025-11-06 18:32:56.192,50.35,-0.031,-0.021,0.005,-0.303,-0.968,0.061,11.83,-6.0200000000000005,-49.51,0.7208,-0.6624,-0.0629,-0.19410000000000002,0.12,-0.016,-0.148
2025-11-06 18:32:56.192,50.355,-0.037,-0.019,0.005,-0.304,-0.969,0.061,11.83,-6.0200000000000005,-49.51,0.7207,-0.6625,-0.0627,-0.1942,0.12,-0.015,-0.148
2025-11-06 18:32:56.192,50.36,-0.042,-0.015,0.005,-0.302,-0.967,0.061,11.83,-6.0200000000000005,-49.51,0.7205,-0.6626000000000001,-0.0625,-0.1943,0.11800000000000001,-0.017,-0.148
2025-11-06 18:32:56.192,50.365,-0.046,-0.008,0.005,-0.303,-0.967,0.061,11.72,-6.57,-49.370000000000005,0.7203,-0.6628000000000001,-0.0623,-0.19440000000000002,0.11800000000000001,-0.017,-0.147
2025-11-06 18:32:56.192,50.37,-0.048,0.0,0.003,-0.3,-0.964,0.061,11.72,-6.57,-49.370000000000005,0.7200000000000001,-0.6631,-0.062,-0.19460000000000002,0.114,-0.02,-0.146
2025-11-06 18:32:56.192,50.375,-0.049,0.007,0.004,-0.301,-0.964,0.059000000000000004,12.97,-5.75,-49.51,0.7198,-0.6633,-0.0618,-0.1948,0.114,-0.02,-0.14400000000000002
2025-11-06 18:32:56.192,50.38,-0.05,0.008,0.002,-0.3,-0.965,0.057,12.97,-5.75,-49.51,0.7196,-0.6635,-0.0616,-0.195,0.113,-0.019,-0.14200000000000002
2025-11-06 18:32:56.192,50.385,-0.05,0.012,0.002,-0.3,-0.964,0.056,12.97,-5.75,-49.51,0.7193,-0.6637000000000001,-0.0614,-0.1952,0.112,-0.02,-0.14
2025-11-06 18:32:56.192,50.39,-0.054,0.01,0.001,-0.299,-0.964,0.054,11.86,-5.99,-50.1,0.7191000000000001,-0.6639,-0.061200000000000004,-0.19540000000000002,0.11,-0.02,-0.137
2025-11-06 18:32:56.192,50.395,-0.055,0.011,-0.001,-0.298,-0.965,0.052000000000000005,11.86,-5.99,-50.1,0.7190000000000001,-0.6641,-0.061000000000000006,-0.1955,0.109,-0.019,-0.135
2025-11-06 18:32:56.192,50.4,-0.056,0.013000000000000001,0.0,-0.298,-0.965,0.052000000000000005,12.36,-5.75,-49.54,0.7188,-0.6642,-0.0608,-0.1957,0.108,-0.019,-0.135
2025-11-06 18:32:56.192,50.405,-0.058,0.007,0.001,-0.296,-0.965,0.052000000000000005,12.36,-5.75,-49.54,0.7186,-0.6644,-0.0606,-0.19590000000000002,0.105,-0.019,-0.134
2025-11-06 18:32:56.192,50.41,-0.056,0.004,0.0,-0.293,-0.966,0.053,12.36,-5.75,-49.54,0.7184,-0.6646000000000001,-0.0604,-0.196,0.10200000000000001,-0.018000000000000002,-0.135
2025-11-06 18:32:56.192,50.415,-0.055,0.0,0.002,-0.292,-0.966,0.056,12.86,-6.05,-49.370000000000005,0.7182000000000001,-0.6648000000000001,-0.060200000000000004,-0.1961,0.1,-0.017,-0.137
2025-11-06 18:32:56.192,50.42,-0.056,-0.003,0.001,-0.293,-0.968,0.056,12.86,-6.05,-49.370000000000005,0.7180000000000001,-0.665,-0.060000000000000005,-0.1962,0.101,-0.016,-0.137
2025-11-06 18:32:56.192,50.425,-0.051000000000000004,-0.001,0.002,-0.292,-0.968,0.057,11.78,-5.46,-49.89,0.7178,-0.6652,-0.0597,-0.1963,0.1,-0.015,-0.137
2025-11-06 18:32:56.193,50.43,-0.045,-0.003,0.003,-0.292,-0.969,0.057,11.78,-5.46,-49.89,0.7176,-0.6654,-0.059500000000000004,-0.19640000000000002,0.099,-0.014,-0.137
2025-11-06 18:32:56.193,50.435,-0.041,0.0,0.007,-0.293,-0.968,0.057,11.78,-5.46,-49.89,0.7174,-0.6656000000000001,-0.059300000000000005,-0.1965,0.1,-0.015,-0.137
2025-11-06 18:32:56.193,50.44,-0.037,0.001,0.006,-0.294,-0.967,0.056,12.07,-6.13,-49.63,0.7171000000000001,-0.6659,-0.0591,-0.1967,0.1,-0.016,-0.135
2025-11-06 18:32:56.193,50.445,-0.033,0.0,0.006,-0.294,-0.968,0.056,12.07,-6.13,-49.63,0.7168,-0.6662,-0.058800000000000005,-0.1968,0.099,-0.015,-0.134
2025-11-06 18:32:56.193,50.45,-0.032,0.0,0.005,-0.298,-0.966,0.057,11.63,-5.7,-50.300000000000004,0.7164,-0.6666000000000001,-0.0585,-0.197,0.10200000000000001,-0.017,-0.133
2025-11-06 18:32:56.193,50.455,-0.032,0.002,0.005,-0.298,-0.966,0.056,11.63,-5.7,-50.300000000000004,0.7161000000000001,-0.6669,-0.0582,-0.19720000000000001,0.101,-0.017,-0.132
2025-11-06 18:32:56.193,50.46,-0.03,0.002,0.005,-0.3,-0.967,0.054,11.63,-5.7,-50.300000000000004,0.7158,-0.6672,-0.058,-0.19740000000000002,0.10200000000000001,-0.016,-0.13
2025-11-06 18:32:56.193,50.465,-0.028,0.005,0.006,-0.3,-0.968,0.054,11.72,-5.7,-50.24,0.7156,-0.6674,-0.057800000000000004,-0.1976,0.101,-0.015,-0.129
2025-11-06 18:32:56.193,50.47,-0.03,0.011,0.005,-0.299,-0.966,0.054,11.72,-5.7,-50.24,0.7153,-0.6677000000000001,-0.057600000000000005,-0.1978,0.1,-0.017,-0.128
2025-11-06 18:32:56.193,50.475,-0.033,0.007,0.006,-0.3,-0.967,0.054,12.16,-5.96,-50.07,0.7150000000000001,-0.6679,-0.0574,-0.19790000000000002,0.1,-0.016,-0.128
2025-11-06 18:32:56.193,50.48,-0.037,0.01,0.004,-0.298,-0.967,0.054,12.16,-5.96,-50.07,0.7148,-0.6681,-0.0572,-0.1981,0.098,-0.016,-0.127
2025-11-06 18:32:56.193,50.485,-0.041,0.01,0.007,-0.297,-0.966,0.054,12.16,-5.96,-50.07,0.7146,-0.6683,-0.057,-0.19820000000000002,0.097,-0.017,-0.127
2025-11-06 18:32:56.193,50.49,-0.042,0.009000000000000001,0.007,-0.297,-0.965,0.053,11.950000000000001,-5.5200000000000005,-51.18,0.7144,-0.6685,-0.0568,-0.19840000000000002,0.096,-0.018000000000000002,-0.126
2025-11-06 18:32:56.193,50.495,-0.045,0.009000000000000001,0.006,-0.297,-0.963,0.054,11.950000000000001,-5.5200000000000005,-51.18,0.7142000000000001,-0.6687000000000001,-0.056600000000000004,-0.1985,0.095,-0.02,-0.126
2025-11-06 18:32:56.193,50.5,-0.045,0.011,0.008,-0.298,-0.961,0.056,11.950000000000001,-5.5200000000000005,-51.18,0.7141000000000001,-0.6688000000000001,-0.0565,-0.19870000000000002,0.096,-0.022,-0.127
2025-11-06 18:32:56.193,50.505,-0.049,0.007,0.008,-0.297,-0.962,0.056,11.6,-5.46,-50.620000000000005,0.7140000000000001,-0.6689,-0.0563,-0.1988,0.094,-0.02,-0.127
2025-11-06 18:32:56.193,50.51,-0.049,0.01,0.007,-0.298,-0.962,0.056,11.6,-5.46,-50.620000000000005,0.7138,-0.669,-0.056100000000000004,-0.19890000000000002,0.094,-0.02,-0.127
2025-11-06 18:32:56.193,50.515,-0.051000000000000004,0.01,0.008,-0.297,-0.964,0.056,12.01,-5.2,-50.42,0.7137,-0.6692,-0.056,-0.199,0.094,-0.019,-0.127
2025-11-06 18:32:56.193,50.52,-0.049,0.009000000000000001,0.007,-0.297,-0.966,0.056,12.01,-5.2,-50.42,0.7135,-0.6693,-0.0558,-0.19920000000000002,0.093,-0.017,-0.126
2025-11-06 18:32:56.193,50.525,-0.055,0.013000000000000001,0.009000000000000001,-0.297,-0.968,0.054,12.01,-5.2,-50.42,0.7134,-0.6694,-0.0557,-0.1993,0.092,-0.014,-0.124
2025-11-06 18:32:56.193,50.53,-0.055,0.014,0.01,-0.296,-0.969,0.054,11.75,-6.28,-50.07,0.7133,-0.6694,-0.0555,-0.19940000000000002,0.091,-0.014,-0.124
2025-11-06 18:32:56.193,50.535,-0.055,0.013000000000000001,0.009000000000000001,-0.297,-0.97,0.056,11.75,-6.28,-50.07,0.7133,-0.6695,-0.055400000000000005,-0.1995,0.091,-0.012,-0.126
2025-11-06 18:32:56.193,50.54,-0.056,0.004,0.007,-0.296,-0.97,0.057,11.66,-5.37,-50.24,0.7132000000000001,-0.6695,-0.0553,-0.1995,0.091,-0.012,-0.126
2025-11-06 18:32:56.193,50.545,-0.056,0.001,0.007,-0.295,-0.971,0.057,11.66,-5.37,-50.24,0.7132000000000001,-0.6696000000000001,-0.055200000000000006,-0.1996,0.089,-0.011,-0.127
2025-11-06 18:32:56.193,50.55,-0.054,0.001,0.003,-0.295,-0.971,0.059000000000000004,11.66,-5.37,-50.24,0.7131000000000001,-0.6696000000000001,-0.055,-0.19970000000000002,0.089,-0.011,-0.129
2025-11-06 18:32:56.193,50.555,-0.052000000000000005,0.0,0.003,-0.295,-0.97,0.061,11.66,-5.5200000000000005,-50.57,0.7131000000000001,-0.6697000000000001,-0.054900000000000004,-0.19970000000000002,0.088,-0.011,-0.13
2025-11-06 18:32:56.193,50.56,-0.052000000000000005,0.001,0.0,-0.295,-0.97,0.062,11.66,-5.5200000000000005,-50.57,0.7130000000000001,-0.6698000000000001,-0.0548,-0.19970000000000002,0.088,-0.012,-0.131
2025-11-06 18:32:56.193,50.565,-0.053,-0.003,-0.003,-0.295,-0.968,0.064,11.72,-6.05,-50.39,0.7128,-0.6699,-0.0546,-0.1998,0.088,-0.014,-0.132
2025-11-06 18:32:56.193,50.57,-0.052000000000000005,0.0,-0.003,-0.295,-0.964,0.064,11.72,-6.05,-50.39,0.7126,-0.6701,-0.054400000000000004,-0.1998,0.08700000000000001,-0.018000000000000002,-0.132
2025-11-06 18:32:56.193,50.575,-0.058,-0.007,-0.005,-0.292,-0.963,0.064,11.72,-6.05,-50.39,0.7126,-0.6702,-0.054200000000000005,-0.1998,0.084,-0.019,-0.132
2025-11-06 18:32:56.193,50.58,-0.062,-0.004,-0.005,-0.293,-0.961,0.064,11.69,-6.0200000000000005,-50.39,0.7125,-0.6703,-0.0541,-0.19990000000000002,0.085,-0.02,-0.132
2025-11-06 18:32:56.193,50.585,-0.063,-0.006,-0.008,-0.293,-0.963,0.063,11.69,-6.0200000000000005,-50.39,0.7124,-0.6704,-0.0539,-0.19990000000000002,0.085,-0.019,-0.131
2025-11-06 18:32:56.193,50.59,-0.062,-0.006,-0.006,-0.294,-0.962,0.06,12.01,-6.51,-50.36,0.7124,-0.6704,-0.0538,-0.19990000000000002,0.085,-0.02,-0.128
2025-11-06 18:32:56.193,50.595,-0.06,-0.006,-0.006,-0.294,-0.964,0.058,12.01,-6.51,-50.36,0.7123,-0.6705,-0.0536,-0.19990000000000002,0.085,-0.018000000000000002,-0.125
2025-11-06 18:32:56.194,50.6,-0.057,-0.005,-0.004,-0.293,-0.965,0.056,12.01,-6.51,-50.36,0.7122,-0.6707000000000001,-0.053500000000000006,-0.2,0.084,-0.017,-0.123
2025-11-06 18:32:56.194,50.605,-0.056,-0.004,-0.002,-0.293,-0.968,0.054,11.13,-5.87,-51.15,0.7121000000000001,-0.6708000000000001,-0.0533,-0.2,0.084,-0.014,-0.12
2025-11-06 18:32:56.194,50.61,-0.052000000000000005,-0.005,0.0,-0.298,-0.972,0.053,11.13,-5.87,-51.15,0.7120000000000001,-0.6708000000000001,-0.053200000000000004,-0.2001,0.088,-0.01,-0.11900000000000001
2025-11-06 18:32:56.194,50.615,-0.051000000000000004,-0.006,0.003,-0.299,-0.973,0.052000000000000005,11.16,-5.78,-51.03,0.7120000000000001,-0.6708000000000001,-0.0531,-0.2001,0.088,-0.008,-0.11800000000000001
2025-11-06 18:32:56.195,50.62,-0.05,-0.005,0.007,-0.3,-0.976,0.054,11.16,-5.78,-51.03,0.7121000000000001,-0.6708000000000001,-0.053000000000000005,-0.2001,0.09,-0.005,-0.12
2025-11-06 18:32:56.195,50.625,-0.048,-0.002,0.005,-0.301,-0.974,0.053,11.16,-5.78,-51.03,0.7121000000000001,-0.6707000000000001,-0.0529,-0.20020000000000002,0.091,-0.008,-0.12
2025-11-06 18:32:56.195,50.63,-0.05,0.0,0.008,-0.301,-0.976,0.055,11.83,-5.93,-51.15,0.7121000000000001,-0.6707000000000001,-0.0528,-0.20020000000000002,0.091,-0.006,-0.122
2025-11-06 18:32:56.195,50.635,-0.048,0.0,0.009000000000000001,-0.3,-0.975,0.056,11.83,-5.93,-51.15,0.7121000000000001,-0.6707000000000001,-0.0528,-0.20020000000000002,0.089,-0.007,-0.123
2025-11-06 18:32:56.195,50.64,-0.048,0.003,0.008,-0.298,-0.973,0.058,11.42,-5.55,-50.39,0.7121000000000001,-0.6707000000000001,-0.052700000000000004,-0.2003,0.08700000000000001,-0.008,-0.125
2025-11-06 18:32:56.195,50.645,-0.045,0.01,0.008,-0.296,-0.969,0.059000000000000004,11.42,-5.55,-50.39,0.7120000000000001,-0.6708000000000001,-0.052500000000000005,-0.20040000000000002,0.085,-0.012,-0.126
2025-11-06 18:32:56.195,50.65,-0.046,0.012,0.005,-0.295,-0.967,0.059000000000000004,11.42,-5.55,-50.39,0.7119000000000001,-0.6709,-0.0524,-0.20040000000000002,0.084,-0.014,-0.125
2025-11-06 18:32:56.195,50.655,-0.048,0.015,0.002,-0.294,-0.965,0.057,11.83,-5.87,-50.74,0.7117,-0.6711,-0.0522,-0.2005,0.082,-0.016,-0.123
2025-11-06 18:32:56.195,50.66,-0.048,0.016,0.002,-0.295,-0.965,0.054,11.83,-5.87,-50.74,0.7116,-0.6712,-0.0521,-0.2006,0.082,-0.016,-0.12
2025-11-06 18:32:56.195,50.665,-0.055,0.011,-0.001,-0.295,-0.965,0.051000000000000004,11.31,-5.9,-50.77,0.7115,-0.6713,-0.0519,-0.20070000000000002,0.082,-0.017,-0.117
2025-11-06 18:32:56.195,50.67,-0.06,0.007,-0.003,-0.296,-0.964,0.051000000000000004,11.31,-5.9,-50.77,0.7114,-0.6714,-0.051800000000000006,-0.2008,0.082,-0.017,-0.116
2025-11-06 18:32:56.195,50.675,-0.064,0.0,-0.005,-0.296,-0.964,0.048,11.31,-5.9,-50.77,0.7113,-0.6715,-0.0517,-0.20090000000000002,0.082,-0.018000000000000002,-0.113
2025-11-06 18:32:56.195,50.68,-0.066,-0.002,-0.005,-0.296,-0.963,0.049,11.16,-5.67,-50.89,0.7112,-0.6715,-0.051500000000000004,-0.20090000000000002,0.082,-0.019,-0.114
2025-11-06 18:32:56.195,50.685,-0.07,-0.005,-0.005,-0.295,-0.962,0.048,11.16,-5.67,-50.89,0.7112,-0.6715,-0.0514,-0.201,0.081,-0.019,-0.113
2025-11-06 18:32:56.195,50.69,-0.07200000000000001,-0.013000000000000001,-0.005,-0.294,-0.961,0.049,11.83,-5.7,-50.36,0.7113,-0.6715,-0.051300000000000005,-0.201,0.08,-0.02,-0.115
2025-11-06 18:32:56.195,50.695,-0.073,-0.017,-0.005,-0.294,-0.961,0.05,11.83,-5.7,-50.36,0.7113,-0.6715,-0.0512,-0.201,0.079,-0.02,-0.115
2025-11-06 18:32:56.195,50.7,-0.07200000000000001,-0.021,-0.003,-0.294,-0.961,0.049,11.83,-5.7,-50.36,0.7113,-0.6715,-0.051000000000000004,-0.201,0.08,-0.019,-0.114
2025-11-06 18:32:56.195,50.705,-0.069,-0.017,-0.001,-0.294,-0.961,0.05,11.48,-5.61,-51.09,0.7113,-0.6715,-0.0509,-0.201,0.079,-0.02,-0.115
2025-11-06 18:32:56.196,50.71,-0.069,-0.023,0.0,-0.295,-0.962,0.05,11.48,-5.61,-51.09,0.7113,-0.6715,-0.0507,-0.201,0.08,-0.019,-0.116
2025-11-06 18:32:56.196,50.715,-0.067,-0.023,0.0,-0.296,-0.963,0.052000000000000005,11.34,-5.99,-51.24,0.7113,-0.6715,-0.0505,-0.201,0.081,-0.018000000000000002,-0.117
2025-11-06 18:32:56.196,50.72,-0.07,-0.016,-0.001,-0.295,-0.964,0.056,11.34,-5.99,-51.24,0.7112,-0.6716000000000001,-0.0504,-0.201,0.08,-0.016,-0.121
2025-11-06 18:32:56.196,50.725,-0.07100000000000001,-0.015,-0.002,-0.296,-0.968,0.055,11.34,-5.99,-51.24,0.7112,-0.6716000000000001,-0.0502,-0.201,0.08,-0.012,-0.12
2025-11-06 18:32:56.196,50.73,-0.07200000000000001,-0.014,-0.002,-0.296,-0.969,0.053,11.450000000000001,-5.84,-50.77,0.7112,-0.6716000000000001,-0.050100000000000006,-0.201,0.08,-0.011,-0.11800000000000001
2025-11-06 18:32:56.196,50.735,-0.07200000000000001,-0.016,-0.002,-0.296,-0.971,0.049,11.450000000000001,-5.84,-50.77,0.7112,-0.6716000000000001,-0.0499,-0.201,0.08,-0.01,-0.114
2025-11-06 18:32:56.196,50.74,-0.073,-0.016,-0.002,-0.297,-0.973,0.044,11.450000000000001,-5.84,-50.19,0.7113,-0.6716000000000001,-0.049800000000000004,-0.201,0.081,-0.008,-0.109
2025-11-06 18:32:56.196,50.745,-0.076,-0.021,-0.003,-0.297,-0.973,0.041,11.86,-5.67,-50.19,0.7114,-0.6715,-0.0497,-0.201,0.08,-0.007,-0.106
2025-11-06 18:32:56.196,50.75,-0.079,-0.026000000000000002,-0.003,-0.294,-0.974,0.039,11.86,-5.67,-50.19,0.7114,-0.6714,-0.049600000000000005,-0.201,0.078,-0.007,-0.10400000000000001
2025-11-06 18:32:56.196,50.755,-0.077,-0.029,-0.003,-0.293,-0.975,0.037,11.98,-6.05,-50.27,0.7115,-0.6714,-0.0495,-0.201,0.076,-0.006,-0.10300000000000001
2025-11-06 18:32:56.196,50.76,-0.07100000000000001,-0.037,0.0,-0.291,-0.972,0.04,11.98,-6.05,-50.27,0.7115,-0.6714,-0.049300000000000004,-0.201,0.074,-0.009000000000000001,-0.106
2025-11-06 18:32:56.196,50.765,-0.067,-0.043000000000000003,0.002,-0.291,-0.97,0.044,11.98,-6.05,-50.27,0.7116,-0.6714,-0.049100000000000005,-0.20090000000000002,0.074,-0.01,-0.109
2025-11-06 18:32:56.196,50.77,-0.061,-0.045,0.002,-0.29,-0.97,0.046,11.83,-5.43,-50.77,0.7115,-0.6714,-0.0489,-0.20090000000000002,0.07200000000000001,-0.011,-0.112
2025-11-06 18:32:56.196,50.775,-0.053,-0.039,0.001,-0.293,-0.967,0.05,11.83,-5.43,-50.77,0.7115,-0.6715,-0.0487,-0.2008,0.075,-0.014,-0.116
2025-11-06 18:32:56.196,50.78,-0.05,-0.037,0.002,-0.293,-0.966,0.051000000000000004,11.75,-5.58,-50.800000000000004,0.7114,-0.6716000000000001,-0.0485,-0.2008,0.075,-0.014,-0.116
2025-11-06 18:32:56.196,50.785,-0.045,-0.029,0.002,-0.296,-0.965,0.049,11.75,-5.58,-50.800000000000004,0.7113,-0.6717000000000001,-0.0483,-0.2008,0.078,-0.015,-0.114
2025-11-06 18:32:56.196,50.79,-0.045,-0.027,0.002,-0.298,-0.964,0.049,11.75,-5.58,-50.800000000000004,0.7112,-0.6718000000000001,-0.048100000000000004,-0.20090000000000002,0.079,-0.016,-0.114
2025-11-06 18:32:56.196,50.795,-0.048,-0.021,0.001,-0.299,-0.964,0.044,12.450000000000001,-5.55,-50.95,0.7111000000000001,-0.672,-0.047900000000000005,-0.20090000000000002,0.08,-0.016,-0.109
2025-11-06 18:32:56.197,50.8,-0.05,-0.017,0.0,-0.299,-0.962,0.041,12.450000000000001,-5.55,-50.95,0.7110000000000001,-0.672,-0.0478,-0.201,0.079,-0.018000000000000002,-0.105
2025-11-06 18:32:56.197,50.805,-0.053,-0.021,0.0,-0.3,-0.961,0.038,12.39,-5.55,-51.0,0.7110000000000001,-0.6721,-0.0476,-0.201,0.08,-0.019,-0.10200000000000001
2025-11-06 18:32:56.197,50.81,-0.059000000000000004,-0.015,-0.001,-0.301,-0.961,0.036000000000000004,12.39,-5.55,-51.0,0.7109000000000001,-0.6721,-0.0475,-0.2011,0.081,-0.02,-0.1
2025-11-06 18:32:56.197,50.815,-0.056,-0.009000000000000001,-0.003,-0.304,-0.961,0.035,12.39,-5.55,-51.0,0.7109000000000001,-0.6722,-0.0473,-0.20120000000000002,0.084,-0.019,-0.099
2025-11-06 18:32:56.197,50.82,-0.057,-0.008,-0.001,-0.304,-0.961,0.034,11.78,-5.84,-51.03,0.7108,-0.6722,-0.0472,-0.2013,0.084,-0.019,-0.098
