System_Time,Timestamp,Gyro_X,Gyro_Y,Gyro_Z,Acc_X,Acc_Y,Acc_Z,Mag_X,Mag_Y,Mag_Z,Quat_W,Quat_X,Quat_Y,Quat_Z,Linear_Acc_X,Linear_Acc_Y,Linear_Acc_Z
2025-11-06 18:37:24.002,297.365,-0.007,-0.008,0.004,-0.194,-0.981,0.021,61.88,-14.84,-69.21000000000001,-0.30720000000000003,0.4323,0.5705,0.627,0.003,0.0,0.003
2025-11-06 18:37:24.002,297.37,-0.009000000000000001,-0.014,0.003,-0.194,-0.982,0.019,61.44,-15.17,-69.45,-0.30720000000000003,0.4323,0.5703,0.6272,0.002,0.001,0.005
2025-11-06 18:37:24.003,297.375,-0.012,-0.014,0.006,-0.196,-0.981,0.018000000000000002,61.44,-15.17,-69.45,-0.30720000000000003,0.4323,0.5701,0.6274000000000001,0.003,0.0,0.005
2025-11-06 18:37:24.003,297.38,-0.011,-0.018000000000000002,0.004,-0.195,-0.981,0.019,61.44,-15.17,-69.45,-0.30720000000000003,0.4323,0.5698,0.6276,0.003,0.0,0.004
2025-11-06 18:37:24.003,297.385,-0.01,-0.017,0.005,-0.195,-0.98,0.02,61.35,-15.46,-69.04,-0.30720000000000003,0.4324,0.5697,0.6277,0.003,0.0,0.002
2025-11-06 18:37:24.003,297.39,-0.009000000000000001,-0.018000000000000002,0.006,-0.195,-0.982,0.019,61.35,-15.46,-69.04,-0.30720000000000003,0.4324,0.5695,0.6278,0.002,0.001,0.003
2025-11-06 18:37:24.003,297.395,-0.01,-0.019,0.008,-0.193,-0.981,0.021,61.03,-15.08,-69.86,-0.30720000000000003,0.4324,0.5694,0.6278,0.0,0.001,0.001
2025-11-06 18:37:24.003,297.4,-0.013000000000000001,-0.012,0.009000000000000001,-0.192,-0.983,0.02,61.03,-15.08,-69.86,-0.3073,0.4323,0.5694,0.6279,0.0,0.002,0.001
2025-11-06 18:37:24.003,297.405,-0.01,-0.008,0.007,-0.193,-0.982,0.023,61.29,-15.08,-69.57000000000001,-0.3073,0.4324,0.5694,0.6279,0.0,0.001,0.0
2025-11-06 18:37:24.003,297.41,-0.009000000000000001,-0.009000000000000001,0.008,-0.193,-0.982,0.022,61.29,-15.17,-69.57000000000001,-0.3073,0.4324,0.5693,0.6279,0.0,0.001,0.0
2025-11-06 18:37:24.003,297.415,-0.01,-0.007,0.008,-0.194,-0.982,0.024,61.29,-15.17,-69.57000000000001,-0.3073,0.4325,0.5693,0.6279,0.001,0.001,-0.002
2025-11-06 18:37:24.003,297.42,-0.008,-0.002,0.006,-0.193,-0.984,0.023,61.5,-15.370000000000001,-69.8,-0.3073,0.4325,0.5693,0.6278,0.0,0.003,0.0
2025-11-06 18:37:24.003,297.425,-0.01,0.003,0.006,-0.193,-0.982,0.023,61.5,-15.370000000000001,-69.8,-0.3073,0.4325,0.5693,0.6278,0.0,0.001,0.0
2025-11-06 18:37:24.003,297.43,-0.009000000000000001,0.003,0.005,-0.189,-0.981,0.022,61.32,-14.790000000000001,-69.3,-0.3074,0.4324,0.5694,0.6278,-0.003,0.0,0.0
2025-11-06 18:37:24.003,297.435,-0.011,0.009000000000000001,0.005,-0.189,-0.982,0.022,61.32,-14.790000000000001,-69.3,-0.3075,0.4323,0.5694,0.6278,-0.003,0.001,0.0
2025-11-06 18:37:24.003,297.44,-0.013000000000000001,0.009000000000000001,0.006,-0.188,-0.981,0.021,61.32,-14.790000000000001,-69.3,-0.30760000000000004,0.43220000000000003,0.5695,0.6278,-0.003,0.0,0.0
2025-11-06 18:37:24.003,297.445,-0.014,0.01,0.005,-0.188,-0.983,0.02,62.64,-14.9,-69.48,-0.30770000000000003,0.432,0.5695,0.6279,-0.003,0.002,0.001
2025-11-06 18:37:24.003,297.45,-0.016,0.006,0.001,-0.187,-0.983,0.021,62.64,-14.9,-69.48,-0.3078,0.4319,0.5695,0.6278,-0.003,0.002,0.0
2025-11-06 18:37:24.003,297.455,-0.02,0.007,0.001,-0.187,-0.984,0.022,61.35,-14.96,-69.65,-0.3079,0.43170000000000003,0.5696,0.6278,-0.003,0.003,0.0
2025-11-06 18:37:24.003,297.46,-0.017,0.006,0.003,-0.186,-0.984,0.024,61.35,-14.96,-69.65,-0.30810000000000004,0.43160000000000004,0.5698,0.6277,-0.004,0.002,-0.002
2025-11-06 18:37:24.003,297.465,-0.016,0.006,0.004,-0.184,-0.983,0.024,61.5,-15.08,-69.8,-0.30820000000000003,0.4315,0.5699000000000001,0.6276,-0.005,0.001,-0.002
2025-11-06 18:37:24.004,297.47,-0.016,0.004,0.005,-0.185,-0.98,0.025,61.5,-15.08,-69.8,-0.3083,0.4314,0.5700000000000001,0.6275000000000001,-0.004,0.0,-0.002
2025-11-06 18:37:24.004,297.475,-0.014,0.007,0.005,-0.182,-0.98,0.024,61.5,-15.08,-69.8,-0.3084,0.4312,0.5702,0.6274000000000001,-0.006,-0.001,-0.002
2025-11-06 18:37:24.004,297.48,-0.011,0.003,0.002,-0.183,-0.98,0.02,61.410000000000004,-15.25,-69.27,-0.30860000000000004,0.43110000000000004,0.5703,0.6273000000000001,-0.005,-0.001,0.001
2025-11-06 18:37:24.004,297.485,-0.011,0.004,0.001,-0.182,-0.98,0.023,61.410000000000004,-15.25,-69.27,-0.30870000000000003,0.4309,0.5704,0.6273000000000001,-0.005,-0.001,0.0
2025-11-06 18:37:24.004,297.49,-0.011,-0.001,0.002,-0.183,-0.982,0.022,61.32,-14.76,-69.39,-0.3089,0.4308,0.5705,0.6272,-0.004,0.0,0.0
2025-11-06 18:37:24.004,297.495,-0.013000000000000001,-0.004,0.002,-0.183,-0.983,0.021,61.32,-14.76,-69.39,-0.30910000000000004,0.4307,0.5705,0.6271,-0.004,0.001,0.0
2025-11-06 18:37:24.004,297.5,-0.014,-0.006,0.003,-0.183,-0.984,0.023,61.32,-14.76,-69.39,-0.30920000000000003,0.43060000000000004,0.5706,0.6271,-0.003,0.002,0.0
2025-11-06 18:37:24.004,297.505,-0.017,-0.009000000000000001,0.003,-0.184,-0.984,0.025,62.230000000000004,-15.31,-69.42,-0.30920000000000003,0.43060000000000004,0.5707,0.627,-0.002,0.002,-0.003
2025-11-06 18:37:24.004,297.51,-0.019,-0.009000000000000001,0.004,-0.186,-0.982,0.026000000000000002,62.230000000000004,-15.31,-69.42,-0.30920000000000003,0.43060000000000004,0.5708,0.6269,0.0,0.0,-0.003
2025-11-06 18:37:24.004,297.515,-0.017,-0.004,0.007,-0.186,-0.984,0.026000000000000002,61.7,-15.34,-70.18,-0.30920000000000003,0.43060000000000004,0.5709000000000001,0.6268,0.0,0.001,-0.003
2025-11-06 18:37:24.004,297.52,-0.016,-0.004,0.007,-0.185,-0.983,0.027,61.7,-15.34,-70.18,-0.30920000000000003,0.4307,0.5710000000000001,0.6267,-0.001,0.0,-0.004
2025-11-06 18:37:24.004,297.525,-0.017,-0.008,0.009000000000000001,-0.187,-0.984,0.026000000000000002,62.230000000000004,-15.17,-70.44,-0.30920000000000003,0.4307,0.5710000000000001,0.6266,0.0,0.002,-0.003
2025-11-06 18:37:24.004,297.53,-0.017,-0.003,0.009000000000000001,-0.186,-0.984,0.025,62.230000000000004,-15.17,-70.44,-0.30920000000000003,0.4308,0.5711,0.6266,0.0,0.001,-0.002
2025-11-06 18:37:24.004,297.535,-0.019,0.0,0.009000000000000001,-0.186,-0.985,0.025,62.230000000000004,-15.17,-70.44,-0.30920000000000003,0.4308,0.5711,0.6265000000000001,0.0,0.003,-0.001
2025-11-06 18:37:24.004,297.54,-0.019,-0.001,0.011,-0.184,-0.986,0.023,61.47,-14.9,-70.09,-0.3093,0.4307,0.5711,0.6265000000000001,-0.001,0.004,0.0
2025-11-06 18:37:24.004,297.545,-0.019,-0.003,0.009000000000000001,-0.185,-0.986,0.021,61.47,-14.9,-70.09,-0.3094,0.43060000000000004,0.5710000000000001,0.6266,0.0,0.003,0.001
2025-11-06 18:37:24.004,297.55,-0.022,0.005,0.009000000000000001,-0.185,-0.985,0.019,61.67,-14.870000000000001,-70.03,-0.3095,0.4305,0.5709000000000001,0.6267,0.0,0.003,0.003
2025-11-06 18:37:24.004,297.555,-0.021,0.0,0.014,-0.185,-0.985,0.017,61.67,-14.870000000000001,-70.03,-0.30960000000000004,0.4304,0.5708,0.6268,0.0,0.003,0.004
2025-11-06 18:37:24.004,297.56,-0.021,-0.002,0.016,-0.187,-0.982,0.018000000000000002,61.67,-14.870000000000001,-70.03,-0.30960000000000004,0.4304,0.5706,0.627,0.0,0.0,0.003
2025-11-06 18:37:24.004,297.565,-0.024,-0.006,0.015,-0.188,-0.982,0.018000000000000002,61.15,-14.55,-70.03,-0.30970000000000003,0.4304,0.5704,0.6272,0.001,0.0,0.003
2025-11-06 18:37:24.004,297.57,-0.024,-0.003,0.016,-0.187,-0.981,0.018000000000000002,61.15,-14.55,-70.03,-0.30970000000000003,0.4304,0.5702,0.6273000000000001,0.001,0.0,0.002
2025-11-06 18:37:24.004,297.575,-0.022,-0.003,0.014,-0.188,-0.981,0.02,63.08,-15.11,-70.27,-0.30960000000000004,0.4304,0.5702,0.6274000000000001,0.001,0.0,0.0
2025-11-06 18:37:24.004,297.58,-0.022,-0.001,0.017,-0.187,-0.979,0.022,63.08,-15.11,-70.27,-0.30960000000000004,0.4305,0.5701,0.6274000000000001,0.0,-0.002,-0.001
2025-11-06 18:37:24.004,297.585,-0.021,0.002,0.015,-0.187,-0.982,0.022,61.7,-14.96,-69.8,-0.3095,0.4305,0.5701,0.6274000000000001,0.0,0.0,-0.001
2025-11-06 18:37:24.004,297.59,-0.025,0.006,0.016,-0.19,-0.982,0.024,61.7,-14.96,-69.8,-0.3094,0.4307,0.5701,0.6274000000000001,0.002,0.0,-0.003
2025-11-06 18:37:24.004,297.595,-0.028,0.009000000000000001,0.016,-0.192,-0.982,0.024,61.7,-14.96,-69.8,-0.30920000000000003,0.4308,0.5700000000000001,0.6274000000000001,0.004,0.0,-0.003
2025-11-06 18:37:24.004,297.6,-0.032,0.017,0.018000000000000002,-0.193,-0.982,0.025,61.410000000000004,-15.370000000000001,-69.97,-0.309,0.431,0.5700000000000001,0.6274000000000001,0.005,0.0,-0.004
2025-11-06 18:37:24.004,297.605,-0.033,0.015,0.017,-0.192,-0.983,0.025,61.410000000000004,-15.370000000000001,-69.97,-0.3088,0.43110000000000004,0.5700000000000001,0.6275000000000001,0.003,0.001,-0.003
2025-11-06 18:37:24.004,297.61,-0.032,0.017,0.018000000000000002,-0.192,-0.983,0.022,61.38,-14.9,-70.38,-0.30870000000000003,0.4312,0.5699000000000001,0.6276,0.003,0.001,0.0
2025-11-06 18:37:24.004,297.615,-0.033,0.023,0.019,-0.192,-0.983,0.022,61.38,-14.9,-70.38,-0.3085,0.4313,0.5698,0.6277,0.003,0.001,-0.001
2025-11-06 18:37:24.004,297.62,-0.03,0.026000000000000002,0.019,-0.191,-0.984,0.02,61.38,-14.9,-70.38,-0.3085,0.4312,0.5697,0.6278,0.001,0.003,0.0
2025-11-06 18:37:24.004,297.625,-0.028,0.035,0.016,-0.191,-0.983,0.016,61.76,-14.58,-69.42,-0.3085,0.43110000000000004,0.5696,0.628,0.001,0.002,0.004
2025-11-06 18:37:24.004,297.63,-0.028,0.043000000000000003,0.019,-0.191,-0.984,0.015,61.76,-14.58,-69.42,-0.3084,0.431,0.5694,0.6283000000000001,0.001,0.002,0.004
2025-11-06 18:37:24.004,297.635,-0.03,0.046,0.02,-0.19,-0.983,0.014,61.35,-15.02,-69.89,-0.3084,0.4308,0.5692,0.6285000000000001,0.0,0.001,0.005
2025-11-06 18:37:24.004,297.64,-0.032,0.044,0.021,-0.192,-0.983,0.014,61.35,-15.02,-69.89,-0.3084,0.4307,0.5690000000000001,0.6288,0.002,0.001,0.004
2025-11-06 18:37:24.004,297.645,-0.035,0.05,0.022,-0.192,-0.982,0.012,61.35,-14.84,-69.24,-0.3084,0.43060000000000004,0.5688,0.6291,0.001,0.0,0.005
2025-11-06 18:37:24.004,297.65,-0.035,0.054,0.023,-0.192,-0.981,0.013000000000000001,61.35,-14.84,-69.24,-0.3083,0.4304,0.5686,0.6294000000000001,0.001,0.0,0.004
2025-11-06 18:37:24.004,297.655,-0.037,0.053,0.023,-0.193,-0.98,0.014,61.35,-14.84,-69.24,-0.30820000000000003,0.4304,0.5685,0.6296,0.002,0.0,0.002
2025-11-06 18:37:24.005,297.66,-0.039,0.053,0.02,-0.193,-0.981,0.016,61.940000000000005,-14.82,-69.10000000000001,-0.30810000000000004,0.4303,0.5684,0.6298,0.001,0.0,0.0
2025-11-06 18:37:24.005,297.665,-0.042,0.063,0.022,-0.193,-0.984,0.019,61.940000000000005,-14.82,-69.10000000000001,-0.3079,0.4303,0.5684,0.6299,0.001,0.002,-0.002
2025-11-06 18:37:24.005,297.67,-0.046,0.063,0.023,-0.194,-0.985,0.02,61.26,-14.99,-69.36,-0.3078,0.4303,0.5684,0.6299,0.002,0.004,-0.003
2025-11-06 18:37:24.005,297.675,-0.049,0.067,0.022,-0.196,-0.984,0.021,61.26,-14.99,-69.36,-0.3075,0.4304,0.5684,0.63,0.003,0.003,-0.004
2025-11-06 18:37:24.005,297.68,-0.052000000000000005,0.077,0.025,-0.197,-0.984,0.021,61.26,-14.99,-69.36,-0.3073,0.4304,0.5684,0.6301,0.004,0.003,-0.004
2025-11-06 18:37:24.005,297.685,-0.055,0.083,0.027,-0.196,-0.984,0.021,61.32,-14.700000000000001,-69.59,-0.30710000000000004,0.4305,0.5684,0.6302,0.003,0.003,-0.004
2025-11-06 18:37:24.005,297.69,-0.061,0.08700000000000001,0.027,-0.196,-0.982,0.022,61.32,-14.700000000000001,-69.59,-0.3068,0.4305,0.5685,0.6302,0.002,0.001,-0.005
2025-11-06 18:37:24.005,297.695,-0.066,0.093,0.027,-0.197,-0.977,0.02,61.56,-14.76,-69.48,-0.3065,0.4305,0.5684,0.6304000000000001,0.003,-0.002,-0.003
2025-11-06 18:37:24.005,297.7,-0.063,0.098,0.031,-0.197,-0.978,0.018000000000000002,61.56,-14.76,-69.48,-0.3063,0.4305,0.5683,0.6306,0.002,-0.002,-0.001
2025-11-06 18:37:24.005,297.705,-0.064,0.1,0.031,-0.196,-0.978,0.017,61.61,-14.61,-69.36,-0.30610000000000004,0.4304,0.5683,0.6309,0.001,-0.002,0.0
2025-11-06 18:37:24.005,297.71,-0.067,0.107,0.032,-0.198,-0.979,0.014,61.61,-14.61,-69.36,-0.3059,0.4302,0.5681,0.6312,0.002,0.0,0.001
2025-11-06 18:37:24.005,297.715,-0.07200000000000001,0.114,0.035,-0.197,-0.979,0.007,61.61,-14.61,-69.36,-0.3058,0.4299,0.5678000000000001,0.6317,0.001,-0.001,0.007
2025-11-06 18:37:24.005,297.72,-0.076,0.117,0.034,-0.193,-0.981,0.004,61.230000000000004,-15.31,-69.13,-0.3059,0.4294,0.5676,0.6322,-0.002,0.001,0.009000000000000001
2025-11-06 18:37:24.005,297.725,-0.085,0.125,0.033,-0.19,-0.99,0.003,61.230000000000004,-15.31,-69.13,-0.306,0.4289,0.5674,0.6327,-0.004,0.009000000000000001,0.008
2025-11-06 18:37:24.005,297.73,-0.097,0.138,0.034,-0.192,-0.998,0.0,61.56,-15.22,-69.42,-0.3062,0.4283,0.5672,0.6332,-0.002,0.018000000000000002,0.01
2025-11-06 18:37:24.005,297.735,-0.108,0.148,0.037,-0.202,-1.0,-0.004,61.56,-15.22,-69.42,-0.30610000000000004,0.4278,0.5667,0.634,0.006,0.019,0.013000000000000001
2025-11-06 18:37:24.005,297.74,-0.111,0.161,0.041,-0.21,-0.995,-0.001,61.44,-14.99,-69.21000000000001,-0.3058,0.42760000000000004,0.5661,0.6348,0.014,0.014,0.009000000000000001
2025-11-06 18:37:24.005,297.745,-0.108,0.181,0.042,-0.215,-0.989,-0.003,61.44,-14.99,-69.21000000000001,-0.3053,0.42760000000000004,0.5655,0.6356,0.017,0.009000000000000001,0.009000000000000001
2025-11-06 18:37:24.005,297.75,-0.10400000000000001,0.195,0.044,-0.214,-0.99,-0.002,61.44,-14.99,-69.21000000000001,-0.3048,0.42750000000000005,0.5650000000000001,0.6364000000000001,0.015,0.01,0.006
2025-11-06 18:37:24.005,297.755,-0.095,0.199,0.048,-0.218,-0.987,0.001,61.44,-14.790000000000001,-69.3,-0.3042,0.42760000000000004,0.5645,0.637,0.017,0.007,0.002
2025-11-06 18:37:24.005,297.76,-0.09,0.20500000000000002,0.053,-0.227,-0.981,0.001,61.44,-14.790000000000001,-69.3,-0.3033,0.4279,0.5639000000000001,0.6377,0.024,0.002,0.001
2025-11-06 18:37:24.005,297.765,-0.089,0.20800000000000002,0.055,-0.226,-0.983,-0.001,61.47,-14.700000000000001,-69.45,-0.30260000000000004,0.42810000000000004,0.5633,0.6385000000000001,0.021,0.005,0.003
2025-11-06 18:37:24.005,297.77,-0.093,0.203,0.053,-0.218,-0.985,-0.001,61.47,-14.700000000000001,-69.45,-0.30210000000000004,0.42800000000000005,0.5630000000000001,0.6391,0.012,0.006,0.002
2025-11-06 18:37:24.005,297.775,-0.094,0.20400000000000001,0.05,-0.215,-0.985,0.002,61.47,-14.700000000000001,-69.45,-0.30160000000000003,0.4279,0.5629000000000001,0.6394000000000001,0.008,0.006,-0.002
2025-11-06 18:37:24.005,297.78,-0.093,0.20500000000000002,0.048,-0.20400000000000001,-0.987,0.005,61.56,-14.41,-69.07000000000001,-0.3015,0.42760000000000004,0.5630000000000001,0.6396000000000001,-0.003,0.009000000000000001,-0.005
2025-11-06 18:37:24.005,297.785,-0.095,0.217,0.044,-0.198,-0.987,0.004,61.56,-14.41,-69.07000000000001,-0.3014,0.42710000000000004,0.5633,0.6397,-0.008,0.009000000000000001,-0.004
2025-11-06 18:37:24.005,297.79,-0.097,0.22,0.048,-0.20800000000000002,-0.981,0.0,61.53,-14.870000000000001,-69.24,-0.30110000000000003,0.4268,0.5633,0.6401,0.001,0.003,-0.001
2025-11-06 18:37:24.005,297.795,-0.094,0.23800000000000002,0.06,-0.215,-0.973,-0.002,61.53,-14.870000000000001,-69.24,-0.30060000000000003,0.42660000000000003,0.5631,0.6407,0.007,-0.004,0.001
2025-11-06 18:37:24.005,297.8,-0.094,0.242,0.062,-0.198,-0.982,-0.007,61.76,-14.41,-68.92,-0.3005,0.4258,0.5631,0.6411,-0.009000000000000001,0.004,0.005
2025-11-06 18:37:24.005,297.805,-0.091,0.23800000000000002,0.059000000000000004,-0.195,-0.979,-0.003,61.76,-14.41,-68.92,-0.3005,0.42510000000000003,0.5634,0.6414000000000001,-0.011,0.001,0.0
2025-11-06 18:37:24.005,297.81,-0.08,0.246,0.057,-0.196,-0.978,0.004,61.76,-14.41,-68.92,-0.3003,0.4247,0.5637,0.6415000000000001,-0.009000000000000001,0.0,-0.007
2025-11-06 18:37:24.005,297.815,-0.07100000000000001,0.253,0.056,-0.198,-0.976,0.004,61.7,-14.9,-69.48,-0.30010000000000003,0.4243,0.5641,0.6415000000000001,-0.007,-0.001,-0.008
2025-11-06 18:37:24.005,297.82,-0.066,0.265,0.058,-0.20600000000000002,-0.97,0.005,61.7,-14.9,-69.48,-0.2995,0.42410000000000003,0.5643,0.6417,0.0,-0.007,-0.008
2025-11-06 18:37:24.005,297.825,-0.064,0.278,0.061,-0.211,-0.967,-0.001,61.7,-14.84,-68.75,-0.2989,0.4239,0.5642,0.6422,0.004,-0.011,-0.001
2025-11-06 18:37:24.005,297.83,-0.066,0.277,0.058,-0.203,-0.961,-0.007,61.7,-14.84,-68.75,-0.2985,0.4234,0.5642,0.6427,-0.004,-0.016,0.003
2025-11-06 18:37:24.005,297.835,-0.069,0.277,0.052000000000000005,-0.20800000000000002,-0.961,-0.011,61.7,-14.84,-68.75,-0.29810000000000003,0.42300000000000004,0.5640000000000001,0.6434000000000001,0.0,-0.016,0.005
2025-11-06 18:37:24.005,297.84,-0.07100000000000001,0.271,0.045,-0.199,-0.9590000000000001,-0.014,61.88,-14.67,-69.3,-0.2979,0.4222,0.5640000000000001,0.644,-0.008,-0.019,0.007
2025-11-06 18:37:24.005,297.845,-0.079,0.273,0.033,-0.183,-0.963,-0.016,61.88,-14.67,-69.3,-0.2982,0.42100000000000004,0.5642,0.6444000000000001,-0.023,-0.014,0.007
2025-11-06 18:37:24.006,297.85,-0.078,0.273,0.03,-0.182,-0.965,-0.017,61.67,-14.64,-69.01,-0.2984,0.4199,0.5645,0.6448,-0.021,-0.013000000000000001,0.007
2025-11-06 18:37:24.006,297.855,-0.079,0.279,0.027,-0.183,-0.965,-0.021,61.67,-14.64,-69.01,-0.2987,0.4187,0.5646,0.6454000000000001,-0.02,-0.013000000000000001,0.01
2025-11-06 18:37:24.006,297.86,-0.085,0.29,0.022,-0.182,-0.97,-0.024,61.82,-15.14,-69.24,-0.299,0.41750000000000004,0.5647,0.646,-0.019,-0.008,0.011
2025-11-06 18:37:24.006,297.865,-0.088,0.307,0.019,-0.179,-0.979,-0.023,61.82,-15.14,-69.24,-0.2993,0.4162,0.5650000000000001,0.6464000000000001,-0.02,0.0,0.008
2025-11-06 18:37:24.006,297.87,-0.082,0.312,0.016,-0.183,-0.978,-0.017,61.82,-15.14,-69.24,-0.2993,0.4151,0.5653,0.6468,-0.015,-0.001,0.002
2025-11-06 18:37:24.006,297.875,-0.075,0.319,0.016,-0.189,-0.979,-0.015,61.410000000000004,-14.44,-68.81,-0.29910000000000003,0.4143,0.5656,0.6471,-0.008,0.0,0.0
2025-11-06 18:37:24.006,297.88,-0.07200000000000001,0.327,0.016,-0.188,-0.984,-0.014,61.410000000000004,-14.44,-68.81,-0.2988,0.41350000000000003,0.5660000000000001,0.6474000000000001,-0.008,0.004,-0.002
2025-11-06 18:37:24.006,297.885,-0.074,0.324,0.016,-0.181,-0.99,-0.015,62.08,-14.76,-69.01,-0.2988,0.41250000000000003,0.5665,0.6476000000000001,-0.014,0.01,-0.001
2025-11-06 18:37:24.006,297.89,-0.075,0.32,0.014,-0.179,-0.993,-0.016,62.08,-14.76,-69.01,-0.2988,0.41150000000000003,0.5671,0.6478,-0.014,0.012,-0.001
2025-11-06 18:37:24.006,297.895,-0.074,0.312,0.011,-0.18,-0.995,-0.013000000000000001,62.08,-14.76,-69.01,-0.2987,0.41050000000000003,0.5677,0.6479,-0.012,0.014,-0.004
2025-11-06 18:37:24.006,297.9,-0.079,0.319,0.011,-0.17200000000000001,-1.0010000000000001,-0.015,61.730000000000004,-14.67,-69.39,-0.2988,0.4093,0.5683,0.6481,-0.018000000000000002,0.02,-0.002
2025-11-06 18:37:24.007,297.905,-0.079,0.315,0.017,-0.168,-1.0070000000000001,-0.017,61.730000000000004,-14.67,-69.39,-0.299,0.4081,0.5690000000000001,0.6481,-0.02,0.025,-0.001
2025-11-06 18:37:24.007,297.91,-0.074,0.312,0.025,-0.17200000000000001,-1.0050000000000001,-0.01,61.7,-14.26,-69.48,-0.2989,0.4071,0.5698,0.6481,-0.014,0.023,-0.008
2025-11-06 18:37:24.007,297.915,-0.049,0.318,0.041,-0.185,-0.995,0.0,61.7,-14.26,-69.48,-0.298,0.4066,0.5706,0.6481,-0.001,0.013000000000000001,-0.017
2025-11-06 18:37:24.007,297.92,-0.021,0.328,0.047,-0.171,-0.999,0.008,61.85,-14.76,-69.57000000000001,-0.2973,0.40590000000000004,0.5720000000000001,0.6477,-0.014,0.017,-0.025
2025-11-06 18:37:24.007,297.925,0.0,0.328,0.053,-0.16,-1.0,0.018000000000000002,61.85,-14.76,-69.57000000000001,-0.2967,0.405,0.5738,0.6469,-0.023,0.017,-0.032
2025-11-06 18:37:24.007,297.93,0.016,0.321,0.057,-0.154,-1.002,0.028,61.85,-14.76,-69.57000000000001,-0.29600000000000004,0.4041,0.5759000000000001,0.6459,-0.027,0.018000000000000002,-0.039
2025-11-06 18:37:24.007,297.935,0.024,0.315,0.065,-0.156,-0.999,0.025,62.46,-15.31,-69.33,-0.2954,0.4033,0.5777,0.6451,-0.022,0.015,-0.033
2025-11-06 18:37:24.007,297.94,0.016,0.311,0.078,-0.168,-0.996,0.009000000000000001,62.46,-15.31,-69.33,-0.2948,0.4027,0.5786,0.6449,-0.009000000000000001,0.012,-0.015
2025-11-06 18:37:24.007,297.945,0.003,0.329,0.09,-0.189,-0.993,-0.011,61.7,-14.96,-69.19,-0.2939,0.4025,0.5785,0.6456000000000001,0.01,0.009000000000000001,0.004
2025-11-06 18:37:24.007,297.95,-0.003,0.334,0.096,-0.199,-0.985,-0.033,61.7,-14.96,-69.19,-0.2934,0.40230000000000005,0.5774,0.6469,0.018000000000000002,0.001,0.025
2025-11-06 18:37:24.007,297.955,0.0,0.34,0.096,-0.20800000000000002,-0.981,-0.049,61.7,-14.96,-69.19,-0.2929,0.4022,0.5759000000000001,0.6486000000000001,0.024,-0.001,0.037
2025-11-06 18:37:24.007,297.96,0.01,0.324,0.084,-0.20500000000000002,-0.976,-0.048,62.4,-14.96,-69.24,-0.2924,0.402,0.5746,0.65,0.019,-0.005,0.033
2025-11-06 18:37:24.007,297.965,0.011,0.296,0.075,-0.201,-0.976,-0.042,62.4,-14.96,-69.24,-0.29200000000000004,0.40180000000000005,0.5736,0.6512,0.013000000000000001,-0.005,0.023
2025-11-06 18:37:24.007,297.97,0.002,0.271,0.064,-0.191,-0.974,-0.031,62.78,-14.790000000000001,-68.89,-0.2916,0.40140000000000003,0.5733,0.6519,0.003,-0.007,0.011
2025-11-06 18:37:24.007,297.975,-0.01,0.245,0.055,-0.189,-0.965,-0.019,62.78,-14.790000000000001,-68.89,-0.2911,0.4012,0.5734,0.6522,0.0,-0.016,0.0
2025-11-06 18:37:24.007,297.98,-0.017,0.219,0.044,-0.181,-0.9550000000000001,-0.002,61.940000000000005,-15.34,-68.81,-0.2904,0.401,0.5741,0.652,-0.008,-0.026000000000000002,-0.017
2025-11-06 18:37:24.007,297.985,-0.016,0.20500000000000002,0.035,-0.179,-0.9460000000000001,0.012,61.940000000000005,-15.34,-68.81,-0.2896,0.401,0.5751000000000001,0.6514,-0.009000000000000001,-0.034,-0.029
2025-11-06 18:37:24.007,297.99,-0.016,0.191,0.031,-0.177,-0.9470000000000001,0.026000000000000002,61.940000000000005,-15.34,-68.81,-0.2886,0.4012,0.5766,0.6505000000000001,-0.011,-0.034,-0.04
2025-11-06 18:37:24.007,297.995,-0.014,0.17500000000000002,0.028,-0.17200000000000001,-0.9490000000000001,0.035,62.11,-14.73,-69.07000000000001,-0.2877,0.40130000000000005,0.5783,0.6493,-0.015,-0.032,-0.045
2025-11-06 18:37:24.007,298.0,-0.024,0.159,0.028,-0.159,-0.966,0.034,62.11,-14.73,-69.07000000000001,-0.2876,0.4011,0.5799000000000001,0.648,-0.027,-0.015,-0.04
2025-11-06 18:37:24.007,298.005,-0.046,0.158,0.034,-0.154,-0.978,0.033,61.7,-15.17,-69.04,-0.2877,0.40080000000000005,0.5815,0.6467,-0.029,-0.004,-0.036000000000000004
2025-11-06 18:37:24.007,298.01,-0.053,0.17200000000000001,0.046,-0.157,-0.98,0.021,61.7,-15.17,-69.04,-0.28800000000000003,0.40040000000000003,0.5825,0.646,-0.024,-0.002,-0.022
2025-11-06 18:37:24.007,298.015,-0.055,0.189,0.057,-0.156,-0.98,0.006,61.7,-15.17,-69.07000000000001,-0.2886,0.39990000000000003,0.5829,0.6456000000000001,-0.024,-0.003,-0.006
2025-11-06 18:37:24.007,298.02,-0.046,0.214,0.064,-0.154,-0.976,0.0,61.79,-14.790000000000001,-69.07000000000001,-0.2892,0.39940000000000003,0.5831000000000001,0.6455000000000001,-0.023,-0.007,0.0
2025-11-06 18:37:24.007,298.025,-0.017,0.258,0.076,-0.149,-0.972,-0.006,61.79,-14.790000000000001,-69.07000000000001,-0.2901,0.3987,0.5832,0.6454000000000001,-0.027,-0.011,0.004
2025-11-06 18:37:24.007,298.03,0.01,0.269,0.076,-0.15,-0.976,-0.008,61.7,-14.52,-69.13,-0.2908,0.398,0.5833,0.6454000000000001,-0.024,-0.007,0.006
2025-11-06 18:37:24.007,298.035,0.03,0.272,0.079,-0.156,-0.979,-0.004,61.7,-14.52,-69.13,-0.2909,0.3975,0.5836,0.6454000000000001,-0.016,-0.005,0.001
2025-11-06 18:37:24.007,298.04,0.039,0.269,0.081,-0.165,-0.982,0.002,62.58,-14.44,-69.07000000000001,-0.29050000000000004,0.3971,0.5840000000000001,0.6455000000000001,-0.007,-0.001,-0.004
2025-11-06 18:37:24.007,298.045,0.042,0.268,0.084,-0.183,-0.982,0.006,62.58,-14.44,-69.07000000000001,-0.2893,0.397,0.5844,0.6457,0.009000000000000001,-0.002,-0.008
2025-11-06 18:37:24.007,298.05,0.041,0.266,0.089,-0.198,-0.975,0.008,62.58,-14.44,-69.07000000000001,-0.2874,0.3971,0.5847,0.6462,0.021,-0.008,-0.009000000000000001
2025-11-06 18:37:24.007,298.055,0.054,0.272,0.092,-0.209,-0.965,0.009000000000000001,62.050000000000004,-14.93,-68.66,-0.2852,0.39740000000000003,0.5849,0.6469,0.029,-0.017,-0.009000000000000001
2025-11-06 18:37:24.007,298.06,0.069,0.272,0.09,-0.21,-0.96,0.011,62.050000000000004,-14.93,-68.66,-0.28290000000000004,0.3977,0.5851000000000001,0.6475000000000001,0.027,-0.022,-0.01
2025-11-06 18:37:24.007,298.065,0.08600000000000001,0.272,0.084,-0.20700000000000002,-0.9570000000000001,0.005,62.35,-14.35,-68.60000000000001,-0.2811,0.39790000000000003,0.5852,0.6481,0.021,-0.025,-0.003
2025-11-06 18:37:24.007,298.07,0.09,0.258,0.069,-0.195,-0.9530000000000001,-0.003,62.35,-14.35,-68.60000000000001,-0.28,0.39780000000000004,0.5852,0.6486000000000001,0.007,-0.028,0.005
2025-11-06 18:37:24.007,298.075,0.09,0.242,0.061,-0.189,-0.9540000000000001,-0.004,61.44,-15.08,-68.25,-0.27940000000000004,0.3975,0.5852,0.6491,0.0,-0.027,0.005
2025-11-06 18:37:24.007,298.08,0.09,0.229,0.055,-0.185,-0.9520000000000001,-0.004,61.44,-15.08,-68.25,-0.27890000000000004,0.3972,0.5853,0.6494,-0.004,-0.029,0.005
2025-11-06 18:37:24.008,298.085,0.095,0.23,0.05,-0.186,-0.9560000000000001,-0.003,61.44,-15.08,-68.25,-0.2783,0.397,0.5854,0.6497,-0.003,-0.025,0.003
2025-11-06 18:37:24.008,298.09,0.089,0.23500000000000001,0.047,-0.186,-0.966,-0.009000000000000001,61.64,-15.17,-68.34,-0.278,0.3965,0.5854,0.6501,-0.003,-0.015,0.01
2025-11-06 18:37:24.008,298.095,0.073,0.227,0.04,-0.182,-0.981,-0.006,61.64,-15.17,-68.34,-0.27790000000000004,0.396,0.5855,0.6503,-0.007,0.0,0.006
2025-11-06 18:37:24.008,298.1,0.054,0.20800000000000002,0.037,-0.183,-0.987,-0.001,61.18,-14.64,-68.1,-0.2778,0.3956,0.5858,0.6504,-0.006,0.005,0.0
2025-11-06 18:37:24.008,298.105,0.046,0.184,0.038,-0.188,-0.989,0.003,61.18,-14.64,-68.1,-0.27740000000000004,0.39540000000000003,0.5861000000000001,0.6504,0.0,0.007,-0.003
2025-11-06 18:37:24.008,298.11,0.041,0.169,0.042,-0.188,-0.987,0.0,61.18,-14.64,-68.1,-0.2771,0.3952,0.5863,0.6505000000000001,-0.001,0.005,0.0
2025-11-06 18:37:24.008,298.115,0.043000000000000003,0.154,0.049,-0.189,-0.979,-0.005,61.44,-15.08,-68.54,-0.27690000000000003,0.395,0.5863,0.6507000000000001,0.0,-0.002,0.004
2025-11-06 18:37:24.008,298.12,0.044,0.149,0.053,-0.193,-0.974,-0.009000000000000001,61.44,-15.08,-68.54,-0.2765,0.39480000000000004,0.5861000000000001,0.6512,0.003,-0.007,0.008
2025-11-06 18:37:24.008,298.125,0.044,0.158,0.06,-0.193,-0.972,-0.013000000000000001,60.97,-15.34,-68.25,-0.2761,0.3946,0.5858,0.6517000000000001,0.002,-0.009000000000000001,0.011
2025-11-06 18:37:24.008,298.13,0.042,0.164,0.062,-0.194,-0.975,-0.017,60.97,-15.34,-68.25,-0.2758,0.39430000000000004,0.5854,0.6523,0.003,-0.006,0.014
2025-11-06 18:37:24.008,298.135,0.043000000000000003,0.163,0.063,-0.194,-0.973,-0.017,61.79,-15.46,-68.25,-0.2755,0.3941,0.5851000000000001,0.6529,0.002,-0.008,0.013000000000000001
2025-11-06 18:37:24.008,298.14,0.048,0.153,0.063,-0.191,-0.975,-0.015,61.79,-15.46,-68.25,-0.2752,0.39380000000000004,0.5849,0.6534,0.0,-0.005,0.01
2025-11-06 18:37:24.008,298.145,0.049,0.139,0.061,-0.188,-0.978,-0.014,61.79,-15.46,-68.25,-0.2751,0.3934,0.5849,0.6537000000000001,-0.004,-0.002,0.008
2025-11-06 18:37:24.008,298.15,0.048,0.131,0.063,-0.192,-0.978,-0.012,61.82,-15.84,-67.99,-0.27490000000000003,0.3932,0.5848,0.6539,0.0,-0.003,0.006
2025-11-06 18:37:24.008,298.155,0.049,0.129,0.061,-0.195,-0.976,-0.004,61.82,-15.84,-67.99,-0.27440000000000003,0.39330000000000004,0.5849,0.654,0.002,-0.004,-0.001
2025-11-06 18:37:24.008,298.16,0.058,0.132,0.061,-0.196,-0.968,-0.004,61.38,-15.370000000000001,-67.93,-0.27390000000000003,0.39330000000000004,0.5850000000000001,0.6541,0.002,-0.011,-0.001
2025-11-06 18:37:24.008,298.165,0.065,0.135,0.061,-0.197,-0.964,-0.01,61.38,-15.370000000000001,-67.93,-0.27340000000000003,0.39330000000000004,0.5849,0.6544,0.002,-0.016,0.003
2025-11-06 18:37:24.008,298.17,0.07100000000000001,0.131,0.061,-0.2,-0.967,-0.016,61.38,-15.370000000000001,-67.93,-0.27290000000000003,0.39330000000000004,0.5846,0.6549,0.005,-0.013000000000000001,0.009000000000000001
2025-11-06 18:37:24.008,298.175,0.073,0.12,0.06,-0.201,-0.972,-0.023,61.230000000000004,-15.25,-67.96000000000001,-0.2726,0.3931,0.5842,0.6555000000000001,0.005,-0.007,0.015
2025-11-06 18:37:24.008,298.18,0.068,0.11800000000000001,0.062,-0.20800000000000002,-0.982,-0.026000000000000002,61.230000000000004,-15.25,-67.96000000000001,-0.2722,0.393,0.5837,0.6562,0.01,0.002,0.017
2025-11-06 18:37:24.008,298.185,0.065,0.128,0.063,-0.219,-0.989,-0.031,61.26,-15.200000000000001,-68.31,-0.2716,0.3931,0.5829,0.6571,0.019,0.009000000000000001,0.02
2025-11-06 18:37:24.008,298.19,0.062,0.139,0.061,-0.222,-0.99,-0.027,61.26,-15.200000000000001,-68.31,-0.27090000000000003,0.39330000000000004,0.5823,0.6578,0.021,0.01,0.015
2025-11-06 18:37:24.008,298.195,0.056,0.147,0.056,-0.226,-0.988,-0.024,61.35,-15.05,-68.1,-0.2701,0.3936,0.5817,0.6584,0.023,0.009000000000000001,0.011
2025-11-06 18:37:24.008,298.2,0.046,0.156,0.05,-0.229,-0.988,-0.027,61.35,-15.05,-68.1,-0.26940000000000003,0.39380000000000004,0.5810000000000001,0.6592,0.023,0.009000000000000001,0.013000000000000001
2025-11-06 18:37:24.008,298.205,0.02,0.167,0.039,-0.23,-0.996,-0.034,61.35,-15.05,-68.1,-0.26880000000000004,0.39380000000000004,0.5803,0.6601,0.023,0.018000000000000002,0.018000000000000002
2025-11-06 18:37:24.008,298.21,0.002,0.169,0.032,-0.232,-1.0010000000000001,-0.041,61.56,-15.11,-67.72,-0.2682,0.3936,0.5795,0.6612,0.023,0.023,0.023
2025-11-06 18:37:24.008,298.215,-0.024,0.176,0.028,-0.229,-1.012,-0.052000000000000005,61.56,-15.11,-67.72,-0.2677,0.3929,0.5786,0.6625,0.019,0.034,0.032
2025-11-06 18:37:24.008,298.22,-0.046,0.17300000000000001,0.029,-0.233,-1.016,-0.06,61.79,-14.93,-68.13,-0.26730000000000004,0.3922,0.5776,0.664,0.021,0.039,0.036000000000000004
2025-11-06 18:37:24.008,298.225,-0.063,0.165,0.027,-0.24,-1.008,-0.06,61.79,-14.93,-68.13,-0.2669,0.39180000000000004,0.5764,0.6655,0.027,0.032,0.032
2025-11-06 18:37:24.008,298.23,-0.07100000000000001,0.167,0.028,-0.247,-1.0030000000000001,-0.058,61.79,-14.93,-68.13,-0.26630000000000004,0.39180000000000004,0.5751000000000001,0.6668000000000001,0.032,0.027,0.027
2025-11-06 18:37:24.008,298.235,-0.079,0.17400000000000002,0.031,-0.25,-0.998,-0.058,61.7,-15.14,-68.13,-0.26580000000000004,0.392,0.5739000000000001,0.668,0.032,0.022,0.024
2025-11-06 18:37:24.008,298.24,-0.08700000000000001,0.17200000000000001,0.035,-0.246,-0.991,-0.055,61.7,-15.14,-68.13,-0.26530000000000004,0.3921,0.5728,0.6691,0.026000000000000002,0.016,0.019
2025-11-06 18:37:24.008,298.245,-0.093,0.161,0.045,-0.24,-0.989,-0.044,61.61,-15.69,-68.45,-0.2649,0.39230000000000004,0.5721,0.6697000000000001,0.018000000000000002,0.015,0.007
2025-11-06 18:37:24.008,298.25,-0.093,0.131,0.056,-0.232,-0.979,-0.026000000000000002,61.61,-15.69,-68.45,-0.2647,0.39280000000000004,0.5719000000000001,0.6696000000000001,0.009000000000000001,0.004,-0.011
2025-11-06 18:37:24.008,298.255,-0.091,0.113,0.067,-0.233,-0.975,-0.011,61.67,-15.11,-68.16,-0.2646,0.39390000000000003,0.5719000000000001,0.669,0.009000000000000001,0.001,-0.024
2025-11-06 18:37:24.010,298.26,-0.083,0.092,0.069,-0.215,-0.973,0.002,61.67,-15.11,-68.16,-0.2647,0.3947,0.5726,0.6679,-0.008,0.0,-0.035
2025-11-06 18:37:24.010,298.265,-0.074,0.081,0.074,-0.202,-0.981,0.005,61.67,-15.11,-68.16,-0.2651,0.39490000000000003,0.5737,0.6667000000000001,-0.02,0.007,-0.035
2025-11-06 18:37:24.010,298.27,-0.06,0.078,0.074,-0.20700000000000002,-0.976,-0.006,62.11,-14.93,-68.28,-0.26530000000000004,0.395,0.5743,0.666,-0.014,0.001,-0.022
2025-11-06 18:37:24.010,298.275,-0.063,0.105,0.067,-0.20500000000000002,-0.976,-0.019,62.11,-14.93,-68.28,-0.2654,0.3946,0.5747,0.6658000000000001,-0.015,0.001,-0.007
2025-11-06 18:37:24.010,298.28,-0.066,0.128,0.058,-0.22,-0.97,-0.03,61.910000000000004,-15.14,-67.81,-0.2652,0.39440000000000003,0.5746,0.6662,0.0,-0.004,0.001
2025-11-06 18:37:24.010,298.285,-0.065,0.165,0.052000000000000005,-0.214,-0.965,-0.027,61.910000000000004,-15.14,-67.81,-0.265,0.3941,0.5746,0.6664,-0.005,-0.009000000000000001,-0.001
2025-11-06 18:37:24.010,298.29,-0.065,0.191,0.045,-0.226,-0.9590000000000001,-0.026000000000000002,61.910000000000004,-15.14,-67.81,-0.2645,0.3941,0.5745,0.6667000000000001,0.005,-0.015,-0.003
2025-11-06 18:37:24.010,298.295,-0.089,0.215,0.035,-0.232,-0.975,-0.023,61.410000000000004,-15.25,-67.96000000000001,-0.264,0.3942,0.5744,0.6669,0.009000000000000001,0.001,-0.006
2025-11-06 18:37:24.010,298.3,-0.112,0.212,0.028,-0.23900000000000002,-0.98,-0.021,61.410000000000004,-15.25,-67.96000000000001,-0.26330000000000003,0.3945,0.5742,0.6672,0.016,0.006,-0.008
2025-11-06 18:37:24.010,298.305,-0.134,0.20700000000000002,0.021,-0.234,-0.989,-0.014,61.99,-15.31,-67.81,-0.2629,0.3947,0.5742,0.6672,0.01,0.015,-0.014
2025-11-06 18:37:24.010,298.31,-0.154,0.197,0.009000000000000001,-0.231,-0.988,-0.005,61.99,-15.31,-67.81,-0.2627,0.395,0.5745,0.6669,0.006,0.014,-0.022
2025-11-06 18:37:24.010,298.315,-0.17,0.189,0.001,-0.22,-0.998,0.003,61.940000000000005,-15.4,-67.72,-0.26280000000000003,0.3952,0.5752,0.6662,-0.003,0.024,-0.03
2025-11-06 18:37:24.010,298.32,-0.17500000000000002,0.19,-0.007,-0.222,-0.994,0.004,61.940000000000005,-15.4,-67.72,-0.26280000000000003,0.39530000000000004,0.5757,0.6656000000000001,-0.001,0.02,-0.028
2025-11-06 18:37:24.010,298.325,-0.17,0.20700000000000002,-0.013000000000000001,-0.223,-0.992,-0.005,61.940000000000005,-15.4,-67.72,-0.2627,0.39530000000000004,0.5761000000000001,0.6653,0.0,0.017,-0.018000000000000002
2025-11-06 18:37:24.010,298.33,-0.166,0.22,-0.016,-0.231,-0.983,-0.016,61.67,-15.280000000000001,-67.78,-0.2624,0.3951,0.5760000000000001,0.6656000000000001,0.008,0.009000000000000001,-0.007
2025-11-06 18:37:24.010,298.335,-0.16,0.227,-0.021,-0.245,-0.977,-0.036000000000000004,61.67,-15.280000000000001,-67.78,-0.2616,0.3947,0.5754,0.6667000000000001,0.02,0.003,0.011
2025-11-06 18:37:24.010,298.34,-0.167,0.229,-0.023,-0.234,-0.972,-0.055,61.47,-15.280000000000001,-68.22,-0.2612,0.3936,0.5746,0.6682,0.008,0.0,0.026000000000000002
2025-11-06 18:37:24.010,298.345,-0.169,0.209,-0.025,-0.229,-0.973,-0.063,61.47,-15.280000000000001,-68.22,-0.2611,0.3924,0.5738,0.6697000000000001,0.003,0.0,0.031
2025-11-06 18:37:24.010,298.35,-0.17,0.192,-0.024,-0.228,-0.977,-0.069,61.44,-14.870000000000001,-67.78,-0.261,0.3911,0.5729000000000001,0.6712,0.002,0.003,0.032
2025-11-06 18:37:24.010,298.355,-0.17,0.17500000000000002,-0.024,-0.219,-0.981,-0.077,61.44,-14.870000000000001,-67.78,-0.26130000000000003,0.3894,0.5721,0.6728000000000001,-0.006,0.007,0.036000000000000004
2025-11-06 18:37:24.010,298.36,-0.17500000000000002,0.158,-0.02,-0.221,-0.996,-0.088,61.44,-14.870000000000001,-67.78,-0.2616,0.38770000000000004,0.5711,0.6744,-0.003,0.022,0.042
2025-11-06 18:37:24.010,298.365,-0.186,0.128,-0.007,-0.233,-1.0,-0.089,63.08,-15.02,-67.84,-0.2617,0.3865,0.5700000000000001,0.676,0.009000000000000001,0.027,0.038
2025-11-06 18:37:24.010,298.37,-0.188,0.10300000000000001,0.006,-0.244,-0.996,-0.08600000000000001,63.08,-15.02,-67.84,-0.2617,0.386,0.5687,0.6774,0.019,0.023,0.032
2025-11-06 18:37:24.010,298.375,-0.19,0.081,0.028,-0.23800000000000002,-0.994,-0.088,61.85,-14.99,-68.28,-0.2617,0.38530000000000003,0.5675,0.6788000000000001,0.012,0.021,0.03
2025-11-06 18:37:24.010,298.38,-0.196,0.049,0.048,-0.23500000000000001,-1.0050000000000001,-0.075,61.85,-14.99,-68.28,-0.2617,0.3849,0.5669000000000001,0.6795,0.009000000000000001,0.033,0.014
2025-11-06 18:37:24.010,298.385,-0.20500000000000002,-0.003,0.08600000000000001,-0.242,-0.999,-0.058,61.85,-14.99,-68.28,-0.2617,0.3854,0.5663,0.6798000000000001,0.015,0.027,-0.003
2025-11-06 18:37:24.010,298.39,-0.198,-0.013000000000000001,0.109,-0.258,-0.981,-0.041,62.52,-15.55,-68.31,-0.26130000000000003,0.387,0.5656,0.6796,0.028,0.01,-0.019
2025-11-06 18:37:24.010,298.395,-0.182,-0.015,0.129,-0.263,-0.96,-0.03,62.52,-15.55,-68.31,-0.2607,0.38920000000000005,0.5649000000000001,0.6792,0.03,-0.01,-0.028
2025-11-06 18:37:24.010,298.4,-0.179,-0.013000000000000001,0.14400000000000002,-0.26,-0.9450000000000001,-0.032,61.67,-15.55,-68.22,-0.2601,0.3911,0.5643,0.6789000000000001,0.023,-0.024,-0.025
2025-11-06 18:37:24.010,298.405,-0.179,-0.015,0.151,-0.279,-0.922,-0.033,61.67,-15.55,-68.22,-0.2589,0.3935,0.5631,0.6789000000000001,0.037,-0.046,-0.022
2025-11-06 18:37:24.010,298.41,-0.181,0.01,0.147,-0.26,-0.923,-0.04,62.17,-15.34,-68.51,-0.25830000000000003,0.39490000000000003,0.5623,0.679,0.015,-0.044,-0.014
2025-11-06 18:37:24.010,298.415,-0.18,0.042,0.139,-0.251,-0.922,-0.041,62.17,-15.34,-68.51,-0.2579,0.39580000000000004,0.5617,0.6791,0.004,-0.044,-0.013000000000000001
2025-11-06 18:37:24.010,298.42,-0.17500000000000002,0.079,0.127,-0.259,-0.914,-0.052000000000000005,62.17,-15.34,-68.51,-0.2571,0.3965,0.5609000000000001,0.6797000000000001,0.009000000000000001,-0.052000000000000005,-0.003
2025-11-06 18:37:24.010,298.425,-0.176,0.127,0.111,-0.254,-0.916,-0.059000000000000004,61.59,-15.280000000000001,-68.48,-0.2564,0.3965,0.5601,0.6805,0.002,-0.049,0.002
2025-11-06 18:37:24.010,298.43,-0.187,0.188,0.079,-0.262,-0.91,-0.077,61.59,-15.280000000000001,-68.48,-0.25520000000000004,0.3961,0.559,0.6821,0.008,-0.055,0.017
2025-11-06 18:37:24.010,298.435,-0.198,0.221,0.058,-0.258,-0.906,-0.081,61.88,-15.4,-68.92,-0.2543,0.39530000000000004,0.5581,0.6837000000000001,0.002,-0.058,0.018000000000000002
2025-11-06 18:37:24.010,298.44,-0.20600000000000002,0.252,0.034,-0.257,-0.91,-0.085,61.88,-15.4,-68.92,-0.2534,0.39430000000000004,0.5572,0.6853,0.0,-0.053,0.018000000000000002
2025-11-06 18:37:24.010,298.445,-0.216,0.28,0.014,-0.262,-0.918,-0.08,61.88,-15.4,-68.92,-0.25270000000000004,0.3937,0.5564,0.6865,0.003,-0.044,0.01
2025-11-06 18:37:24.010,298.45,-0.222,0.307,-0.007,-0.268,-0.934,-0.073,61.82,-14.9,-68.78,-0.2521,0.3934,0.5558000000000001,0.6874,0.007,-0.028,0.001
2025-11-06 18:37:24.010,298.455,-0.229,0.327,-0.032,-0.28500000000000003,-0.9430000000000001,-0.068,61.82,-14.9,-68.78,-0.2515,0.39380000000000004,0.5551,0.6880000000000001,0.023,-0.018000000000000002,-0.004
2025-11-06 18:37:24.010,298.46,-0.229,0.323,-0.051000000000000004,-0.278,-0.9590000000000001,-0.059000000000000004,61.79,-15.4,-69.01,-0.25120000000000003,0.3941,0.5547000000000001,0.6882,0.014,-0.002,-0.013000000000000001
2025-11-06 18:37:24.010,298.465,-0.223,0.3,-0.067,-0.274,-0.97,-0.038,61.79,-15.4,-69.01,-0.2515,0.3951,0.5549000000000001,0.6875,0.01,0.008,-0.034
2025-11-06 18:37:24.010,298.47,-0.20700000000000002,0.269,-0.079,-0.257,-0.968,-0.016,61.910000000000004,-15.25,-68.31,-0.2525,0.39630000000000004,0.5556,0.6858000000000001,-0.006,0.006,-0.053
2025-11-06 18:37:24.010,298.475,-0.153,0.265,-0.093,-0.25,-0.96,-0.013000000000000001,61.910000000000004,-15.25,-68.31,-0.2535,0.39740000000000003,0.5565,0.684,-0.012,-0.002,-0.052000000000000005
2025-11-06 18:37:24.010,298.48,-0.125,0.28200000000000003,-0.098,-0.23600000000000002,-0.966,-0.027,61.910000000000004,-15.25,-68.31,-0.25470000000000004,0.3975,0.5574,0.6828000000000001,-0.022,0.003,-0.035
2025-11-06 18:37:24.010,298.485,-0.108,0.294,-0.10200000000000001,-0.234,-0.97,-0.044,62.050000000000004,-15.66,-69.33,-0.2556,0.397,0.5582,0.6822,-0.022,0.006,-0.017
2025-11-06 18:37:24.010,298.49,-0.105,0.316,-0.106,-0.231,-0.977,-0.056,62.050000000000004,-15.66,-69.33,-0.2565,0.39590000000000003,0.5587,0.682,-0.022,0.012,-0.005
2025-11-06 18:37:24.010,298.495,-0.094,0.336,-0.106,-0.224,-0.982,-0.084,61.85,-15.46,-68.78,-0.2574,0.394,0.5589000000000001,0.6826,-0.025,0.016,0.02
2025-11-06 18:37:24.010,298.5,-0.078,0.34700000000000003,-0.10400000000000001,-0.23,-0.987,-0.093,61.85,-15.46,-68.78,-0.2581,0.3921,0.5588000000000001,0.6835,-0.017,0.021,0.026000000000000002
2025-11-06 18:37:24.010,298.505,-0.063,0.342,-0.1,-0.23600000000000002,-0.992,-0.091,61.85,-15.46,-68.78,-0.2584,0.3905,0.5588000000000001,0.6843,-0.009000000000000001,0.025,0.021
2025-11-06 18:37:24.010,298.51,-0.048,0.329,-0.089,-0.194,-0.999,-0.083,62.08,-14.61,-67.49,-0.2599,0.3881,0.5598000000000001,0.6843,-0.048,0.032,0.011
2025-11-06 18:37:24.010,298.515,-0.035,0.28200000000000003,-0.078,-0.228,-1.0010000000000001,-0.074,62.08,-14.61,-67.49,-0.2602,0.3871,0.5603,0.6844,-0.01,0.032,0.001
2025-11-06 18:37:24.010,298.52,-0.027,0.226,-0.057,-0.233,-0.992,-0.041,63.190000000000005,-14.64,-68.57000000000001,-0.26,0.3869,0.5615,0.6836,-0.003,0.023,-0.028
2025-11-06 18:37:24.010,298.525,-0.035,0.20400000000000001,-0.045,-0.228,-0.987,-0.012,63.190000000000005,-14.64,-68.57000000000001,-0.2595,0.3871,0.5633,0.6821,-0.007,0.018000000000000002,-0.053
2025-11-06 18:37:24.010,298.53,-0.036000000000000004,0.189,-0.029,-0.159,-1.002,-0.009000000000000001,61.940000000000005,-14.96,-68.48,-0.2615,0.3861,0.5660000000000001,0.6797000000000001,-0.07100000000000001,0.031,-0.052000000000000005
2025-11-06 18:37:24.010,298.535,-0.036000000000000004,0.117,-0.013000000000000001,-0.23500000000000001,-1.004,-0.021,61.940000000000005,-14.96,-68.48,-0.2607,0.38630000000000003,0.5673,0.6789000000000001,0.006,0.032,-0.036000000000000004
2025-11-06 18:37:24.010,298.54,-0.058,0.101,-0.003,-0.234,-1.0010000000000001,-0.027,61.940000000000005,-14.96,-68.48,-0.26,0.38630000000000003,0.5682,0.6783,0.006,0.029,-0.027
2025-11-06 18:37:24.011,298.545,-0.082,0.111,-0.003,-0.252,-0.994,-0.022,61.97,-14.870000000000001,-68.48,-0.2585,0.38670000000000004,0.5691,0.678,0.022,0.022,-0.031
2025-11-06 18:37:24.011,298.55,-0.096,0.131,-0.004,-0.243,-0.985,-0.034,61.97,-14.870000000000001,-68.48,-0.2576,0.38670000000000004,0.5695,0.6779000000000001,0.013000000000000001,0.013000000000000001,-0.017
2025-11-06 18:37:24.011,298.555,-0.107,0.15,-0.009000000000000001,-0.256,-0.971,-0.037,62.050000000000004,-14.790000000000001,-67.96000000000001,-0.2561,0.38680000000000003,0.5697,0.6783,0.023,0.0,-0.013000000000000001
2025-11-06 18:37:24.011,298.56,-0.115,0.183,-0.02,-0.097,-0.9550000000000001,-0.067,62.050000000000004,-14.790000000000001,-67.96000000000001,-0.2629,0.38480000000000003,0.5699000000000001,0.6766,-0.129,-0.016,0.014
2025-11-06 18:37:24.011,298.565,-0.167,0.064,-0.046,-0.303,-1.0010000000000001,-0.094,62.050000000000004,-14.790000000000001,-67.96000000000001,-0.2607,0.3851,0.5680000000000001,0.6789000000000001,0.077,0.028,0.037
2025-11-06 18:37:24.011,298.57,-0.179,0.083,-0.046,-0.267,-0.981,-0.07100000000000001,61.53,-14.61,-68.02,-0.2595,0.3851,0.5672,0.6801,0.038,0.01,0.011
2025-11-06 18:37:24.011,298.575,-0.197,0.056,-0.06,-0.231,-0.978,-0.099,61.53,-14.61,-68.02,-0.2602,0.38430000000000003,0.5658000000000001,0.6813,0.001,0.006,0.036000000000000004
2025-11-06 18:37:24.011,298.58,-0.18,0.125,-0.07100000000000001,-0.23600000000000002,-0.967,0.02,62.2,-15.17,-68.07000000000001,-0.2587,0.38520000000000004,0.5680000000000001,0.6796,0.007,-0.003,-0.08
2025-11-06 18:37:24.011,298.585,-0.16,0.145,-0.062,-0.225,-0.966,-0.047,62.2,-15.17,-68.07000000000001,-0.2587,0.3849,0.5683,0.6796,-0.003,-0.004,-0.01
2025-11-06 18:37:24.011,298.59,-0.169,0.127,-0.058,-0.23,-0.964,-0.042,62.11,-14.93,-68.25,-0.2584,0.38470000000000004,0.5685,0.6795,0.0,-0.007,-0.015
2025-11-06 18:37:24.011,298.595,-0.164,0.16,-0.062,-0.217,-0.966,-0.045,62.11,-14.93,-68.25,-0.25880000000000003,0.38430000000000003,0.5688,0.6794,-0.011,-0.005,-0.011
2025-11-06 18:37:24.011,298.6,-0.167,0.186,-0.07100000000000001,-0.20500000000000002,-0.975,-0.06,62.11,-14.93,-68.25,-0.25980000000000003,0.3835,0.5688,0.6795,-0.02,0.003,0.002
2025-11-06 18:37:24.011,298.605,-0.162,0.203,-0.068,-0.195,-0.971,-0.064,61.82,-14.9,-68.4,-0.2611,0.3825,0.5688,0.6795,-0.027,-0.001,0.005
2025-11-06 18:37:24.011,298.61,-0.153,0.226,-0.067,-0.201,-0.964,-0.061,61.82,-14.9,-68.4,-0.2619,0.3816,0.5689000000000001,0.6796,-0.02,-0.008,0.0
2025-11-06 18:37:24.011,298.615,-0.149,0.249,-0.065,-0.21,-0.965,-0.064,61.85,-14.41,-68.86,-0.2622,0.3808,0.5689000000000001,0.68,-0.009000000000000001,-0.008,0.002
2025-11-06 18:37:24.011,298.62,-0.14300000000000002,0.269,-0.063,-0.215,-0.966,-0.066,61.85,-14.41,-68.86,-0.26230000000000003,0.3801,0.5688,0.6805,-0.003,-0.007,0.002
2025-11-06 18:37:24.011,298.625,-0.145,0.277,-0.057,-0.22,-0.973,-0.07100000000000001,61.85,-14.41,-68.86,-0.2622,0.3794,0.5685,0.6811,0.001,0.0,0.006
2025-11-06 18:37:24.011,298.63,-0.16,0.269,-0.045,-0.233,-0.973,-0.07100000000000001,61.32,-14.96,-67.75,-0.2616,0.379,0.5682,0.6819000000000001,0.013000000000000001,0.0,0.004
2025-11-06 18:37:24.011,298.635,-0.179,0.245,-0.037,-0.229,-0.965,-0.07100000000000001,61.32,-14.96,-67.75,-0.2611,0.3786,0.5678000000000001,0.6826,0.009000000000000001,-0.007,0.003
2025-11-06 18:37:24.011,298.64,-0.185,0.218,-0.026000000000000002,-0.24,-0.9460000000000001,-0.07100000000000001,62.230000000000004,-15.43,-67.99,-0.2601,0.3785,0.5672,0.6835,0.018000000000000002,-0.026000000000000002,0.001
2025-11-06 18:37:24.011,298.645,-0.189,0.199,-0.013000000000000001,-0.247,-0.93,-0.073,62.230000000000004,-15.43,-67.99,-0.25880000000000003,0.3786,0.5664,0.6846,0.023,-0.04,0.002
2025-11-06 18:37:24.013,298.65,-0.19,0.168,-0.005,-0.24,-0.9380000000000001,-0.079,63.11,-15.43,-67.96000000000001,-0.258,0.3784,0.5657,0.6856,0.013000000000000001,-0.032,0.006
2025-11-06 18:37:24.013,298.655,-0.212,0.139,-0.002,-0.242,-0.9440000000000001,-0.084,63.11,-15.43,-67.96000000000001,-0.25730000000000003,0.3783,0.5648000000000001,0.6867000000000001,0.014,-0.026000000000000002,0.009000000000000001
2025-11-06 18:37:24.013,298.66,-0.225,0.127,0.002,-0.254,-0.9420000000000001,-0.08,63.11,-15.43,-67.96000000000001,-0.2564,0.3785,0.5639000000000001,0.6877,0.023,-0.027,0.003
2025-11-06 18:37:24.013,298.665,-0.23600000000000002,0.11800000000000001,0.003,-0.256,-0.935,-0.081,62.550000000000004,-14.73,-67.81,-0.2553,0.3788,0.5629000000000001,0.6887,0.023,-0.033,0.002
2025-11-06 18:37:24.013,298.67,-0.263,0.127,0.001,-0.265,-0.932,-0.085,62.550000000000004,-14.73,-67.81,-0.2541,0.3791,0.5617,0.6899000000000001,0.029,-0.035,0.005
2025-11-06 18:37:24.013,298.675,-0.295,0.145,-0.015,-0.258,-0.9560000000000001,-0.09,64.42,-14.46,-68.95,-0.2535,0.3789,0.5608000000000001,0.6910000000000001,0.019,-0.01,0.007
2025-11-06 18:37:24.013,298.68,-0.338,0.154,-0.029,-0.25,-0.9510000000000001,-0.091,64.42,-14.46,-68.95,-0.25320000000000004,0.3786,0.5599000000000001,0.6920000000000001,0.01,-0.015,0.005
2025-11-06 18:37:24.013,298.685,-0.36,0.171,-0.04,-0.248,-0.9580000000000001,-0.092,62.050000000000004,-14.23,-68.43,-0.253,0.3781,0.5592,0.6929000000000001,0.007,-0.008,0.004
2025-11-06 18:37:24.013,298.69,-0.395,0.179,-0.053,-0.23500000000000001,-0.966,-0.085,62.050000000000004,-14.23,-68.43,-0.2534,0.3775,0.5588000000000001,0.6934,-0.004,0.0,-0.003
2025-11-06 18:37:24.013,298.695,-0.42,0.18,-0.056,-0.255,-0.9590000000000001,-0.073,62.050000000000004,-14.23,-68.43,-0.25320000000000004,0.37770000000000004,0.5583,0.6937,0.014,-0.006,-0.017
2025-11-06 18:37:24.013,298.7,-0.427,0.202,-0.073,-0.263,-0.965,-0.065,62.2,-15.25,-69.07000000000001,-0.2529,0.3783,0.558,0.6938000000000001,0.02,0.0,-0.025
2025-11-06 18:37:24.013,298.705,-0.428,0.24,-0.084,-0.269,-0.975,-0.067,62.2,-15.25,-69.07000000000001,-0.2525,0.3788,0.5576,0.6940000000000001,0.025,0.009000000000000001,-0.023
2025-11-06 18:37:24.013,298.71,-0.439,0.28300000000000003,-0.1,-0.247,-0.992,-0.073,62.17,-14.14,-69.21000000000001,-0.2529,0.3785,0.5575,0.6941,0.004,0.026000000000000002,-0.017
2025-11-06 18:37:24.013,298.715,-0.466,0.304,-0.124,-0.23600000000000002,-1.0010000000000001,-0.076,62.17,-14.14,-69.21000000000001,-0.25370000000000004,0.3778,0.5575,0.6941,-0.005,0.035,-0.015
2025-11-06 18:37:24.013,298.72,-0.48,0.34,-0.151,-0.223,-1.0130000000000001,-0.084,62.17,-14.14,-69.21000000000001,-0.255,0.3766,0.5577,0.6942,-0.015,0.047,-0.009000000000000001
2025-11-06 18:37:24.013,298.725,-0.482,0.378,-0.17,-0.213,-1.002,-0.095,62.7,-14.06,-69.01,-0.2564,0.3749,0.5577,0.6946,-0.022,0.035,0.0
2025-11-06 18:37:24.013,298.73,-0.47200000000000003,0.39,-0.187,-0.177,-0.991,-0.106,62.7,-14.06,-69.01,-0.2589,0.3724,0.5579000000000001,0.6949000000000001,-0.053,0.022,0.007
2025-11-06 18:37:24.013,298.735,-0.468,0.396,-0.197,-0.188,-0.978,-0.121,62.99,-14.0,-68.89,-0.26080000000000003,0.37,0.5576,0.6957,-0.036000000000000004,0.009000000000000001,0.017
2025-11-06 18:37:24.013,298.74,-0.461,0.405,-0.198,-0.161,-0.986,-0.134,62.99,-14.0,-68.89,-0.2635,0.3669,0.5573,0.6965,-0.057,0.016,0.026000000000000002
2025-11-06 18:37:24.013,298.745,-0.434,0.391,-0.187,-0.163,-0.974,-0.139,63.54,-14.17,-69.21000000000001,-0.26580000000000004,0.36410000000000003,0.5569000000000001,0.6974,-0.05,0.003,0.026000000000000002
2025-11-06 18:37:24.013,298.75,-0.41400000000000003,0.381,-0.17200000000000001,-0.163,-0.971,-0.138,63.54,-14.17,-69.21000000000001,-0.26780000000000004,0.36150000000000004,0.5567,0.6983,-0.044,0.0,0.02
2025-11-06 18:37:24.013,298.755,-0.404,0.37,-0.165,-0.169,-0.962,-0.152,63.54,-14.17,-69.21000000000001,-0.2697,0.3592,0.5558000000000001,0.6994,-0.034,-0.009000000000000001,0.029
2025-11-06 18:37:24.013,298.76,-0.40700000000000003,0.354,-0.165,-0.169,-0.965,-0.166,63.370000000000005,-14.06,-69.51,-0.2717,0.3569,0.5545,0.7008,-0.03,-0.005,0.037
2025-11-06 18:37:24.013,298.765,-0.41200000000000003,0.325,-0.155,-0.17400000000000002,-0.9550000000000001,-0.159,63.370000000000005,-14.06,-69.51,-0.2732,0.3551,0.5535,0.7020000000000001,-0.022,-0.016,0.025
2025-11-06 18:37:24.015,298.77,-0.399,0.28200000000000003,-0.151,-0.17300000000000001,-0.9460000000000001,-0.156,63.13,-13.620000000000001,-69.07000000000001,-0.27440000000000003,0.35350000000000004,0.5526,0.7030000000000001,-0.02,-0.024,0.018000000000000002
2025-11-06 18:37:24.015,298.775,-0.382,0.244,-0.131,-0.198,-0.919,-0.146,63.13,-13.620000000000001,-69.07000000000001,-0.2748,0.3531,0.5513,0.7040000000000001,0.004,-0.051000000000000004,0.004
2025-11-06 18:37:24.016,298.78,-0.357,0.197,-0.129,-0.192,-0.92,-0.147,63.13,-13.620000000000001,-69.07000000000001,-0.2752,0.3526,0.5503,0.7049000000000001,-0.002,-0.05,0.003
2025-11-06 18:37:24.016,298.785,-0.342,0.16,-0.14400000000000002,-0.178,-0.927,-0.15,63.160000000000004,-13.620000000000001,-69.39,-0.27590000000000003,0.3516,0.5498000000000001,0.7056,-0.014,-0.042,0.002
2025-11-06 18:37:24.016,298.79,-0.338,0.10300000000000001,-0.17300000000000001,-0.179,-0.9410000000000001,-0.14300000000000002,63.160000000000004,-13.620000000000001,-69.39,-0.2765,0.3507,0.5496,0.7059000000000001,-0.011,-0.028,-0.005
2025-11-06 18:37:24.016,298.795,-0.341,0.08600000000000001,-0.194,-0.191,-0.9590000000000001,-0.129,62.78,-13.56,-69.33,-0.27640000000000003,0.3503,0.5498000000000001,0.7060000000000001,0.0,-0.01,-0.02
2025-11-06 18:37:24.016,298.8,-0.363,0.076,-0.219,-0.2,-0.992,-0.11800000000000001,62.78,-13.56,-69.33,-0.276,0.35000000000000003,0.5506,0.7057,0.01,0.022,-0.03
2025-11-06 18:37:24.016,298.805,-0.397,0.08600000000000001,-0.23600000000000002,-0.193,-1.0150000000000001,-0.11,63.190000000000005,-13.88,-70.33,-0.2757,0.34940000000000004,0.5518000000000001,0.7052,0.004,0.044,-0.036000000000000004
2025-11-06 18:37:24.016,298.81,-0.445,0.075,-0.266,-0.187,-1.041,-0.108,63.190000000000005,-13.88,-70.33,-0.2756,0.3486,0.5531,0.7046,0.0,0.07,-0.036000000000000004
2025-11-06 18:37:24.016,298.815,-0.47100000000000003,0.06,-0.275,-0.18,-1.05,-0.114,63.190000000000005,-13.88,-70.33,-0.27590000000000003,0.34750000000000003,0.5542,0.7041000000000001,-0.003,0.078,-0.029
2025-11-06 18:37:24.016,298.82,-0.483,0.05,-0.28,-0.2,-1.054,-0.116,63.11,-13.3,-69.8,-0.2757,0.34700000000000003,0.555,0.7038,0.017,0.082,-0.026000000000000002
2025-11-06 18:37:24.016,298.825,-0.487,0.053,-0.274,-0.20600000000000002,-1.052,-0.11900000000000001,63.11,-13.3,-69.8,-0.27540000000000003,0.3466,0.5555,0.7038,0.024,0.079,-0.023
2025-11-06 18:37:24.016,298.83,-0.502,0.053,-0.273,-0.19,-1.069,-0.129,63.95,-13.32,-70.24,-0.27590000000000003,0.3458,0.5559000000000001,0.7037,0.01,0.095,-0.013000000000000001
2025-11-06 18:37:24.016,298.835,-0.528,0.049,-0.266,-0.177,-1.071,-0.145,63.95,-13.32,-70.24,-0.2772,0.3448,0.5558000000000001,0.7037,0.0,0.097,0.001
2025-11-06 18:37:24.016,298.84,-0.554,0.064,-0.259,-0.16,-1.065,-0.165,63.95,-13.32,-70.24,-0.2793,0.34340000000000004,0.5552,0.7040000000000001,-0.013000000000000001,0.091,0.019
2025-11-06 18:37:24.016,298.845,-0.5760000000000001,0.09,-0.252,-0.154,-1.048,-0.193,63.34,-13.06,-69.8,-0.28200000000000003,0.3418,0.5537000000000001,0.7049000000000001,-0.015,0.075,0.041
2025-11-06 18:37:24.016,298.85,-0.595,0.114,-0.23500000000000001,-0.153,-1.029,-0.217,63.34,-13.06,-69.8,-0.28500000000000003,0.3402,0.5514,0.7063,-0.013000000000000001,0.056,0.059000000000000004
2025-11-06 18:37:24.016,298.855,-0.59,0.11800000000000001,-0.211,-0.166,-0.993,-0.233,63.690000000000005,-13.24,-70.33,-0.2877,0.339,0.5482,0.7082,0.001,0.021,0.067
2025-11-06 18:37:24.016,298.86,-0.583,0.108,-0.197,-0.176,-0.984,-0.245,63.690000000000005,-13.24,-70.33,-0.29000000000000004,0.3382,0.5447000000000001,0.7104,0.011,0.014,0.069
2025-11-06 18:37:24.016,298.865,-0.583,0.062,-0.181,-0.176,-0.968,-0.252,64.86,-13.530000000000001,-71.35000000000001,-0.2924,0.3375,0.5411,0.7125,0.012,0.0,0.068
2025-11-06 18:37:24.016,298.87,-0.5690000000000001,0.01,-0.159,-0.196,-0.9460000000000001,-0.247,64.86,-13.530000000000001,-71.35000000000001,-0.2942,0.3378,0.5372,0.7146,0.03,-0.02,0.054
2025-11-06 18:37:24.016,298.875,-0.53,-0.038,-0.129,-0.219,-0.913,-0.23500000000000001,64.86,-13.530000000000001,-71.35000000000001,-0.2954,0.33940000000000003,0.5331,0.7164,0.049,-0.051000000000000004,0.035
2025-11-06 18:37:24.016,298.88,-0.484,-0.08,-0.111,-0.225,-0.889,-0.214,63.92,-12.89,-70.97,-0.2962,0.3418,0.5295,0.7176,0.049,-0.073,0.009000000000000001
2025-11-06 18:37:24.016,298.885,-0.452,-0.099,-0.109,-0.225,-0.877,-0.20700000000000002,63.92,-12.89,-70.97,-0.2968,0.3441,0.5263,0.7186,0.044,-0.083,-0.001
2025-11-06 18:37:24.017,298.89,-0.422,-0.10200000000000001,-0.11,-0.228,-0.87,-0.20500000000000002,63.95,-12.24,-71.26,-0.2972,0.3466,0.5233,0.7194,0.042,-0.088,-0.005
2025-11-06 18:37:24.017,298.895,-0.41100000000000003,-0.089,-0.115,-0.23600000000000002,-0.873,-0.20700000000000002,63.95,-12.24,-71.26,-0.29760000000000003,0.34900000000000003,0.5203,0.7202000000000001,0.044,-0.083,-0.006
2025-11-06 18:37:24.017,298.9,-0.41000000000000003,-0.095,-0.122,-0.257,-0.865,-0.20400000000000001,63.95,-12.24,-71.26,-0.2979,0.3523,0.517,0.7209,0.059000000000000004,-0.09,-0.012
2025-11-06 18:37:24.017,298.905,-0.41100000000000003,-0.138,-0.124,-0.253,-0.865,-0.193,63.78,-12.13,-71.14,-0.2984,0.3557,0.5141,0.7210000000000001,0.048,-0.088,-0.024
2025-11-06 18:37:24.017,298.91,-0.41000000000000003,-0.166,-0.13,-0.259,-0.874,-0.176,63.78,-12.13,-71.14,-0.2993,0.3598,0.5116,0.7204,0.049,-0.078,-0.04
2025-11-06 18:37:24.017,298.915,-0.419,-0.163,-0.137,-0.247,-0.893,-0.159,64.13,-12.56,-71.41,-0.3009,0.3639,0.51,0.7189,0.032,-0.058,-0.056
2025-11-06 18:37:24.017,298.92,-0.444,-0.152,-0.14400000000000002,-0.241,-0.908,-0.149,64.13,-12.56,-71.41,-0.3028,0.3677,0.5089,0.7169,0.023,-0.044,-0.063
2025-11-06 18:37:24.017,298.925,-0.47100000000000003,-0.117,-0.14200000000000002,-0.241,-0.909,-0.16,63.660000000000004,-12.39,-71.58,-0.3042,0.37060000000000004,0.5077,0.7157,0.02,-0.042,-0.049
2025-11-06 18:37:24.017,298.93,-0.493,-0.075,-0.126,-0.241,-0.905,-0.177,63.660000000000004,-12.39,-71.58,-0.3049,0.37220000000000003,0.5064000000000001,0.7154,0.018000000000000002,-0.046,-0.031
2025-11-06 18:37:24.017,298.935,-0.514,-0.036000000000000004,-0.115,-0.23800000000000002,-0.895,-0.195,63.660000000000004,-12.39,-71.58,-0.3049,0.37270000000000003,0.5051,0.7161000000000001,0.013000000000000001,-0.055,-0.015
2025-11-06 18:37:24.017,298.94,-0.539,0.002,-0.10300000000000001,-0.225,-0.892,-0.201,64.54,-12.450000000000001,-71.64,-0.3052,0.3725,0.504,0.7169,0.0,-0.058,-0.012
2025-11-06 18:37:24.017,298.945,-0.551,0.04,-0.09,-0.215,-0.873,-0.20400000000000001,64.54,-12.450000000000001,-71.64,-0.3054,0.3719,0.5029,0.7179,-0.011,-0.075,-0.012
2025-11-06 18:37:24.017,298.95,-0.543,0.078,-0.089,-0.192,-0.86,-0.217,63.46,-11.72,-71.82000000000001,-0.3058,0.3698,0.5022,0.7193,-0.033,-0.088,-0.003
2025-11-06 18:37:24.017,298.955,-0.54,0.123,-0.1,-0.162,-0.865,-0.234,63.46,-11.72,-71.82000000000001,-0.3064,0.3662,0.5021,0.7209,-0.059000000000000004,-0.083,0.008
2025-11-06 18:37:24.017,298.96,-0.554,0.165,-0.117,-0.153,-0.876,-0.244,63.46,-11.72,-71.82000000000001,-0.30720000000000003,0.36210000000000003,0.502,0.7227,-0.062,-0.07100000000000001,0.012
2025-11-06 18:37:24.017,298.965,-0.592,0.195,-0.146,-0.139,-0.91,-0.257,63.75,-12.56,-72.11,-0.3084,0.35760000000000003,0.5023,0.7242000000000001,-0.07,-0.037,0.019
2025-11-06 18:37:24.017,298.97,-0.627,0.20400000000000001,-0.178,-0.134,-0.9510000000000001,-0.273,63.75,-12.56,-72.11,-0.30970000000000003,0.3528,0.5027,0.7258,-0.067,0.003,0.029
2025-11-06 18:37:24.017,298.975,-0.659,0.203,-0.197,-0.151,-0.979,-0.272,63.89,-11.98,-72.2,-0.311,0.3493,0.5027,0.7269,-0.045,0.031,0.023
2025-11-06 18:37:24.017,298.98,-0.709,0.218,-0.214,-0.157,-1.002,-0.265,63.89,-11.98,-72.2,-0.3123,0.34640000000000004,0.5029,0.7276,-0.033,0.054,0.012
2025-11-06 18:37:24.017,298.985,-0.747,0.257,-0.227,-0.166,-1.0150000000000001,-0.265,65.79,-11.8,-73.51,-0.3133,0.34400000000000003,0.503,0.7282000000000001,-0.02,0.066,0.009000000000000001
2025-11-06 18:37:24.018,298.99,-0.791,0.318,-0.23500000000000001,-0.19,-1.022,-0.272,65.79,-11.8,-73.51,-0.3141,0.3423,0.5024000000000001,0.7291000000000001,0.005,0.074,0.012
2025-11-06 18:37:24.019,298.995,-0.806,0.318,-0.233,-0.181,-1.022,-0.28,65.79,-11.8,-73.51,-0.3149,0.34040000000000004,0.5018,0.73,0.0,0.074,0.016
2025-11-06 18:37:24.019,299.0,-0.806,0.296,-0.227,-0.17500000000000002,-1.0110000000000001,-0.28700000000000003,64.27,-11.42,-73.10000000000001,-0.3159,0.3383,0.501,0.7311000000000001,-0.003,0.064,0.02
2025-11-06 18:37:24.019,299.005,-0.793,0.242,-0.218,-0.156,-0.997,-0.28700000000000003,64.27,-11.42,-73.10000000000001,-0.31720000000000004,0.33590000000000003,0.5006,0.732,-0.019,0.051000000000000004,0.015
2025-11-06 18:37:24.019,299.01,-0.754,0.155,-0.202,-0.157,-0.968,-0.273,64.07000000000001,-11.16,-73.07000000000001,-0.3181,0.33430000000000004,0.5002,0.7326,-0.014,0.023,-0.002
2025-11-06 18:37:24.019,299.015,-0.725,0.093,-0.2,-0.148,-0.96,-0.27,64.07000000000001,-11.16,-73.07000000000001,-0.31920000000000004,0.3326,0.5,0.733,-0.021,0.015,-0.007
2025-11-06 18:37:24.019,299.02,-0.715,0.085,-0.191,-0.14100000000000001,-0.9430000000000001,-0.267,64.22,-11.040000000000001,-73.86,-0.32020000000000004,0.3309,0.4999,0.7334,-0.024,-0.002,-0.012
2025-11-06 18:37:24.019,299.025,-0.725,0.068,-0.192,-0.129,-0.933,-0.253,64.22,-11.040000000000001,-73.86,-0.32120000000000004,0.3291,0.5003000000000001,0.7335,-0.033,-0.012,-0.028
2025-11-06 18:37:24.019,299.03,-0.729,0.04,-0.19,-0.121,-0.915,-0.23800000000000002,64.22,-11.040000000000001,-73.86,-0.322,0.3275,0.5012,0.7333000000000001,-0.037,-0.03,-0.044
2025-11-06 18:37:24.019,299.035,-0.722,0.031,-0.191,-0.081,-0.905,-0.242,64.19,-10.870000000000001,-73.98,-0.3239,0.32480000000000003,0.5024000000000001,0.7328,-0.07,-0.041,-0.04
2025-11-06 18:37:24.019,299.04,-0.732,0.045,-0.189,-0.083,-0.892,-0.254,64.19,-10.870000000000001,-73.98,-0.326,0.32230000000000003,0.5028,0.7327,-0.062,-0.054,-0.03
2025-11-06 18:37:24.019,299.045,-0.747,0.062,-0.186,-0.09,-0.883,-0.262,64.57000000000001,-10.9,-74.18,-0.328,0.3201,0.5027,0.7329,-0.05,-0.063,-0.025
2025-11-06 18:37:24.019,299.05,-0.763,0.065,-0.177,-0.10200000000000001,-0.872,-0.27,64.57000000000001,-10.9,-74.18,-0.3297,0.3184,0.5018,0.7335,-0.034,-0.074,-0.021
2025-11-06 18:37:24.019,299.055,-0.79,0.021,-0.166,-0.098,-0.858,-0.253,64.57000000000001,-10.9,-74.18,-0.3306,0.31670000000000004,0.5016,0.7339,-0.035,-0.08700000000000001,-0.041
2025-11-06 18:37:24.019,299.06,-0.8270000000000001,-0.039,-0.157,-0.075,-0.852,-0.222,64.71000000000001,-10.84,-74.74,-0.3311,0.3145,0.5031,0.7336,-0.054,-0.093,-0.073
2025-11-06 18:37:24.019,299.065,-0.863,-0.089,-0.162,-0.051000000000000004,-0.858,-0.223,64.71000000000001,-10.84,-74.74,-0.33240000000000003,0.3119,0.5047,0.733,-0.07100000000000001,-0.088,-0.07200000000000001
2025-11-06 18:37:24.019,299.07,-0.901,-0.08700000000000001,-0.166,-0.069,-0.867,-0.245,64.48,-10.49,-75.06,-0.33380000000000004,0.31,0.505,0.733,-0.048,-0.08,-0.051000000000000004
2025-11-06 18:37:24.019,299.075,-0.928,-0.066,-0.17200000000000001,-0.076,-0.878,-0.268,64.48,-10.49,-75.06,-0.3357,0.3083,0.5042,0.7333000000000001,-0.038,-0.068,-0.031
2025-11-06 18:37:24.019,299.08,-0.973,-0.055,-0.192,-0.081,-0.891,-0.302,64.95,-9.52,-75.35000000000001,-0.3388,0.307,0.5021,0.734,-0.029,-0.054,-0.003
2025-11-06 18:37:24.019,299.085,-0.997,-0.05,-0.20500000000000002,-0.079,-0.909,-0.34700000000000003,64.95,-9.52,-75.35000000000001,-0.3435,0.3059,0.4984,0.7347,-0.028,-0.033,0.033
2025-11-06 18:37:24.019,299.09,-1.022,-0.059000000000000004,-0.217,-0.081,-0.9410000000000001,-0.387,64.95,-9.52,-75.35000000000001,-0.34890000000000004,0.3049,0.4939,0.7357,-0.022,0.001,0.063
2025-11-06 18:37:24.019,299.095,-1.049,-0.08,-0.227,-0.096,-0.973,-0.389,64.89,-10.34,-75.79,-0.3528,0.304,0.4902,0.7367,-0.005,0.035,0.057
2025-11-06 18:37:24.019,299.1,-1.071,-0.127,-0.229,-0.132,-1.0010000000000001,-0.361,64.89,-10.34,-75.79,-0.3536,0.3037,0.4879,0.7379,0.03,0.066,0.023
2025-11-06 18:37:24.019,299.105,-1.06,-0.187,-0.23,-0.171,-1.016,-0.329,65.09,-9.82,-76.23,-0.35200000000000004,0.3043,0.4867,0.7392000000000001,0.065,0.082,-0.011
2025-11-06 18:37:24.020,299.11,-1.0230000000000001,-0.187,-0.233,-0.194,-1.0210000000000001,-0.321,65.09,-9.82,-76.23,-0.34950000000000003,0.3054,0.4858,0.7406,0.083,0.08700000000000001,-0.019
2025-11-06 18:37:24.020,299.115,-0.984,-0.133,-0.23,-0.215,-1.032,-0.327,65.09,-9.82,-76.23,-0.3468,0.3068,0.4847,0.742,0.097,0.099,-0.014
2025-11-06 18:37:24.020,299.12,-0.9500000000000001,-0.064,-0.216,-0.23900000000000002,-1.0230000000000001,-0.334,64.54,-8.94,-76.79,-0.3436,0.3085,0.48310000000000003,0.7438,0.114,0.091,-0.007
2025-11-06 18:37:24.020,299.125,-0.912,-0.015,-0.187,-0.264,-1.0010000000000001,-0.327,64.54,-8.94,-76.79,-0.3398,0.31070000000000003,0.48140000000000005,0.7457,0.13,0.07100000000000001,-0.015
2025-11-06 18:37:24.020,299.13,-0.892,0.004,-0.164,-0.263,-0.984,-0.303,65.27,-8.68,-76.96000000000001,-0.3361,0.3133,0.4801,0.7471,0.12,0.056,-0.038
2025-11-06 18:37:24.020,299.135,-0.884,0.034,-0.14200000000000002,-0.244,-0.972,-0.277,65.27,-8.68,-76.96000000000001,-0.3336,0.3161,0.4796,0.7474000000000001,0.093,0.044,-0.062
2025-11-06 18:37:24.020,299.14,-0.884,0.08600000000000001,-0.127,-0.202,-0.9590000000000001,-0.243,65.06,-8.36,-76.41,-0.3336,0.31920000000000004,0.47990000000000005,0.7459,0.047,0.03,-0.093
2025-11-06 18:37:24.020,299.145,-0.882,0.17400000000000002,-0.116,-0.184,-0.935,-0.188,65.06,-8.36,-76.41,-0.3347,0.3234,0.4813,0.7427,0.027,0.004,-0.14100000000000001
2025-11-06 18:37:24.020,299.15,-0.904,0.275,-0.12,-0.181,-0.929,-0.194,65.06,-8.36,-76.41,-0.3355,0.3267,0.48250000000000004,0.7401,0.022,-0.003,-0.127
2025-11-06 18:37:24.020,299.155,-0.9400000000000001,0.334,-0.116,-0.171,-0.915,-0.234,65.03,-8.27,-77.43,-0.336,0.328,0.4828,0.7391000000000001,0.011,-0.018000000000000002,-0.084
2025-11-06 18:37:24.020,299.16,-0.996,0.34900000000000003,-0.106,-0.16,-0.911,-0.272,65.03,-8.27,-77.43,-0.33690000000000003,0.32780000000000004,0.48210000000000003,0.7392000000000001,0.0,-0.022,-0.047
2025-11-06 18:37:24.020,299.165,-1.044,0.304,-0.089,-0.123,-0.878,-0.273,65.79,-8.06,-77.22,-0.34040000000000004,0.3276,0.48090000000000005,0.7384000000000001,-0.034,-0.054,-0.048
2025-11-06 18:37:24.020,299.17,-1.066,0.265,-0.094,-0.095,-0.85,-0.257,65.79,-8.06,-77.22,-0.34600000000000003,0.3279,0.4798,0.7365,-0.057,-0.083,-0.065
2025-11-06 18:37:24.020,299.175,-1.074,0.321,-0.108,-0.075,-0.836,-0.303,65.79,-8.06,-77.22,-0.3523,0.3265,0.47740000000000005,0.7356,-0.07,-0.097,-0.025
2025-11-06 18:37:24.020,299.18,-1.094,0.387,-0.125,-0.09,-0.8250000000000001,-0.397,65.44,-7.8,-77.81,-0.3563,0.32220000000000004,0.47300000000000003,0.7384000000000001,-0.049,-0.10400000000000001,0.056
2025-11-06 18:37:24.020,299.185,-1.141,0.382,-0.134,-0.1,-0.8190000000000001,-0.458,65.44,-7.8,-77.81,-0.35910000000000003,0.31670000000000004,0.46740000000000004,0.743,-0.034,-0.10300000000000001,0.1
2025-11-06 18:37:24.020,299.19,-1.196,0.268,-0.128,-0.106,-0.81,-0.428,65.5,-7.7700000000000005,-78.42,-0.3613,0.3124,0.4626,0.7468,-0.026000000000000002,-0.107,0.055
2025-11-06 18:37:24.020,299.195,-1.192,0.167,-0.12,-0.10200000000000001,-0.809,-0.381,65.5,-7.7700000000000005,-78.42,-0.3633,0.30960000000000004,0.4595,0.7489,-0.027,-0.10400000000000001,-0.002
2025-11-06 18:37:24.020,299.2,-1.129,0.2,-0.116,-0.106,-0.809,-0.369,65.44,-7.04,-78.48,-0.3648,0.3074,0.457,0.7506,-0.021,-0.10200000000000001,-0.021
2025-11-06 18:37:24.020,299.205,-1.046,0.293,-0.112,-0.111,-0.8150000000000001,-0.384,65.44,-7.04,-78.48,-0.3658,0.30510000000000004,0.4545,0.7525000000000001,-0.015,-0.092,-0.013000000000000001
2025-11-06 18:37:24.020,299.21,-0.992,0.378,-0.107,-0.123,-0.812,-0.40700000000000003,65.44,-7.04,-78.48,-0.3665,0.3028,0.4516,0.7549,-0.002,-0.092,0.0
2025-11-06 18:37:24.020,299.215,-0.999,0.434,-0.106,-0.17400000000000002,-0.81,-0.406,67.37,-7.19,-79.39,-0.3654,0.302,0.448,0.7579,0.045,-0.09,-0.007
2025-11-06 18:37:24.020,299.22,-1.058,0.445,-0.117,-0.209,-0.8130000000000001,-0.385,67.37,-7.19,-79.39,-0.3634,0.3028,0.44470000000000004,0.7605000000000001,0.073,-0.083,-0.034
2025-11-06 18:37:24.020,299.225,-1.1500000000000001,0.44,-0.125,-0.228,-0.8230000000000001,-0.36,66.79,-6.6000000000000005,-79.01,-0.3614,0.3049,0.4418,0.7622,0.085,-0.07100000000000001,-0.062
2025-11-06 18:37:24.020,299.23,-1.245,0.41500000000000004,-0.138,-0.218,-0.845,-0.327,66.79,-6.6000000000000005,-79.01,-0.3608,0.3079,0.44010000000000005,0.7623000000000001,0.067,-0.048,-0.095
2025-11-06 18:37:24.020,299.235,-1.331,0.398,-0.161,-0.194,-0.863,-0.293,66.79,-6.6000000000000005,-79.01,-0.3623,0.3114,0.4395,0.7605000000000001,0.039,-0.03,-0.126
2025-11-06 18:37:24.020,299.24,-1.389,0.35000000000000003,-0.18,-0.157,-0.871,-0.297,66.29,-6.57,-79.65,-0.3654,0.3138,0.4393,0.7582,0.002,-0.023,-0.11900000000000001
2025-11-06 18:37:24.020,299.245,-1.4040000000000001,0.33,-0.194,-0.134,-0.877,-0.34,66.29,-6.57,-79.65,-0.3688,0.31420000000000003,0.4384,0.7569,-0.018000000000000002,-0.018000000000000002,-0.076
2025-11-06 18:37:24.020,299.25,-1.413,0.331,-0.2,-0.116,-0.867,-0.39,65.91,-5.87,-79.21000000000001,-0.37210000000000004,0.3124,0.43670000000000003,0.757,-0.032,-0.027,-0.031
2025-11-06 18:37:24.020,299.255,-1.42,0.366,-0.2,-0.111,-0.851,-0.43,65.91,-5.87,-79.21000000000001,-0.3745,0.30910000000000004,0.4343,0.7586,-0.033,-0.039,0.001
2025-11-06 18:37:24.020,299.26,-1.417,0.41100000000000003,-0.198,-0.113,-0.8200000000000001,-0.452,66.0,-5.4,-79.97,-0.376,0.305,0.4312,0.7612,-0.027,-0.066,0.012
2025-11-06 18:37:24.020,299.265,-1.436,0.393,-0.197,-0.116,-0.81,-0.449,66.0,-5.4,-79.97,-0.3773,0.3012,0.4283,0.7638,-0.021,-0.07100000000000001,0.0
2025-11-06 18:37:24.020,299.27,-1.449,0.34900000000000003,-0.193,-0.1,-0.795,-0.443,66.0,-5.4,-79.97,-0.37920000000000004,0.29760000000000003,0.42550000000000004,0.7658,-0.033,-0.082,-0.015
2025-11-06 18:37:24.020,299.275,-1.456,0.333,-0.188,-0.096,-0.781,-0.433,65.65,-4.73,-79.97,-0.3811,0.2944,0.42310000000000003,0.7674000000000001,-0.034,-0.093,-0.033
2025-11-06 18:37:24.020,299.28,-1.469,0.36,-0.188,-0.089,-0.764,-0.424,65.65,-4.73,-79.97,-0.3831,0.2912,0.4208,0.7688,-0.036000000000000004,-0.106,-0.049
2025-11-06 18:37:24.020,299.285,-1.49,0.426,-0.197,-0.08700000000000001,-0.755,-0.443,66.26,-4.5600000000000005,-80.47,-0.385,0.2876,0.4182,0.7707,-0.035,-0.111,-0.039
2025-11-06 18:37:24.020,299.29,-1.5050000000000001,0.506,-0.22,-0.084,-0.741,-0.47200000000000003,66.26,-4.5600000000000005,-80.47,-0.38670000000000004,0.2831,0.4147,0.7734000000000001,-0.033,-0.12,-0.019
2025-11-06 18:37:24.020,299.295,-1.5330000000000001,0.56,-0.256,-0.081,-0.731,-0.468,66.26,-4.5600000000000005,-80.82000000000001,-0.3884,0.2788,0.4116,0.7758,-0.032,-0.125,-0.034
2025-11-06 18:37:24.020,299.3,-1.591,0.579,-0.293,-0.105,-0.725,-0.47400000000000003,66.15,-3.85,-80.82000000000001,-0.3895,0.2753,0.40790000000000004,0.7784000000000001,-0.005,-0.125,-0.038
2025-11-06 18:37:24.020,299.305,-1.683,0.53,-0.34700000000000003,-0.11,-0.724,-0.481,66.15,-3.85,-80.82000000000001,-0.3906,0.2721,0.40390000000000004,0.781,0.0,-0.12,-0.041
2025-11-06 18:37:24.020,299.31,-1.722,0.47900000000000004,-0.363,-0.123,-0.718,-0.453,66.41,-3.56,-82.13,-0.3914,0.27040000000000003,0.4006,0.783,0.013000000000000001,-0.121,-0.077
2025-11-06 18:37:24.020,299.315,-1.75,0.448,-0.374,-0.14100000000000001,-0.726,-0.447,66.41,-3.56,-82.13,-0.3919,0.26980000000000004,0.39730000000000004,0.7846000000000001,0.03,-0.109,-0.089
2025-11-06 18:37:24.020,299.32,-1.749,0.392,-0.362,-0.139,-0.725,-0.465,66.32000000000001,-2.57,-82.05,-0.3925,0.26890000000000003,0.39380000000000004,0.7863,0.025,-0.105,-0.078
2025-11-06 18:37:24.021,299.325,-1.737,0.374,-0.34900000000000003,-0.111,-0.721,-0.457,66.32000000000001,-2.57,-82.05,-0.39390000000000003,0.26730000000000004,0.39130000000000004,0.7875000000000001,-0.001,-0.105,-0.091
2025-11-06 18:37:24.021,299.33,-1.742,0.461,-0.34400000000000003,-0.099,-0.733,-0.443,66.32000000000001,-2.57,-82.05,-0.3957,0.2659,0.38980000000000004,0.7878000000000001,-0.011,-0.091,-0.11
2025-11-06 18:37:24.021,299.335,-1.725,0.561,-0.328,-0.112,-0.719,-0.434,67.23,-2.63,-82.11,-0.3967,0.2649,0.38830000000000003,0.7883,0.002,-0.10300000000000001,-0.122
2025-11-06 18:37:24.021,299.34,-1.711,0.64,-0.313,-0.124,-0.7030000000000001,-0.424,67.23,-2.63,-82.11,-0.3971,0.2645,0.38680000000000003,0.789,0.014,-0.117,-0.135
2025-11-06 18:37:24.021,299.345,-1.706,0.687,-0.29,-0.12,-0.6980000000000001,-0.441,67.2,-1.46,-82.95,-0.39740000000000003,0.26330000000000003,0.38480000000000003,0.7902,0.01,-0.12,-0.122
2025-11-06 18:37:24.021,299.35,-1.74,0.6940000000000001,-0.28300000000000003,-0.10400000000000001,-0.7030000000000001,-0.494,67.2,-1.46,-82.95,-0.39790000000000003,0.2602,0.3821,0.7924,-0.003,-0.11,-0.075
2025-11-06 18:37:24.021,299.355,-1.782,0.716,-0.28800000000000003,-0.09,-0.717,-0.545,67.17,-1.37,-82.63,-0.3986,0.25570000000000004,0.3788,0.795,-0.015,-0.089,-0.034
2025-11-06 18:37:24.021,299.36,-1.815,0.756,-0.289,-0.09,-0.731,-0.546,67.17,-1.37,-82.63,-0.3996,0.25170000000000003,0.3759,0.7972,-0.011,-0.07,-0.042
2025-11-06 18:37:24.021,299.365,-1.84,0.765,-0.294,-0.1,-0.716,-0.485,67.17,-1.37,-82.63,-0.4007,0.2499,0.37420000000000003,0.798,0.001,-0.082,-0.108
2025-11-06 18:37:24.021,299.37,-1.8940000000000001,0.768,-0.308,-0.081,-0.681,-0.428,67.46000000000001,-0.05,-83.13,-0.40280000000000005,0.24880000000000002,0.37370000000000003,0.7975,-0.015,-0.115,-0.167
2025-11-06 18:37:24.021,299.375,-1.9140000000000001,0.783,-0.325,-0.077,-0.66,-0.434,67.46000000000001,-0.05,-83.13,-0.4046,0.24700000000000003,0.37270000000000003,0.7976000000000001,-0.015,-0.134,-0.165
2025-11-06 18:37:24.021,299.38,-1.9100000000000001,0.807,-0.335,-0.069,-0.645,-0.446,67.69,0.4,-83.48,-0.40640000000000004,0.24450000000000002,0.3713,0.7982,-0.019,-0.146,-0.156
2025-11-06 18:37:24.021,299.385,-1.925,0.798,-0.34800000000000003,-0.068,-0.641,-0.504,67.69,0.4,-83.48,-0.40750000000000003,0.2404,0.3682,0.8002,-0.016,-0.146,-0.105
2025-11-06 18:37:24.021,299.39,-1.959,0.773,-0.352,-0.08,-0.654,-0.558,67.69,0.4,-83.48,-0.4077,0.23570000000000002,0.3642,0.8034,-0.002,-0.124,-0.061
2025-11-06 18:37:24.021,299.395,-1.979,0.712,-0.34800000000000003,-0.069,-0.657,-0.537,67.87,1.46,-83.95,-0.4088,0.232,0.36100000000000004,0.8053,-0.009000000000000001,-0.115,-0.092
2025-11-06 18:37:24.021,299.4,-1.978,0.7010000000000001,-0.365,-0.047,-0.656,-0.508,67.87,1.46,-83.95,-0.4111,0.22870000000000001,0.3592,0.8059000000000001,-0.026000000000000002,-0.111,-0.127
2025-11-06 18:37:24.021,299.405,-2.011,0.732,-0.378,-0.057,-0.659,-0.525,68.05,2.3000000000000003,-84.24,-0.4127,0.2255,0.35700000000000004,0.807,-0.012,-0.10400000000000001,-0.116
2025-11-06 18:37:24.021,299.41,-2.053,0.763,-0.38,-0.056,-0.667,-0.516,68.05,2.3000000000000003,-84.24,-0.4142,0.2227,0.3554,0.8077000000000001,-0.009000000000000001,-0.092,-0.13
2025-11-06 18:37:24.021,299.415,-2.12,0.784,-0.395,-0.077,-0.643,-0.425,68.69,2.74,-84.33,-0.41440000000000005,0.22260000000000002,0.3558,0.8075,0.012,-0.115,-0.222
2025-11-06 18:37:24.021,299.42,-2.212,0.769,-0.41000000000000003,-0.067,-0.646,-0.457,68.69,2.74,-84.33,-0.4152,0.22130000000000002,0.3551,0.8077000000000001,0.004,-0.112,-0.191
2025-11-06 18:37:24.021,299.425,-2.254,0.732,-0.40900000000000003,-0.018000000000000002,-0.647,-0.489,68.69,2.74,-84.33,-0.4197,0.2184,0.3539,0.8067000000000001,-0.038,-0.107,-0.163
2025-11-06 18:37:24.021,299.43,-2.247,0.769,-0.396,0.0,-0.632,-0.47600000000000003,68.4,3.85,-84.65,-0.4249,0.21530000000000002,0.3531,0.8051,-0.047,-0.12,-0.179
2025-11-06 18:37:24.021,299.435,-2.258,0.842,-0.41300000000000003,-0.009000000000000001,-0.631,-0.537,68.4,3.85,-84.65,-0.42850000000000005,0.21100000000000002,0.3506,0.8055,-0.031,-0.116,-0.125
2025-11-06 18:37:24.021,299.44,-2.335,0.928,-0.403,-0.022,-0.592,-0.638,68.69,4.0,-85.47,-0.4305,0.2043,0.3443,0.8088000000000001,-0.012,-0.14400000000000002,-0.036000000000000004
2025-11-06 18:37:24.024,299.445,-2.335,0.917,-0.393,-0.005,-0.555,-0.677,68.69,4.0,-85.47,-0.4333,0.19640000000000002,0.3367,0.8125,-0.024,-0.165,-0.013000000000000001
2025-11-06 18:37:24.024,299.45,-2.34,0.915,-0.398,0.0,-0.546,-0.709,68.69,4.0,-85.47,-0.436,0.1883,0.32880000000000004,0.8162,-0.022,-0.158,0.0
2025-11-06 18:37:24.024,299.455,-2.339,0.932,-0.398,0.064,-0.536,-0.761,68.98,5.55,-84.91,-0.44060000000000005,0.1779,0.32120000000000004,0.8191,-0.075,-0.151,0.036000000000000004
2025-11-06 18:37:24.024,299.46,-2.3000000000000003,0.974,-0.45,0.01,-0.52,-0.798,68.98,5.55,-84.91,-0.444,0.1696,0.312,0.8225,-0.013000000000000001,-0.148,0.055
2025-11-06 18:37:24.024,299.465,-2.247,0.921,-0.489,0.03,-0.541,-0.898,69.36,5.96,-84.39,-0.4474,0.1608,0.3028,0.8259000000000001,-0.026000000000000002,-0.107,0.137
2025-11-06 18:37:24.024,299.47,-2.195,0.8160000000000001,-0.511,-0.001,-0.587,-0.903,69.36,5.96,-84.39,-0.4506,0.1549,0.2948,0.8282,0.009000000000000001,-0.044,0.128
2025-11-06 18:37:24.024,299.475,-2.187,0.738,-0.516,-0.038,-0.629,-0.8270000000000001,70.91,7.22,-85.15,-0.4535,0.1526,0.2892,0.8290000000000001,0.047,0.008,0.043000000000000003
2025-11-06 18:37:24.024,299.48,-2.195,0.737,-0.507,-0.037,-0.631,-0.746,70.91,7.22,-85.15,-0.4556,0.1515,0.28600000000000003,0.8292,0.046,0.018000000000000002,-0.043000000000000003
2025-11-06 18:37:24.024,299.485,-2.194,0.8160000000000001,-0.49,-0.05,-0.641,-0.724,70.91,7.22,-85.15,-0.45740000000000003,0.1514,0.2836,0.8290000000000001,0.059000000000000004,0.031,-0.068
2025-11-06 18:37:24.024,299.49,-2.198,0.8300000000000001,-0.47500000000000003,-0.08,-0.604,-0.721,69.97,8.24,-84.56,-0.4592,0.1521,0.2796,0.8292,0.08600000000000001,0.0,-0.075
2025-11-06 18:37:24.024,299.495,-2.207,0.8170000000000001,-0.47600000000000003,-0.091,-0.591,-0.735,69.97,8.24,-84.56,-0.461,0.1527,0.2751,0.8297,0.092,-0.007,-0.064
2025-11-06 18:37:24.025,299.5,-2.201,0.805,-0.447,-0.096,-0.59,-0.772,70.18,8.85,-85.15,-0.4622,0.1527,0.2701,0.8306,0.093,-0.001,-0.033
2025-11-06 18:37:24.025,299.505,-2.223,0.871,-0.40900000000000003,-0.073,-0.5740000000000001,-0.799,70.18,8.85,-85.15,-0.46290000000000003,0.1509,0.2651,0.8322,0.067,-0.009000000000000001,-0.012
2025-11-06 18:37:24.025,299.51,-2.202,0.9590000000000001,-0.39,-0.015,-0.5660000000000001,-0.848,70.18,8.85,-85.15,-0.4631,0.1458,0.26080000000000003,0.8344,0.012,-0.006,0.029
2025-11-06 18:37:24.025,299.515,-2.14,0.993,-0.392,0.011,-0.545,-0.908,71.55,10.26,-85.0,-0.4621,0.13870000000000002,0.256,0.8376,-0.008,-0.015,0.079
2025-11-06 18:37:24.025,299.52,-2.11,0.989,-0.4,0.065,-0.541,-0.998,71.55,10.26,-85.0,-0.46,0.1291,0.2513,0.8417,-0.054,-0.004,0.16
2025-11-06 18:37:24.025,299.525,-2.065,1.045,-0.396,0.106,-0.535,-1.026,70.65,10.55,-84.33,-0.4577,0.11860000000000001,0.24730000000000002,0.8456,-0.084,0.004,0.178
2025-11-06 18:37:24.025,299.53,-1.997,1.053,-0.406,0.113,-0.525,-1.056,70.65,10.55,-84.33,-0.45580000000000004,0.1085,0.2431,0.8493,-0.079,0.01,0.2
2025-11-06 18:37:24.025,299.535,-1.959,1.029,-0.396,0.152,-0.53,-1.09,71.03,11.48,-85.06,-0.4535,0.098,0.23950000000000002,0.8528,-0.105,0.029,0.226
2025-11-06 18:37:24.025,299.54,-1.901,0.989,-0.376,0.187,-0.535,-1.089,71.03,11.48,-85.06,-0.4509,0.0873,0.23700000000000002,0.8560000000000001,-0.127,0.048,0.218
2025-11-06 18:37:24.025,299.545,-1.861,0.9390000000000001,-0.361,0.243,-0.545,-1.092,71.03,11.48,-85.06,-0.4471,0.0758,0.2358,0.8594,-0.166,0.069,0.216
2025-11-06 18:37:24.025,299.55,-1.7550000000000001,0.86,-0.324,0.298,-0.537,-1.096,71.41,12.450000000000001,-84.68,-0.44270000000000004,0.0635,0.2354,0.8628,-0.20400000000000001,0.07100000000000001,0.216
2025-11-06 18:37:24.025,299.555,-1.659,0.777,-0.291,0.337,-0.541,-1.1340000000000001,71.41,12.450000000000001,-84.68,-0.4385,0.051500000000000004,0.23500000000000001,0.8658,-0.225,0.08600000000000001,0.25
2025-11-06 18:37:24.025,299.56,-1.584,0.647,-0.26,0.364,-0.559,-1.187,71.03,13.18,-85.06,-0.4349,0.0405,0.23450000000000001,0.8684000000000001,-0.23500000000000001,0.114,0.301
2025-11-06 18:37:24.025,299.565,-1.5070000000000001,0.513,-0.23,0.397,-0.5700000000000001,-1.233,71.03,13.18,-85.06,-0.4318,0.0303,0.2338,0.8705,-0.251,0.134,0.34500000000000003
2025-11-06 18:37:24.025,299.57,-1.418,0.389,-0.202,0.41100000000000003,-0.588,-1.313,71.03,13.18,-85.06,-0.4299,0.0216,0.2326,0.872,-0.252,0.162,0.423
2025-11-06 18:37:24.025,299.575,-1.2730000000000001,0.20800000000000002,-0.162,0.41400000000000003,-0.605,-1.4000000000000001,71.41,13.56,-84.71000000000001,-0.4295,0.0148,0.2308,0.8729,-0.244,0.187,0.507
2025-11-06 18:37:24.025,299.58,-1.166,0.083,-0.129,0.40700000000000003,-0.607,-1.469,71.41,13.56,-84.71000000000001,-0.4307,0.0097,0.2281,0.8731,-0.229,0.198,0.5740000000000001
2025-11-06 18:37:24.025,299.585,-1.068,-0.033,-0.089,0.401,-0.544,-1.518,71.58,14.82,-84.09,-0.436,0.0059,0.2237,0.8716,-0.218,0.146,0.619
2025-11-06 18:37:24.025,299.59,-0.977,-0.137,-0.048,0.382,-0.497,-1.555,71.58,14.82,-84.09,-0.4439,0.0034000000000000002,0.21810000000000002,0.869,-0.194,0.111,0.652
2025-11-06 18:37:24.025,299.595,-0.871,-0.234,0.011,0.354,-0.458,-1.602,71.9,14.46,-85.06,-0.4539,0.0023,0.2114,0.8655,-0.166,0.08600000000000001,0.6930000000000001
2025-11-06 18:37:24.025,299.6,-0.763,-0.33,0.059000000000000004,0.299,-0.46900000000000003,-1.613,71.9,14.46,-85.06,-0.46340000000000003,0.0031000000000000003,0.20500000000000002,0.862,-0.114,0.11,0.6990000000000001
2025-11-06 18:37:24.025,299.605,-0.668,-0.389,0.084,0.252,-0.495,-1.592,71.9,14.46,-85.06,-0.4713,0.0051,0.1995,0.859,-0.07100000000000001,0.145,0.672
2025-11-06 18:37:24.025,299.61,-0.591,-0.449,0.096,0.231,-0.536,-1.551,71.52,14.200000000000001,-84.41,-0.47600000000000003,0.0076,0.1957,0.8573000000000001,-0.057,0.192,0.629
2025-11-06 18:37:24.025,299.615,-0.532,-0.47800000000000004,0.097,0.202,-0.5720000000000001,-1.463,71.52,14.200000000000001,-84.41,-0.47790000000000005,0.0106,0.1938,0.8566,-0.033,0.23,0.539
2025-11-06 18:37:24.025,299.62,-0.47800000000000004,-0.449,0.107,0.191,-0.562,-1.383,70.82000000000001,15.08,-85.15,-0.47840000000000005,0.0134,0.1927,0.8566,-0.028,0.219,0.458
2025-11-06 18:37:24.025,299.625,-0.386,-0.377,0.125,0.17400000000000002,-0.513,-1.308,70.82000000000001,15.08,-85.15,-0.47940000000000005,0.0159,0.1913,0.8562000000000001,-0.016,0.17,0.382
2025-11-06 18:37:24.025,299.63,-0.261,-0.293,0.153,0.16,-0.46,-1.238,71.49,14.96,-84.74,-0.48100000000000004,0.0181,0.1897,0.8557,-0.008,0.11800000000000001,0.311
2025-11-06 18:37:24.025,299.635,-0.176,-0.245,0.188,0.14400000000000002,-0.434,-1.182,71.49,14.96,-84.74,-0.48260000000000003,0.0204,0.1882,0.8550000000000001,0.003,0.092,0.254
2025-11-06 18:37:24.025,299.64,-0.135,-0.19,0.23800000000000002,0.111,-0.388,-1.119,71.49,14.96,-84.74,-0.4854,0.023100000000000002,0.1857,0.8539,0.03,0.048,0.19
2025-11-06 18:37:24.025,299.645,-0.112,-0.132,0.289,0.101,-0.363,-1.096,70.76,15.22,-84.82000000000001,-0.4882,0.0256,0.1829,0.8529,0.034,0.025,0.165
2025-11-06 18:37:24.027,299.65,-0.062,-0.062,0.332,0.092,-0.339,-1.044,70.76,15.22,-84.82000000000001,-0.4907,0.027800000000000002,0.18030000000000002,0.8519,0.038,0.004,0.111
2025-11-06 18:37:24.027,299.655,0.006,0.038,0.367,0.084,-0.313,-0.976,70.62,15.22,-84.94,-0.4927,0.0296,0.1779,0.8512000000000001,0.041,-0.019,0.042
2025-11-06 18:37:24.027,299.66,0.077,0.164,0.392,0.08,-0.289,-0.904,70.62,15.22,-84.94,-0.49410000000000004,0.0309,0.1761,0.8507,0.041,-0.041,-0.031
2025-11-06 18:37:24.027,299.665,0.17,0.329,0.421,0.09,-0.27,-0.851,70.62,15.22,-84.94,-0.4944,0.031,0.1751,0.8508,0.029,-0.059000000000000004,-0.085
2025-11-06 18:37:24.027,299.67,0.20800000000000002,0.429,0.421,0.11,-0.274,-0.8230000000000001,71.06,14.93,-85.55,-0.49310000000000004,0.030000000000000002,0.1756,0.8514,0.011,-0.053,-0.113
2025-11-06 18:37:24.027,299.675,0.222,0.505,0.41400000000000003,0.134,-0.28400000000000003,-0.799,71.06,14.93,-85.55,-0.4903,0.027700000000000002,0.1776,0.8527,-0.009000000000000001,-0.045,-0.136
2025-11-06 18:37:24.027,299.68,0.218,0.562,0.399,0.162,-0.297,-0.783,70.71000000000001,14.32,-85.09,-0.48600000000000004,0.024300000000000002,0.18100000000000002,0.8546,-0.029,-0.034,-0.15
2025-11-06 18:37:24.028,299.685,0.217,0.603,0.376,0.213,-0.292,-0.777,70.71000000000001,14.32,-85.09,-0.4797,0.0181,0.18530000000000002,0.8574,-0.07,-0.041,-0.154
2025-11-06 18:37:24.028,299.69,0.225,0.621,0.362,0.244,-0.272,-0.781,71.23,14.11,-84.44,-0.47350000000000003,0.010400000000000001,0.189,0.8601000000000001,-0.08700000000000001,-0.062,-0.146
2025-11-06 18:37:24.028,299.695,0.23600000000000002,0.613,0.34500000000000003,0.274,-0.259,-0.787,71.23,14.11,-84.44,-0.46780000000000005,0.0018000000000000002,0.19240000000000002,0.8625,-0.101,-0.074,-0.139
2025-11-06 18:37:24.028,299.7,0.248,0.597,0.331,0.298,-0.248,-0.795,71.23,14.11,-84.44,-0.463,-0.0071,0.1953,0.8644000000000001,-0.108,-0.083,-0.128
2025-11-06 18:37:24.028,299.705,0.264,0.5680000000000001,0.312,0.312,-0.23800000000000002,-0.809,71.17,14.14,-83.92,-0.45980000000000004,-0.015700000000000002,0.1975,0.8655,-0.107,-0.089,-0.112
2025-11-06 18:37:24.028,299.71,0.274,0.527,0.293,0.334,-0.242,-0.8240000000000001,71.17,14.14,-83.92,-0.45690000000000003,-0.0241,0.19970000000000002,0.8664000000000001,-0.114,-0.082,-0.095
2025-11-06 18:37:24.028,299.715,0.275,0.484,0.276,0.33,-0.25,-0.836,71.79,14.08,-82.66,-0.45470000000000005,-0.031200000000000002,0.2016,0.8669,-0.095,-0.07100000000000001,-0.08
2025-11-06 18:37:24.028,299.72,0.269,0.444,0.265,0.321,-0.261,-0.857,71.79,14.08,-82.66,-0.4535,-0.0367,0.203,0.867,-0.076,-0.058,-0.057
2025-11-06 18:37:24.028,299.725,0.261,0.404,0.251,0.313,-0.277,-0.87,71.79,14.08,-82.66,-0.452,-0.0409,0.20450000000000002,0.8672000000000001,-0.058,-0.04,-0.043000000000000003
2025-11-06 18:37:24.028,299.73,0.244,0.34500000000000003,0.224,0.306,-0.306,-0.878,71.49,14.11,-83.83,-0.449,-0.0441,0.20650000000000002,0.8681000000000001,-0.045,-0.011,-0.032
2025-11-06 18:37:24.028,299.735,0.255,0.28,0.20400000000000001,0.304,-0.327,-0.87,71.49,14.11,-83.83,-0.4444,-0.046900000000000004,0.2091,0.8697,-0.038,0.006,-0.038
2025-11-06 18:37:24.028,299.74,0.275,0.246,0.182,0.298,-0.336,-0.841,71.67,13.47,-83.10000000000001,-0.43870000000000003,-0.0494,0.2122,0.8717,-0.027,0.011,-0.064
2025-11-06 18:37:24.028,299.745,0.261,0.225,0.156,0.271,-0.339,-0.8280000000000001,71.67,13.47,-83.10000000000001,-0.4338,-0.0506,0.2149,0.8735,0.002,0.009000000000000001,-0.074
2025-11-06 18:37:24.028,299.75,0.23900000000000002,0.229,0.125,0.249,-0.333,-0.854,71.99,13.35,-82.84,-0.432,-0.0502,0.21610000000000001,0.8741,0.025,0.0,-0.047
2025-11-06 18:37:24.028,299.755,0.193,0.224,0.096,0.228,-0.326,-0.88,71.99,13.35,-82.84,-0.43260000000000004,-0.048600000000000004,0.21610000000000001,0.8739,0.044,-0.008,-0.021
2025-11-06 18:37:24.028,299.76,0.159,0.20700000000000002,0.07,0.232,-0.323,-0.882,71.99,13.35,-82.84,-0.4335,-0.047400000000000005,0.2159,0.8736,0.037,-0.012,-0.019
2025-11-06 18:37:24.028,299.765,0.108,0.163,0.042,0.234,-0.325,-0.849,71.79,13.68,-82.60000000000001,-0.433,-0.0466,0.21630000000000002,0.8737,0.035,-0.011,-0.053
2025-11-06 18:37:24.028,299.77,0.062,0.117,0.016,0.234,-0.326,-0.798,71.79,13.68,-82.60000000000001,-0.431,-0.046400000000000004,0.2175,0.8744000000000001,0.034,-0.013000000000000001,-0.10200000000000001
2025-11-06 18:37:24.028,299.775,0.029,0.09,-0.024,0.23600000000000002,-0.309,-0.75,73.75,13.09,-82.49,-0.4289,-0.047,0.2189,0.8751,0.033,-0.032,-0.149
2025-11-06 18:37:24.028,299.78,0.01,0.094,-0.048,0.219,-0.301,-0.732,73.75,13.09,-82.49,-0.4273,-0.047,0.2199,0.8756,0.051000000000000004,-0.043000000000000003,-0.166
2025-11-06 18:37:24.028,299.785,0.002,0.121,-0.07,0.195,-0.292,-0.716,73.75,13.09,-82.49,-0.4263,-0.0461,0.22030000000000002,0.876,0.074,-0.054,-0.181
2025-11-06 18:37:24.028,299.79,-0.005,0.156,-0.091,0.192,-0.28400000000000003,-0.717,71.96000000000001,13.21,-82.98,-0.42600000000000005,-0.0454,0.22030000000000002,0.8762000000000001,0.074,-0.063,-0.18
2025-11-06 18:37:24.028,299.795,-0.014,0.17400000000000002,-0.117,0.179,-0.28600000000000003,-0.742,71.96000000000001,13.21,-82.98,-0.4264,-0.0438,0.2197,0.8763000000000001,0.085,-0.06,-0.156
2025-11-06 18:37:24.028,299.8,-0.03,0.165,-0.14100000000000001,0.179,-0.289,-0.773,72.46000000000001,13.27,-82.72,-0.4273,-0.042100000000000005,0.2185,0.8762000000000001,0.081,-0.057,-0.126
2025-11-06 18:37:24.028,299.805,-0.036000000000000004,0.157,-0.165,0.191,-0.295,-0.797,72.46000000000001,13.27,-82.72,-0.4283,-0.0409,0.2174,0.8761,0.067,-0.05,-0.10400000000000001
2025-11-06 18:37:24.028,299.81,-0.05,0.177,-0.182,0.192,-0.306,-0.812,73.8,12.97,-83.57000000000001,-0.42900000000000005,-0.0397,0.21660000000000001,0.876,0.063,-0.038,-0.089
2025-11-06 18:37:24.028,299.815,-0.067,0.224,-0.194,0.192,-0.316,-0.8240000000000001,73.8,12.97,-83.57000000000001,-0.4295,-0.0385,0.2159,0.8759,0.061,-0.029,-0.079
2025-11-06 18:37:24.028,299.82,-0.079,0.297,-0.20800000000000002,0.189,-0.321,-0.834,73.8,12.97,-83.57000000000001,-0.4299,-0.0374,0.2154,0.8759,0.061,-0.023,-0.07
2025-11-06 18:37:24.028,299.825,-0.069,0.34,-0.20800000000000002,0.187,-0.329,-0.857,72.08,13.76,-82.75,-0.4303,-0.0361,0.21480000000000002,0.8759,0.061,-0.016,-0.047
2025-11-06 18:37:24.028,299.83,-0.052000000000000005,0.317,-0.20500000000000002,0.191,-0.35100000000000003,-0.891,72.08,13.76,-82.75,-0.43060000000000004,-0.0345,0.21450000000000002,0.8759,0.054,0.005,-0.013000000000000001
2025-11-06 18:37:24.028,299.835,-0.041,0.249,-0.195,0.20500000000000002,-0.38,-0.924,72.14,13.620000000000001,-83.33,-0.43060000000000004,-0.033,0.2149,0.8759,0.038,0.033,0.019
2025-11-06 18:37:24.028,299.84,-0.031,0.188,-0.181,0.199,-0.417,-0.9390000000000001,72.14,13.620000000000001,-83.33,-0.4304,-0.030500000000000003,0.21610000000000001,0.8758,0.04,0.066,0.034
2025-11-06 18:37:24.028,299.845,-0.02,0.145,-0.162,0.209,-0.441,-0.9480000000000001,72.14,13.620000000000001,-83.33,-0.4302,-0.0281,0.21780000000000002,0.8755000000000001,0.028,0.085,0.044
2025-11-06 18:37:24.028,299.85,-0.011,0.145,-0.147,0.20800000000000002,-0.459,-0.9470000000000001,72.55,13.700000000000001,-82.92,-0.4299,-0.025500000000000002,0.22010000000000002,0.8752000000000001,0.026000000000000002,0.098,0.045
2025-11-06 18:37:24.028,299.855,-0.013000000000000001,0.165,-0.125,0.195,-0.47700000000000004,-0.933,72.55,13.700000000000001,-82.92,-0.4294,-0.0224,0.2228,0.8748,0.035,0.108,0.032
2025-11-06 18:37:24.028,299.86,-0.018000000000000002,0.221,-0.10400000000000001,0.202,-0.487,-0.904,72.61,14.41,-82.78,-0.4292,-0.0196,0.2263,0.8741,0.026000000000000002,0.11,0.006
2025-11-06 18:37:24.028,299.865,-0.029,0.302,-0.078,0.191,-0.47900000000000004,-0.849,72.61,14.41,-82.78,-0.42900000000000005,-0.016800000000000002,0.2303,0.8732000000000001,0.036000000000000004,0.094,-0.044
2025-11-06 18:37:24.028,299.87,-0.032,0.359,-0.065,0.19,-0.468,-0.844,73.86,13.73,-82.22,-0.42850000000000005,-0.0146,0.23370000000000002,0.8726,0.036000000000000004,0.074,-0.046
2025-11-06 18:37:24.028,299.875,-0.041,0.36,-0.048,0.17,-0.462,-0.844,73.86,13.73,-82.22,-0.42700000000000005,-0.012100000000000001,0.2363,0.8727,0.053,0.062,-0.044
2025-11-06 18:37:24.028,299.88,-0.057,0.34800000000000003,-0.04,0.169,-0.481,-0.847,73.86,13.73,-82.22,-0.4257,-0.0095,0.23900000000000002,0.8726,0.05,0.073,-0.037
2025-11-06 18:37:24.028,299.885,-0.074,0.341,-0.022,0.164,-0.41300000000000003,-0.866,72.49,14.11,-82.46000000000001,-0.42300000000000004,-0.0086,0.2388,0.874,0.053,0.004,-0.019
2025-11-06 18:37:24.028,299.89,-0.068,0.325,-0.016,0.16,-0.41300000000000003,-0.905,72.49,14.11,-82.46000000000001,-0.4197,-0.0079,0.23770000000000002,0.8759,0.053,0.003,0.018000000000000002
2025-11-06 18:37:24.028,299.895,-0.083,0.29,-0.009000000000000001,0.156,-0.41300000000000003,-0.9450000000000001,72.96000000000001,13.85,-82.95,-0.4158,-0.0073,0.2358,0.8782000000000001,0.053,0.004,0.057
2025-11-06 18:37:24.028,299.9,-0.085,0.23900000000000002,-0.001,0.158,-0.403,-0.981,72.96000000000001,13.85,-82.95,-0.4118,-0.007,0.23320000000000002,0.8808,0.047,-0.002,0.09
2025-11-06 18:37:24.030,299.905,-0.068,0.189,0.0,0.154,-0.398,-1.0150000000000001,72.75,13.85,-82.4,-0.40750000000000003,-0.006900000000000001,0.23,0.8837,0.046,-0.003,0.121
2025-11-06 18:37:24.030,299.91,-0.033,0.14300000000000002,-0.001,0.17,-0.398,-1.059,72.75,13.91,-82.4,-0.4036,-0.007200000000000001,0.2267,0.8863000000000001,0.026000000000000002,0.001,0.162
2025-11-06 18:37:24.030,299.915,-0.016,0.132,-0.004,0.193,-0.4,-1.072,72.75,13.91,-82.4,-0.4006,-0.008,0.224,0.8883000000000001,0.0,0.007,0.17300000000000001
2025-11-06 18:37:24.030,299.92,0.002,0.154,-0.008,0.211,-0.40700000000000003,-1.074,73.51,14.08,-82.60000000000001,-0.3985,-0.0092,0.222,0.8898,-0.017,0.018000000000000002,0.17300000000000001
2025-11-06 18:37:24.030,299.925,0.035,0.20400000000000001,-0.016,0.213,-0.41600000000000004,-1.055,73.51,14.08,-82.60000000000001,-0.3972,-0.010100000000000001,0.2209,0.8906000000000001,-0.019,0.03,0.153
2025-11-06 18:37:24.030,299.93,0.054,0.255,-0.034,0.224,-0.432,-1.0030000000000001,72.78,13.85,-82.46000000000001,-0.39730000000000004,-0.0108,0.2215,0.8904000000000001,-0.029,0.046,0.101
2025-11-06 18:37:24.030,299.935,0.046,0.35000000000000003,-0.053,0.226,-0.445,-0.93,72.78,13.85,-82.46000000000001,-0.39890000000000003,-0.0112,0.22390000000000002,0.8891,-0.028,0.057,0.03
2025-11-06 18:37:24.030,299.94,0.044,0.426,-0.067,0.219,-0.44,-0.88,72.78,13.85,-82.46000000000001,-0.40080000000000005,-0.0114,0.22690000000000002,0.8874000000000001,-0.018000000000000002,0.048,-0.016
2025-11-06 18:37:24.030,299.945,0.051000000000000004,0.48,-0.075,0.219,-0.434,-0.843,73.95,13.97,-82.19,-0.40290000000000004,-0.0117,0.2303,0.8856,-0.013000000000000001,0.037,-0.05
2025-11-06 18:37:24.030,299.95,0.057,0.509,-0.082,0.215,-0.431,-0.799,73.95,13.97,-82.19,-0.4052,-0.0119,0.2343,0.8836,-0.005,0.028,-0.091
2025-11-06 18:37:24.030,299.955,0.046,0.522,-0.082,0.223,-0.406,-0.753,72.63,14.23,-81.67,-0.4077,-0.0129,0.23820000000000002,0.8813000000000001,-0.007,-0.001,-0.133
2025-11-06 18:37:24.030,299.96,0.041,0.489,-0.084,0.229,-0.389,-0.764,72.63,14.23,-81.67,-0.4096,-0.014400000000000001,0.24100000000000002,0.8797,-0.008,-0.021,-0.11900000000000001
2025-11-06 18:37:24.030,299.965,0.037,0.426,-0.088,0.23700000000000002,-0.373,-0.786,73.34,14.32,-82.43,-0.41100000000000003,-0.0165,0.2424,0.8786,-0.01,-0.038,-0.095
2025-11-06 18:37:24.030,299.97,0.034,0.354,-0.093,0.247,-0.358,-0.8170000000000001,73.34,14.32,-82.43,-0.4122,-0.019,0.2426,0.8779,-0.015,-0.052000000000000005,-0.063
2025-11-06 18:37:24.030,299.975,0.017,0.268,-0.10300000000000001,0.27,-0.34900000000000003,-0.872,73.34,14.32,-82.43,-0.41350000000000003,-0.022000000000000002,0.24150000000000002,0.8775000000000001,-0.032,-0.057,-0.009000000000000001
2025-11-06 18:37:24.030,299.98,-0.016,0.139,-0.112,0.28400000000000003,-0.338,-0.923,72.81,13.85,-80.94,-0.41490000000000005,-0.0251,0.2393,0.8774000000000001,-0.042,-0.062,0.039
2025-11-06 18:37:24.030,299.985,-0.04,0.109,-0.123,0.293,-0.332,-0.93,72.81,13.85,-80.94,-0.4163,-0.028300000000000002,0.2371,0.8772000000000001,-0.047,-0.061,0.044
2025-11-06 18:37:24.030,299.99,-0.052000000000000005,0.128,-0.14200000000000002,0.295,-0.32,-0.909,73.10000000000001,14.46,-80.82000000000001,-0.4177,-0.0317,0.2349,0.877,-0.044,-0.066,0.022
2025-11-06 18:37:24.030,299.995,-0.04,0.185,-0.163,0.298,-0.306,-0.879,73.10000000000001,14.46,-80.82000000000001,-0.4192,-0.035500000000000004,0.23320000000000002,0.8766,-0.042,-0.074,-0.009000000000000001
2025-11-06 18:37:24.030,300.0,0.009000000000000001,0.268,-0.203,0.276,-0.289,-0.835,73.10000000000001,14.46,-80.82000000000001,-0.42060000000000003,-0.038700000000000005,0.2316,0.8763000000000001,-0.014,-0.085,-0.053
2025-11-06 18:37:24.030,300.005,0.049,0.29,-0.228,0.251,-0.28400000000000003,-0.8210000000000001,72.96000000000001,14.82,-81.14,-0.42200000000000004,-0.0409,0.2298,0.8759,0.013000000000000001,-0.084,-0.068
2025-11-06 18:37:24.030,300.01,0.085,0.28300000000000003,-0.248,0.224,-0.275,-0.8220000000000001,72.96000000000001,14.82,-81.14,-0.4238,-0.0417,0.2275,0.8756,0.041,-0.088,-0.069
2025-11-06 18:37:24.030,300.015,0.117,0.259,-0.266,0.20600000000000002,-0.268,-0.8300000000000001,73.25,14.52,-81.08,-0.42600000000000005,-0.0417,0.22460000000000002,0.8753000000000001,0.057,-0.09,-0.064
2025-11-06 18:37:24.030,300.02,0.146,0.202,-0.28700000000000003,0.199,-0.256,-0.853,73.25,14.52,-81.08,-0.42850000000000005,-0.0413,0.22110000000000002,0.875,0.062,-0.096,-0.043000000000000003
2025-11-06 18:37:24.030,300.025,0.17300000000000001,0.128,-0.305,0.211,-0.252,-0.884,73.42,14.52,-80.44,-0.4309,-0.0413,0.2174,0.8748,0.049,-0.093,-0.016
2025-11-06 18:37:24.030,300.03,0.185,0.07,-0.317,0.228,-0.258,-0.906,73.42,14.52,-80.44,-0.4328,-0.0417,0.2142,0.8746,0.03,-0.081,0.001
2025-11-06 18:37:24.030,300.035,0.182,0.017,-0.331,0.23800000000000002,-0.255,-0.907,73.42,14.52,-80.44,-0.43420000000000003,-0.0426,0.2112,0.8746,0.019,-0.078,0.0
2025-11-06 18:37:24.030,300.04,0.171,0.001,-0.34600000000000003,0.23,-0.257,-0.888,73.51,13.94,-80.91,-0.4359,-0.043000000000000003,0.2086,0.8743000000000001,0.026000000000000002,-0.07100000000000001,-0.02
2025-11-06 18:37:24.030,300.045,0.17500000000000002,0.036000000000000004,-0.384,0.223,-0.256,-0.853,73.51,13.94,-80.91,-0.4374,-0.043300000000000005,0.2068,0.874,0.033,-0.068,-0.057
2025-11-06 18:37:24.030,300.05,0.199,0.083,-0.421,0.214,-0.262,-0.852,73.77,14.61,-80.38,-0.4394,-0.0431,0.20520000000000002,0.8734000000000001,0.041,-0.059000000000000004,-0.059000000000000004
2025-11-06 18:37:24.030,300.055,0.224,0.107,-0.463,0.213,-0.277,-0.878,73.77,14.61,-80.38,-0.4418,-0.042300000000000004,0.2041,0.8725,0.041,-0.041,-0.034
2025-11-06 18:37:24.030,300.06,0.242,0.078,-0.504,0.211,-0.297,-0.899,73.77,14.61,-80.38,-0.4445,-0.0408,0.2034,0.8713000000000001,0.041,-0.02,-0.013000000000000001
2025-11-06 18:37:24.030,300.065,0.234,0.009000000000000001,-0.532,0.203,-0.317,-0.887,73.37,15.75,-80.85000000000001,-0.4476,-0.038400000000000004,0.20350000000000001,0.8698,0.046,-0.001,-0.026000000000000002
2025-11-06 18:37:24.030,300.07,0.215,-0.038,-0.547,0.186,-0.32,-0.858,73.37,15.75,-80.85000000000001,-0.4511,-0.0354,0.2038,0.8681000000000001,0.06,-0.001,-0.055
2025-11-06 18:37:24.030,300.075,0.194,-0.033,-0.555,0.176,-0.31,-0.833,73.98,15.280000000000001,-81.23,-0.4544,-0.0323,0.20400000000000001,0.8664000000000001,0.066,-0.012,-0.081
2025-11-06 18:37:24.030,300.08,0.167,-0.008,-0.559,0.186,-0.303,-0.802,73.98,15.280000000000001,-81.23,-0.457,-0.030500000000000003,0.2046,0.865,0.053,-0.022,-0.112
2025-11-06 18:37:24.030,300.085,0.128,0.019,-0.557,0.201,-0.306,-0.765,73.92,15.58,-80.91,-0.45890000000000003,-0.0296,0.2063,0.8636,0.038,-0.021,-0.147
2025-11-06 18:37:24.030,300.09,0.038,0.02,-0.536,0.221,-0.318,-0.7030000000000001,73.92,15.58,-80.91,-0.4602,-0.0297,0.2099,0.862,0.022,-0.014,-0.20600000000000002
2025-11-06 18:37:24.030,300.095,-0.021,0.001,-0.525,0.228,-0.331,-0.68,73.92,15.58,-80.91,-0.4615,-0.0298,0.2144,0.8602000000000001,0.019,-0.008,-0.226
2025-11-06 18:37:24.030,300.1,-0.049,-0.014,-0.511,0.23,-0.327,-0.676,73.66,15.69,-81.02,-0.4626,-0.030100000000000002,0.2184,0.8586,0.022,-0.018000000000000002,-0.227
2025-11-06 18:37:24.030,300.105,-0.038,0.0,-0.503,0.229,-0.315,-0.6930000000000001,73.66,15.69,-81.02,-0.4637,-0.0307,0.2212,0.8573000000000001,0.027,-0.034,-0.20700000000000002
2025-11-06 18:37:24.030,300.11,-0.039,-0.003,-0.494,0.203,-0.321,-0.758,73.86,16.31,-81.23,-0.4647,-0.0297,0.2218,0.8566,0.053,-0.03,-0.14100000000000001
2025-11-06 18:37:24.030,300.115,-0.059000000000000004,-0.007,-0.483,0.163,-0.316,-0.837,73.86,16.31,-81.23,-0.4652,-0.027200000000000002,0.2197,0.8570000000000001,0.089,-0.035,-0.063
2025-11-06 18:37:24.030,300.12,-0.074,-0.012,-0.481,0.139,-0.335,-0.897,73.86,16.31,-81.23,-0.4656,-0.023700000000000002,0.217,0.8575,0.105,-0.014,-0.006
2025-11-06 18:37:24.030,300.125,-0.08700000000000001,-0.023,-0.487,0.121,-0.36,-0.9490000000000001,73.98,16.1,-81.23,-0.466,-0.0193,0.2142,0.8581000000000001,0.113,0.01,0.042
2025-11-06 18:37:24.031,300.13,-0.09,-0.025,-0.505,0.125,-0.357,-0.97,73.98,16.1,-81.23,-0.46640000000000004,-0.015600000000000001,0.21130000000000002,0.8588,0.101,0.009000000000000001,0.061
2025-11-06 18:37:24.031,300.135,-0.06,0.004,-0.55,0.162,-0.342,-0.961,73.92,16.16,-81.23,-0.4666,-0.014,0.20900000000000002,0.8592000000000001,0.057,-0.004,0.049
2025-11-06 18:37:24.031,300.14,-0.022,0.029,-0.5690000000000001,0.188,-0.289,-0.9550000000000001,73.92,16.16,-81.23,-0.4655,-0.015000000000000001,0.20570000000000002,0.8606,0.029,-0.051000000000000004,0.041
2025-11-06 18:37:24.031,300.145,0.018000000000000002,0.043000000000000003,-0.5700000000000001,0.221,-0.261,-0.972,73.72,16.57,-80.23,-0.4636,-0.018000000000000002,0.2021,0.8624,-0.003,-0.07200000000000001,0.055
2025-11-06 18:37:24.031,300.15,0.054,0.046,-0.549,0.226,-0.249,-0.992,73.72,16.57,-80.23,-0.4616,-0.021,0.1983,0.8643000000000001,-0.007,-0.075,0.07200000000000001
2025-11-06 18:37:24.031,300.155,0.099,0.045,-0.5,0.223,-0.251,-0.988,73.72,16.57,-80.23,-0.4601,-0.0234,0.195,0.8658,-0.003,-0.066,0.065
2025-11-06 18:37:24.031,300.16,0.145,0.056,-0.452,0.218,-0.272,-0.9470000000000001,73.86,16.54,-81.43,-0.4597,-0.0247,0.19340000000000002,0.8663000000000001,0.002,-0.04,0.023
2025-11-06 18:37:24.031,300.165,0.164,0.039,-0.428,0.217,-0.328,-0.922,73.86,16.54,-81.43,-0.4612,-0.024200000000000003,0.1943,0.8653000000000001,0.003,0.015,-0.001
2025-11-06 18:37:24.031,300.17,0.17200000000000001,-0.019,-0.40700000000000003,0.198,-0.385,-0.893,73.66,16.89,-81.49,-0.4647,-0.0211,0.1973,0.8628,0.021,0.066,-0.027
2025-11-06 18:37:24.031,300.175,0.17300000000000001,-0.099,-0.387,0.187,-0.365,-0.869,73.66,16.89,-81.49,-0.4677,-0.0181,0.1995,0.8608,0.03,0.039,-0.05
2025-11-06 18:37:24.031,300.18,0.20700000000000002,-0.182,-0.34600000000000003,0.17,-0.329,-0.857,73.66,16.89,-81.49,-0.46950000000000003,-0.0154,0.2,0.8597,0.044,0.0,-0.062
2025-11-06 18:37:24.031,300.185,0.259,-0.21,-0.313,0.164,-0.321,-0.855,73.28,17.240000000000002,-80.94,-0.47100000000000003,-0.0129,0.20020000000000002,0.8589,0.047,-0.009000000000000001,-0.063
2025-11-06 18:37:24.031,300.19,0.325,-0.231,-0.28,0.164,-0.313,-0.853,73.28,17.240000000000002,-80.94,-0.4721,-0.010700000000000001,0.20020000000000002,0.8584,0.043000000000000003,-0.019,-0.065
2025-11-06 18:37:24.035,300.195,0.39,-0.23700000000000002,-0.251,0.157,-0.299,-0.851,73.77,16.89,-81.32000000000001,-0.4726,-0.008700000000000001,0.1996,0.8582000000000001,0.047,-0.034,-0.068
2025-11-06 18:37:24.035,300.2,0.464,-0.23500000000000001,-0.213,0.14200000000000002,-0.28400000000000003,-0.853,73.77,16.89,-81.32000000000001,-0.47250000000000003,-0.0066,0.19840000000000002,0.8586,0.058,-0.049,-0.067
2025-11-06 18:37:24.035,300.205,0.531,-0.256,-0.191,0.131,-0.274,-0.85,74.27,16.69,-82.22,-0.4721,-0.0045000000000000005,0.1967,0.8592000000000001,0.063,-0.059000000000000004,-0.07100000000000001
2025-11-06 18:37:24.035,300.21,0.5650000000000001,-0.248,-0.184,0.136,-0.261,-0.836,74.27,16.69,-82.22,-0.47140000000000004,-0.0031000000000000003,0.1952,0.86,0.053,-0.07100000000000001,-0.08600000000000001
2025-11-06 18:37:24.035,300.215,0.581,-0.193,-0.181,0.157,-0.242,-0.8170000000000001,74.27,16.69,-82.22,-0.4698,-0.0036000000000000003,0.1938,0.8612000000000001,0.03,-0.088,-0.107
2025-11-06 18:37:24.035,300.22,0.596,-0.108,-0.18,0.183,-0.21,-0.805,74.27,17.04,-81.93,-0.4667,-0.0066,0.19210000000000002,0.8632000000000001,0.006,-0.116,-0.11900000000000001
2025-11-06 18:37:24.035,300.225,0.633,0.013000000000000001,-0.18,0.232,-0.165,-0.812,74.27,17.04,-81.93,-0.46140000000000003,-0.0134,0.1897,0.8665,-0.036000000000000004,-0.153,-0.114
2025-11-06 18:37:24.035,300.23,0.68,0.053,-0.179,0.248,-0.154,-0.8200000000000001,73.63,17.04,-80.56,-0.45630000000000004,-0.0206,0.1875,0.8695,-0.043000000000000003,-0.154,-0.107
2025-11-06 18:37:24.035,300.235,0.743,0.068,-0.183,0.261,-0.156,-0.8200000000000001,73.63,17.04,-80.56,-0.4516,-0.027600000000000003,0.1859,0.8721,-0.048,-0.145,-0.108
2025-11-06 18:37:24.035,300.24,0.808,0.062,-0.186,0.274,-0.151,-0.812,73.63,16.95,-81.37,-0.44720000000000004,-0.0346,0.1847,0.8744000000000001,-0.051000000000000004,-0.14200000000000002,-0.116
2025-11-06 18:37:24.035,300.245,0.875,0.048,-0.188,0.296,-0.156,-0.805,73.63,16.95,-81.37,-0.4424,-0.042,0.1845,0.8765000000000001,-0.062,-0.13,-0.123
2025-11-06 18:37:24.035,300.25,0.932,-0.001,-0.177,0.303,-0.161,-0.789,73.63,16.95,-81.37,-0.4379,-0.0489,0.1849,0.8784000000000001,-0.058,-0.12,-0.138
2025-11-06 18:37:24.035,300.255,0.978,0.013000000000000001,-0.198,0.322,-0.183,-0.783,73.75,16.740000000000002,-80.41,-0.43270000000000003,-0.0558,0.18660000000000002,0.8802000000000001,-0.065,-0.097,-0.14100000000000001
2025-11-06 18:37:24.035,300.26,1.0210000000000001,0.022,-0.209,0.342,-0.193,-0.763,73.75,16.740000000000002,-80.41,-0.4267,-0.0631,0.1893,0.882,-0.07200000000000001,-0.08600000000000001,-0.157
2025-11-06 18:37:24.035,300.265,1.059,0.042,-0.219,0.357,-0.217,-0.711,74.83,16.34,-80.15,-0.4184,-0.0712,0.19410000000000002,0.8843000000000001,-0.07200000000000001,-0.065,-0.20400000000000001
2025-11-06 18:37:24.035,300.27,1.107,0.098,-0.242,0.38,-0.245,-0.6920000000000001,74.83,16.34,-80.15,-0.40890000000000004,-0.0796,0.20040000000000002,0.8866,-0.079,-0.043000000000000003,-0.215
2025-11-06 18:37:24.035,300.275,1.1340000000000001,0.112,-0.242,0.366,-0.256,-0.66,74.83,16.34,-80.15,-0.4001,-0.0869,0.2071,0.8884000000000001,-0.049,-0.04,-0.24
2025-11-06 18:37:24.035,300.28,1.159,0.134,-0.244,0.35000000000000003,-0.264,-0.64,74.74,16.22,-80.91,-0.39230000000000004,-0.09290000000000001,0.21380000000000002,0.8897,-0.02,-0.041,-0.252
2025-11-06 18:37:24.035,300.285,1.191,0.14400000000000002,-0.241,0.33,-0.273,-0.619,74.74,16.22,-80.91,-0.3849,-0.0976,0.22060000000000002,0.8908,0.01,-0.042,-0.265
2025-11-06 18:37:24.035,300.29,1.236,0.145,-0.24,0.311,-0.28300000000000003,-0.593,73.45,15.98,-80.61,-0.3774,-0.1012,0.2277,0.8918,0.038,-0.043000000000000003,-0.28400000000000003
2025-11-06 18:37:24.035,300.295,1.283,0.123,-0.23900000000000002,0.292,-0.28300000000000003,-0.578,73.45,15.98,-80.61,-0.37110000000000004,-0.10350000000000001,0.23440000000000003,0.8924000000000001,0.065,-0.055,-0.291
2025-11-06 18:37:24.035,300.3,1.317,0.112,-0.245,0.271,-0.28,-0.5690000000000001,73.83,15.46,-79.59,-0.36610000000000004,-0.1046,0.2404,0.8928,0.09,-0.069,-0.294
2025-11-06 18:37:24.035,300.305,1.353,0.097,-0.256,0.251,-0.275,-0.5760000000000001,73.83,15.46,-79.59,-0.36310000000000003,-0.1041,0.2452,0.8928,0.112,-0.084,-0.28200000000000003
2025-11-06 18:37:24.035,300.31,1.3880000000000001,0.082,-0.269,0.23800000000000002,-0.276,-0.61,73.83,15.46,-79.59,-0.3624,-0.10200000000000001,0.2485,0.8924000000000001,0.124,-0.092,-0.245
2025-11-06 18:37:24.035,300.315,1.438,0.061,-0.28500000000000003,0.223,-0.281,-0.67,73.39,15.870000000000001,-80.56,-0.3642,-0.0979,0.2503,0.8916000000000001,0.135,-0.092,-0.184
2025-11-06 18:37:24.035,300.32,1.478,0.034,-0.28300000000000003,0.20500000000000002,-0.278,-0.7030000000000001,73.39,15.870000000000001,-80.56,-0.3679,-0.0926,0.2508,0.8905000000000001,0.146,-0.099,-0.153
2025-11-06 18:37:24.035,300.325,1.5170000000000001,0.023,-0.29,0.2,-0.28200000000000003,-0.728,73.89,15.17,-79.85000000000001,-0.372,-0.08700000000000001,0.251,0.8893000000000001,0.14300000000000002,-0.098,-0.129
2025-11-06 18:37:24.035,300.33,1.565,0.021,-0.294,0.214,-0.28700000000000003,-0.764,73.89,15.17,-79.85000000000001,-0.3766,-0.082,0.251,0.8879,0.122,-0.096,-0.096
2025-11-06 18:37:24.035,300.335,1.653,0.015,-0.289,0.225,-0.28800000000000003,-0.783,73.89,15.17,-79.85000000000001,-0.3811,-0.0776,0.2511,0.8863000000000001,0.10400000000000001,-0.096,-0.078
2025-11-06 18:37:24.035,300.34,1.744,0.034,-0.291,0.23600000000000002,-0.28700000000000003,-0.781,73.92,15.11,-79.88,-0.38530000000000003,-0.07400000000000001,0.2515,0.8847,0.089,-0.1,-0.08
2025-11-06 18:37:24.035,300.345,1.805,0.067,-0.293,0.252,-0.292,-0.766,73.92,15.11,-79.88,-0.3886,-0.0716,0.25270000000000004,0.8831,0.07,-0.097,-0.095
2025-11-06 18:37:24.035,300.35,1.86,0.09,-0.297,0.257,-0.29,-0.734,74.36,14.64,-79.77,-0.3912,-0.07010000000000001,0.25470000000000004,0.8815000000000001,0.064,-0.10300000000000001,-0.126
2025-11-06 18:37:24.035,300.355,1.9000000000000001,0.107,-0.303,0.254,-0.292,-0.668,74.36,14.64,-79.77,-0.3927,-0.06910000000000001,0.2581,0.8799,0.069,-0.106,-0.189
2025-11-06 18:37:24.035,300.36,1.945,0.108,-0.324,0.23800000000000002,-0.297,-0.606,74.15,14.44,-78.92,-0.3932,-0.0679,0.263,0.8783000000000001,0.08700000000000001,-0.108,-0.246
2025-11-06 18:37:24.035,300.365,1.972,0.09,-0.332,0.225,-0.298,-0.5660000000000001,74.15,14.44,-78.92,-0.3934,-0.0663,0.2686,0.8766,0.101,-0.117,-0.281
2025-11-06 18:37:24.035,300.37,1.999,0.057,-0.335,0.212,-0.314,-0.537,74.15,14.44,-78.92,-0.3932,-0.0639,0.2752,0.8749,0.115,-0.113,-0.304
2025-11-06 18:37:24.035,300.375,2.027,0.019,-0.338,0.21,-0.332,-0.509,74.33,14.08,-79.5,-0.39230000000000004,-0.061200000000000004,0.2831,0.8729,0.11800000000000001,-0.109,-0.324
2025-11-06 18:37:24.035,300.38,2.067,0.002,-0.343,0.218,-0.361,-0.48,74.33,14.08,-79.5,-0.39080000000000004,-0.058600000000000006,0.29300000000000004,0.8705,0.112,-0.098,-0.343
2025-11-06 18:37:24.035,300.385,2.107,0.02,-0.367,0.20500000000000002,-0.385,-0.458,74.71000000000001,13.65,-78.48,-0.38880000000000003,-0.055,0.304,0.8679,0.126,-0.094,-0.354
2025-11-06 18:37:24.035,300.39,2.132,0.03,-0.374,0.23600000000000002,-0.41300000000000003,-0.531,74.71000000000001,13.65,-78.48,-0.3879,-0.0522,0.31270000000000003,0.8654000000000001,0.096,-0.083,-0.269
2025-11-06 18:37:24.035,300.395,2.18,-0.022,-0.357,0.226,-0.438,-0.5680000000000001,74.71000000000001,13.65,-78.48,-0.3866,-0.0483,0.3201,0.8635,0.105,-0.073,-0.223
2025-11-06 18:37:24.035,300.4,2.22,-0.056,-0.34400000000000003,0.229,-0.464,-0.611,74.21000000000001,13.3,-78.51,-0.3854,-0.0441,0.3265,0.8618,0.099,-0.061,-0.17300000000000001
2025-11-06 18:37:24.035,300.405,2.261,-0.075,-0.307,0.246,-0.527,-0.665,74.21000000000001,13.3,-78.51,-0.384,-0.0396,0.3331,0.8601000000000001,0.078,-0.011,-0.111
2025-11-06 18:37:24.035,300.41,2.285,-0.08,-0.277,0.25,-0.562,-0.715,74.65,12.8,-77.93,-0.3825,-0.035,0.3388,0.8588,0.07,0.01,-0.053
2025-11-06 18:37:24.035,300.415,2.299,-0.038,-0.25,0.258,-0.605,-0.758,74.65,12.8,-77.93,-0.3808,-0.030500000000000003,0.3443,0.8575,0.057,0.041,-0.004
2025-11-06 18:37:24.035,300.42,2.319,-0.001,-0.213,0.28,-0.641,-0.774,74.24,12.33,-78.33,-0.37970000000000004,-0.0264,0.3502,0.8558,0.031,0.065,0.019
2025-11-06 18:37:24.035,300.425,2.349,0.056,-0.164,0.312,-0.654,-0.736,74.24,12.33,-78.33,-0.37970000000000004,-0.023200000000000002,0.35750000000000004,0.8529,-0.001,0.066,-0.009000000000000001
2025-11-06 18:37:24.035,300.43,2.388,0.121,-0.116,0.324,-0.671,-0.6900000000000001,74.24,12.33,-78.33,-0.38020000000000004,-0.020200000000000003,0.36610000000000004,0.8490000000000001,-0.011,0.068,-0.043000000000000003
2025-11-06 18:37:24.035,300.435,2.424,0.155,-0.085,0.331,-0.6910000000000001,-0.637,74.24,12.13,-77.49,-0.38120000000000004,-0.017,0.37620000000000003,0.8443,-0.017,0.07200000000000001,-0.082
2025-11-06 18:37:24.035,300.44,2.451,0.17200000000000001,-0.04,0.328,-0.6970000000000001,-0.584,74.24,12.13,-77.49,-0.3821,-0.0135,0.38720000000000004,0.8389000000000001,-0.01,0.062,-0.11900000000000001
2025-11-06 18:37:24.035,300.445,2.473,0.167,0.009000000000000001,0.322,-0.72,-0.519,75.85000000000001,11.22,-77.4,-0.38270000000000004,-0.0094,0.4,0.8327,-0.001,0.066,-0.165
2025-11-06 18:37:24.035,300.45,2.504,0.14100000000000001,0.08600000000000001,0.304,-0.724,-0.47500000000000003,75.85000000000001,11.22,-77.4,-0.3821,-0.0047,0.41300000000000003,0.8266,0.018000000000000002,0.05,-0.188
2025-11-06 18:37:24.035,300.455,2.5220000000000002,0.14100000000000001,0.138,0.28,-0.727,-0.46900000000000003,75.85000000000001,11.22,-77.4,-0.3795,0.0,0.4249,0.8218000000000001,0.042,0.034,-0.17400000000000002
2025-11-06 18:37:24.035,300.46,2.54,0.171,0.18,0.255,-0.74,-0.481,74.97,10.31,-77.31,-0.37460000000000004,0.0045000000000000005,0.4353,0.8186,0.064,0.028,-0.14400000000000002
2025-11-06 18:37:24.036,300.465,2.544,0.2,0.222,0.233,-0.734,-0.506,74.97,10.31,-77.31,-0.36810000000000004,0.0085,0.4435,0.8170000000000001,0.08,0.006,-0.10300000000000001
2025-11-06 18:37:24.036,300.47,2.525,0.2,0.262,0.218,-0.741,-0.534,74.56,10.200000000000001,-76.23,-0.36050000000000004,0.012,0.45,0.8168000000000001,0.088,0.0,-0.063
2025-11-06 18:37:24.036,300.475,2.484,0.166,0.289,0.212,-0.739,-0.5670000000000001,74.56,10.200000000000001,-76.23,-0.3529,0.0149,0.45470000000000005,0.8175,0.085,-0.012,-0.02
2025-11-06 18:37:24.036,300.48,2.458,0.133,0.304,0.222,-0.754,-0.601,75.15,9.58,-76.17,-0.3461,0.0171,0.4582,0.8184,0.068,-0.005,0.02
2025-11-06 18:37:24.036,300.485,2.439,0.101,0.298,0.232,-0.835,-0.615,75.15,9.58,-76.17,-0.3402,0.02,0.4626,0.8184,0.05,0.065,0.043000000000000003
2025-11-06 18:37:24.036,300.49,2.396,0.089,0.331,0.267,-0.749,-0.635,75.15,9.58,-76.17,-0.3371,0.020800000000000003,0.4646,0.8185,0.012,-0.023,0.067
2025-11-06 18:37:24.036,300.495,2.378,0.067,0.326,0.28800000000000003,-0.799,-0.61,74.59,8.91,-75.41,-0.3356,0.0224,0.4685,0.8168000000000001,-0.01,0.02,0.048
2025-11-06 18:37:24.036,300.5,2.374,0.052000000000000005,0.317,0.3,-0.802,-0.606,74.59,8.91,-75.41,-0.335,0.0239,0.4723,0.8149000000000001,-0.023,0.018000000000000002,0.051000000000000004
2025-11-06 18:37:24.036,300.505,2.38,0.028,0.322,0.304,-0.8310000000000001,-0.6,74.27,7.890000000000001,-74.39,-0.3345,0.0256,0.47640000000000005,0.8126,-0.027,0.041,0.053
2025-11-06 18:37:24.036,300.51,2.396,0.005,0.343,0.31,-0.845,-0.607,74.27,7.890000000000001,-74.39,-0.33390000000000003,0.0273,0.4803,0.8105,-0.034,0.05,0.068
2025-11-06 18:37:24.036,300.515,2.423,-0.045,0.392,0.339,-0.873,-0.601,74.27,7.890000000000001,-74.97,-0.3345,0.029,0.4847,0.8075,-0.062,0.07200000000000001,0.07100000000000001
2025-11-06 18:37:24.036,300.52,2.436,-0.067,0.437,0.36,-0.879,-0.602,74.74,7.42,-74.97,-0.3357,0.0304,0.48900000000000005,0.8044,-0.081,0.073,0.08
2025-11-06 18:37:24.036,300.525,2.444,-0.024,0.46,0.36,-0.904,-0.604,74.74,7.42,-74.97,-0.3365,0.031900000000000005,0.4933,0.8014,-0.08,0.093,0.09
2025-11-06 18:37:24.036,300.53,2.428,0.039,0.49,0.34800000000000003,-0.924,-0.617,74.83,6.4,-74.15,-0.3362,0.0335,0.497,0.7991,-0.067,0.109,0.111
2025-11-06 18:37:24.036,300.535,2.3850000000000002,0.07100000000000001,0.532,0.319,-0.9420000000000001,-0.608,74.83,6.4,-74.15,-0.3347,0.0358,0.5007,0.7974,-0.04,0.121,0.11
2025-11-06 18:37:24.036,300.54,2.283,0.039,0.588,0.31,-0.969,-0.5700000000000001,74.71000000000001,6.0200000000000005,-73.60000000000001,-0.33280000000000004,0.0386,0.5052,0.7952,-0.035,0.14200000000000002,0.082
2025-11-06 18:37:24.036,300.545,2.211,-0.014,0.617,0.313,-0.981,-0.51,74.71000000000001,6.0200000000000005,-73.60000000000001,-0.33140000000000003,0.0419,0.511,0.7919,-0.04,0.146,0.032
2025-11-06 18:37:24.036,300.55,2.14,-0.069,0.619,0.331,-0.982,-0.437,74.71000000000001,6.0200000000000005,-73.60000000000001,-0.331,0.045200000000000004,0.5183,0.7872,-0.06,0.138,-0.025
2025-11-06 18:37:24.036,300.555,2.058,-0.085,0.603,0.337,-0.984,-0.377,74.91,5.5200000000000005,-73.13,-0.331,0.0487,0.5266000000000001,0.7814,-0.065,0.131,-0.068
2025-11-06 18:37:24.036,300.56,1.953,-0.039,0.5760000000000001,0.318,-1.0070000000000001,-0.338,74.91,5.5200000000000005,-73.13,-0.3299,0.0526,0.5353,0.7757000000000001,-0.046,0.14400000000000002,-0.08700000000000001
2025-11-06 18:37:24.036,300.565,1.845,0.032,0.552,0.289,-1.039,-0.334,74.59,4.41,-72.87,-0.327,0.056400000000000006,0.5433,0.7711,-0.019,0.166,-0.07200000000000001
2025-11-06 18:37:24.036,300.57,1.7590000000000001,0.059000000000000004,0.55,0.261,-1.061,-0.34500000000000003,74.59,4.41,-72.87,-0.32270000000000004,0.060200000000000004,0.5502,0.7677,0.003,0.18,-0.045
2025-11-06 18:37:24.036,300.575,1.684,0.054,0.554,0.231,-1.071,-0.357,74.71000000000001,4.26,-72.05,-0.31720000000000004,0.0637,0.5559000000000001,0.7656000000000001,0.025,0.181,-0.019
2025-11-06 18:37:24.036,300.58,1.6340000000000001,0.012,0.56,0.209,-1.066,-0.366,74.71000000000001,4.26,-72.05,-0.3113,0.0671,0.5605,0.7644000000000001,0.038,0.169,0.001
2025-11-06 18:37:24.036,300.585,1.584,-0.05,0.548,0.217,-1.052,-0.376,74.71000000000001,4.26,-72.05,-0.30660000000000004,0.07010000000000001,0.5643,0.7632,0.023,0.149,0.021
2025-11-06 18:37:24.036,300.59,1.55,-0.077,0.535,0.228,-1.041,-0.393,74.27,3.36,-72.28,-0.30310000000000004,0.07250000000000001,0.5671,0.7623000000000001,0.006,0.134,0.045
2025-11-06 18:37:24.036,300.595,1.504,-0.095,0.522,0.247,-1.033,-0.438,74.27,3.36,-72.28,-0.3008,0.07390000000000001,0.5683,0.7622,-0.017,0.122,0.094
2025-11-06 18:37:24.036,300.6,1.462,-0.131,0.512,0.261,-1.035,-0.481,74.48,2.95,-72.11,-0.2992,0.0746,0.5682,0.7628,-0.034,0.124,0.139
2025-11-06 18:37:24.036,300.605,1.409,-0.186,0.523,0.29,-1.0070000000000001,-0.551,74.48,2.95,-72.11,-0.29910000000000003,0.07400000000000001,0.5660000000000001,0.7645000000000001,-0.065,0.096,0.20400000000000001
2025-11-06 18:37:24.036,300.61,1.366,-0.263,0.54,0.31,-0.992,-0.583,74.48,2.95,-72.11,-0.3,0.07300000000000001,0.5630000000000001,0.7665000000000001,-0.084,0.084,0.229
2025-11-06 18:37:24.036,300.615,1.339,-0.336,0.556,0.327,-0.98,-0.586,74.36,2.54,-72.52,-0.30160000000000003,0.0718,0.56,0.7682,-0.1,0.075,0.226
2025-11-06 18:37:24.036,300.62,1.308,-0.403,0.5730000000000001,0.34,-0.971,-0.5680000000000001,74.36,2.54,-72.52,-0.30360000000000004,0.07060000000000001,0.5576,0.7692,-0.11,0.07,0.201
2025-11-06 18:37:24.036,300.625,1.262,-0.5,0.58,0.34600000000000003,-0.966,-0.519,74.18,1.95,-72.08,-0.30560000000000004,0.06960000000000001,0.5565,0.7693,-0.114,0.067,0.149
2025-11-06 18:37:24.037,300.63,1.175,-0.6970000000000001,0.584,0.356,-0.976,-0.467,74.18,1.95,-72.08,-0.3074,0.069,0.5569000000000001,0.7684000000000001,-0.12,0.077,0.096
2025-11-06 18:37:24.037,300.635,1.117,-0.8130000000000001,0.582,0.377,-1.006,-0.429,73.83,1.69,-71.41,-0.309,0.0684,0.5586,0.7666000000000001,-0.138,0.107,0.061
2025-11-06 18:37:24.037,300.64,1.062,-0.902,0.58,0.396,-1.047,-0.406,73.83,1.69,-71.41,-0.3103,0.0679,0.5611,0.7642,-0.153,0.148,0.043000000000000003
2025-11-06 18:37:24.037,300.645,1.0130000000000001,-0.965,0.579,0.392,-1.076,-0.398,73.83,1.69,-71.41,-0.3114,0.068,0.5637,0.7619,-0.145,0.17500000000000002,0.042
2025-11-06 18:37:24.037,300.65,0.9550000000000001,-0.976,0.584,0.362,-1.09,-0.379,74.48,1.34,-71.82000000000001,-0.3116,0.06910000000000001,0.5664,0.7597,-0.114,0.186,0.029
2025-11-06 18:37:24.037,300.655,0.881,-0.975,0.578,0.332,-1.119,-0.34500000000000003,74.48,1.34,-71.82000000000001,-0.3105,0.0711,0.5698,0.7574000000000001,-0.085,0.212,0.002
2025-11-06 18:37:24.037,300.66,0.787,-0.975,0.5690000000000001,0.3,-1.098,-0.316,73.16,0.73,-71.55,-0.3089,0.0737,0.5732,0.7553000000000001,-0.056,0.188,-0.016
2025-11-06 18:37:24.037,300.665,0.6990000000000001,-0.984,0.559,0.263,-1.09,-0.316,73.16,0.73,-71.55,-0.30710000000000004,0.077,0.5758,0.7537,-0.024,0.17500000000000002,-0.009000000000000001
2025-11-06 18:37:24.037,300.67,0.643,-1.014,0.546,0.227,-1.078,-0.335,73.16,0.73,-71.55,-0.3053,0.08120000000000001,0.5772,0.7529,0.005,0.16,0.014
2025-11-06 18:37:24.037,300.675,0.5750000000000001,-1.115,0.525,0.195,-1.058,-0.353,73.48,0.23,-71.49,-0.3039,0.08610000000000001,0.5773,0.7528,0.028,0.137,0.034
2025-11-06 18:37:24.037,300.68,0.54,-1.186,0.502,0.181,-1.035,-0.34700000000000003,73.48,0.23,-71.49,-0.3028,0.0911,0.5772,0.7528,0.033,0.111,0.03
2025-11-06 18:37:24.037,300.685,0.506,-1.241,0.46900000000000003,0.17200000000000001,-1.033,-0.338,72.81,0.4,-71.93,-0.3018,0.0961,0.5772,0.7526,0.033,0.107,0.022
2025-11-06 18:37:24.037,300.69,0.47300000000000003,-1.2770000000000001,0.43,0.17,-1.03,-0.341,72.81,0.4,-71.93,-0.3012,0.1009,0.5769000000000001,0.7524000000000001,0.027,0.10200000000000001,0.026000000000000002
2025-11-06 18:37:24.037,300.695,0.44,-1.311,0.397,0.155,-1.027,-0.358,72.63,-0.11,-72.17,-0.3008,0.1057,0.5759000000000001,0.7527,0.033,0.097,0.044
2025-11-06 18:37:24.037,300.7,0.40900000000000003,-1.32,0.367,0.147,-1.034,-0.366,72.63,-0.11,-72.17,-0.30060000000000003,0.11040000000000001,0.5746,0.753,0.033,0.10300000000000001,0.051000000000000004
2025-11-06 18:37:24.037,300.705,0.38,-1.308,0.353,0.135,-1.042,-0.37,72.63,-0.11,-72.17,-0.3003,0.11510000000000001,0.5733,0.7535000000000001,0.037,0.109,0.054
2025-11-06 18:37:24.037,300.71,0.34700000000000003,-1.28,0.342,0.127,-1.052,-0.368,72.11,-0.38,-72.84,-0.3,0.1199,0.5721,0.7538,0.037,0.11800000000000001,0.051000000000000004
2025-11-06 18:37:24.037,300.715,0.316,-1.249,0.328,0.13,-1.045,-0.377,72.11,-0.38,-72.84,-0.3,0.124,0.5706,0.7543000000000001,0.026000000000000002,0.11,0.06
2025-11-06 18:37:24.037,300.72,0.281,-1.203,0.307,0.126,-1.044,-0.385,72.14,-0.99,-73.54,-0.30010000000000003,0.1278,0.5689000000000001,0.7549,0.023,0.109,0.066
2025-11-06 18:37:24.037,300.725,0.266,-1.176,0.293,0.126,-1.033,-0.393,72.14,-0.99,-73.54,-0.3004,0.1311,0.5670000000000001,0.7556,0.017,0.097,0.07100000000000001
2025-11-06 18:37:24.037,300.73,0.256,-1.172,0.28600000000000003,0.129,-1.016,-0.40700000000000003,72.14,-0.99,-73.54,-0.3009,0.1338,0.5647,0.7566,0.008,0.081,0.082
2025-11-06 18:37:24.038,300.735,0.259,-1.183,0.29,0.122,-0.996,-0.406,71.67,-0.38,-73.98,-0.3015,0.1365,0.5623,0.7577,0.01,0.061,0.077
2025-11-06 18:37:24.038,300.74,0.256,-1.221,0.28600000000000003,0.111,-0.977,-0.38,71.67,-0.38,-73.98,-0.30210000000000004,0.13970000000000002,0.5605,0.7582,0.016,0.042,0.048
2025-11-06 18:37:24.038,300.745,0.244,-1.254,0.279,0.10300000000000001,-0.98,-0.37,71.73,-1.19,-74.65,-0.3028,0.1433,0.559,0.7584000000000001,0.018000000000000002,0.045,0.036000000000000004
2025-11-06 18:37:24.038,300.75,0.241,-1.2790000000000001,0.279,0.092,-0.98,-0.363,71.73,-1.19,-74.65,-0.3034,0.1472,0.5576,0.7584000000000001,0.023,0.045,0.029
2025-11-06 18:37:24.038,300.755,0.251,-1.303,0.278,0.083,-0.984,-0.356,71.2,-1.31,-74.62,-0.30410000000000004,0.1514,0.5565,0.7581,0.026000000000000002,0.048,0.021
2025-11-06 18:37:24.038,300.76,0.258,-1.314,0.28800000000000003,0.074,-0.982,-0.34700000000000003,71.2,-1.31,-74.62,-0.3047,0.1559,0.5556,0.7576,0.029,0.045,0.013000000000000001
2025-11-06 18:37:24.038,300.765,0.249,-1.321,0.293,0.065,-0.979,-0.324,71.2,-1.31,-74.62,-0.3054,0.16090000000000002,0.5552,0.7566,0.031,0.041,-0.008
2025-11-06 18:37:24.038,300.77,0.23500000000000001,-1.318,0.294,0.06,-0.9580000000000001,-0.31,70.38,-0.87,-75.44,-0.30610000000000004,0.1658,0.5549000000000001,0.7555000000000001,0.029,0.018000000000000002,-0.019
2025-11-06 18:37:24.038,300.775,0.222,-1.309,0.292,0.057,-0.927,-0.304,70.38,-0.87,-75.44,-0.3069,0.1703,0.5544,0.7545000000000001,0.026000000000000002,-0.013000000000000001,-0.023
2025-11-06 18:37:24.038,300.78,0.224,-1.305,0.29,0.053,-0.913,-0.304,70.3,-1.34,-75.44,-0.30760000000000004,0.17450000000000002,0.5538000000000001,0.7537,0.025,-0.028,-0.021
2025-11-06 18:37:24.038,300.785,0.232,-1.334,0.28600000000000003,0.05,-0.919,-0.29,70.3,-1.34,-75.44,-0.3085,0.17900000000000002,0.5535,0.7525000000000001,0.023,-0.024,-0.033
2025-11-06 18:37:24.038,300.79,0.227,-1.367,0.293,0.052000000000000005,-0.917,-0.28,70.3,-1.34,-75.44,-0.30960000000000004,0.1835,0.5536,0.7509,0.015,-0.027,-0.04
