System_Time,Timestamp,Gyro_X,Gyro_Y,Gyro_Z,Acc_X,Acc_Y,Acc_Z,Mag_X,Mag_Y,Mag_Z,Quat_W,Quat_X,Quat_Y,Quat_Z,Linear_Acc_X,Linear_Acc_Y,Linear_Acc_Z
2025-11-06 18:37:06.515,292.925,-0.07200000000000001,0.183,-0.15,-0.34600000000000003,-0.966,0.012,8.47,-3.88,-55.27,0.6910000000000001,-0.6907,0.006900000000000001,-0.2129,0.024,0.007,-0.03
2025-11-06 18:37:06.515,292.93,-0.199,0.966,-0.896,-0.367,-0.9530000000000001,0.036000000000000004,8.47,-3.88,-55.27,0.6918000000000001,-0.6898000000000001,0.0038,-0.21300000000000002,0.049,-0.005,-0.057
2025-11-06 18:37:06.515,292.935,-1.199,5.384,-4.086,-0.366,-0.9540000000000001,0.038,7.04,-5.29,-55.33,0.6960000000000001,-0.6848000000000001,-0.0117,-0.2155,0.064,-0.008,-0.068
2025-11-06 18:37:06.515,292.94,-0.497,2.6430000000000002,-2.063,-0.364,-0.9540000000000001,0.04,7.04,-5.29,-55.33,0.6978000000000001,-0.6824,-0.0195,-0.2165,0.078,-0.012,-0.081
2025-11-06 18:37:06.515,292.945,0.222,-0.308,0.17,-0.361,-0.9550000000000001,0.042,6.66,-5.11,-54.83,0.6973,-0.683,-0.0188,-0.21630000000000002,0.075,-0.011,-0.081
2025-11-06 18:37:06.515,292.95,-0.001,-0.057,0.027,-0.358,-0.9550000000000001,0.044,6.66,-5.11,-54.83,0.6972,-0.6831,-0.018600000000000002,-0.21630000000000002,0.07100000000000001,-0.012,-0.083
2025-11-06 18:37:06.515,292.955,-0.047,-0.005,0.0,-0.356,-0.9560000000000001,0.045,6.66,-5.11,-54.83,0.6972,-0.6831,-0.018500000000000003,-0.21630000000000002,0.069,-0.01,-0.083
2025-11-06 18:37:06.515,292.96,-0.045,-0.003,0.001,-0.352,-0.9540000000000001,0.044,7.19,-5.0200000000000005,-55.04,0.6971,-0.6832,-0.0184,-0.2164,0.065,-0.012,-0.082
2025-11-06 18:37:06.515,292.965,-0.047,-0.001,0.001,-0.35100000000000003,-0.9550000000000001,0.041,7.19,-5.0200000000000005,-55.04,0.6970000000000001,-0.6832,-0.0182,-0.2164,0.063,-0.011,-0.079
2025-11-06 18:37:06.515,292.97,-0.048,-0.003,0.0,-0.34800000000000003,-0.9510000000000001,0.038,6.86,-5.87,-54.83,0.6968000000000001,-0.6834,-0.018000000000000002,-0.21660000000000001,0.06,-0.015,-0.076
2025-11-06 18:37:06.515,292.975,-0.048,-0.007,0.0,-0.34600000000000003,-0.9490000000000001,0.036000000000000004,6.86,-5.87,-54.83,0.6967,-0.6835,-0.0178,-0.2167,0.057,-0.017,-0.074
2025-11-06 18:37:06.515,292.98,-0.05,-0.011,0.0,-0.34400000000000003,-0.9490000000000001,0.034,6.86,-5.87,-54.83,0.6965,-0.6837000000000001,-0.0177,-0.21680000000000002,0.055,-0.017,-0.07100000000000001
2025-11-06 18:37:06.515,292.985,-0.049,-0.019,0.0,-0.34500000000000003,-0.9480000000000001,0.033,6.34,-4.32,-54.57,0.6964,-0.6837000000000001,-0.0175,-0.21680000000000002,0.055,-0.018000000000000002,-0.07
2025-11-06 18:37:06.515,292.99,-0.046,-0.03,0.002,-0.34400000000000003,-0.9480000000000001,0.032,6.34,-4.32,-54.57,0.6964,-0.6838000000000001,-0.0173,-0.2169,0.054,-0.017,-0.069
2025-11-06 18:37:06.515,292.995,-0.043000000000000003,-0.039,0.001,-0.34500000000000003,-0.9490000000000001,0.032,6.34,-4.26,-55.18,0.6963,-0.6839000000000001,-0.0171,-0.2169,0.054,-0.016,-0.069
2025-11-06 18:37:06.515,293.0,-0.039,-0.045,0.005,-0.34400000000000003,-0.9490000000000001,0.032,6.34,-4.26,-55.18,0.6962,-0.684,-0.016900000000000002,-0.2169,0.053,-0.017,-0.068
2025-11-06 18:37:06.515,293.005,-0.034,-0.044,0.007,-0.34400000000000003,-0.9490000000000001,0.032,6.34,-4.26,-55.18,0.6961,-0.6841,-0.0167,-0.2169,0.053,-0.017,-0.068
2025-11-06 18:37:06.515,293.01,-0.028,-0.036000000000000004,0.008,-0.34700000000000003,-0.9500000000000001,0.032,6.37,-4.26,-55.36,0.6959000000000001,-0.6842,-0.0165,-0.2169,0.056,-0.016,-0.068
2025-11-06 18:37:06.515,293.015,-0.025,-0.038,0.01,-0.35000000000000003,-0.9490000000000001,0.032,6.37,-4.26,-55.36,0.6958000000000001,-0.6844,-0.0162,-0.217,0.058,-0.016,-0.067
2025-11-06 18:37:06.515,293.02,-0.026000000000000002,-0.032,0.011,-0.355,-0.9470000000000001,0.032,6.4,-4.64,-55.39,0.6956,-0.6845,-0.016,-0.21710000000000002,0.062,-0.018000000000000002,-0.067
2025-11-06 18:37:06.515,293.025,-0.023,-0.031,0.012,-0.359,-0.9480000000000001,0.033,6.4,-4.64,-55.39,0.6954,-0.6847000000000001,-0.0158,-0.2172,0.066,-0.017,-0.067
2025-11-06 18:37:06.515,293.03,-0.025,-0.032,0.013000000000000001,-0.36,-0.9470000000000001,0.032,6.4,-4.64,-55.39,0.6953,-0.6848000000000001,-0.0155,-0.21730000000000002,0.067,-0.018000000000000002,-0.067
2025-11-06 18:37:06.515,293.035,-0.026000000000000002,-0.033,0.012,-0.364,-0.9470000000000001,0.033,6.22,-4.64,-54.89,0.6951,-0.6849000000000001,-0.015300000000000001,-0.2174,0.07,-0.018000000000000002,-0.067
2025-11-06 18:37:06.515,293.04,-0.023,-0.033,0.013000000000000001,-0.365,-0.9450000000000001,0.033,6.22,-4.64,-54.89,0.6949000000000001,-0.6851,-0.015000000000000001,-0.2175,0.07100000000000001,-0.02,-0.067
2025-11-06 18:37:06.515,293.045,-0.022,-0.034,0.011,-0.367,-0.9430000000000001,0.035,6.84,-4.29,-55.620000000000005,0.6948000000000001,-0.6853,-0.0148,-0.21760000000000002,0.07100000000000001,-0.022,-0.068
2025-11-06 18:37:06.515,293.05,-0.02,-0.04,0.012,-0.37,-0.9460000000000001,0.036000000000000004,6.84,-4.29,-55.620000000000005,0.6946,-0.6854,-0.0146,-0.2177,0.074,-0.019,-0.069
2025-11-06 18:37:06.515,293.055,-0.02,-0.049,0.011,-0.372,-0.9470000000000001,0.035,6.84,-4.29,-55.620000000000005,0.6945,-0.6855,-0.014400000000000001,-0.2177,0.076,-0.017,-0.068
2025-11-06 18:37:06.515,293.06,-0.017,-0.055,0.01,-0.372,-0.9470000000000001,0.034,6.54,-4.26,-55.45,0.6944,-0.6856,-0.014100000000000001,-0.2177,0.076,-0.018000000000000002,-0.067
2025-11-06 18:37:06.515,293.065,-0.019,-0.065,0.007,-0.372,-0.9460000000000001,0.033,6.54,-4.26,-55.45,0.6944,-0.6857000000000001,-0.013900000000000001,-0.2177,0.076,-0.018000000000000002,-0.065
2025-11-06 18:37:06.515,293.07,-0.022,-0.076,0.005,-0.372,-0.9480000000000001,0.031,6.16,-4.3500000000000005,-55.33,0.6943,-0.6857000000000001,-0.0137,-0.21760000000000002,0.075,-0.017,-0.063
2025-11-06 18:37:06.515,293.075,-0.022,-0.088,0.003,-0.372,-0.9480000000000001,0.029,6.16,-4.3500000000000005,-55.33,0.6943,-0.6858000000000001,-0.0135,-0.2175,0.075,-0.016,-0.061
2025-11-06 18:37:06.515,293.08,-0.025,-0.097,0.002,-0.371,-0.9490000000000001,0.028,6.16,-4.3500000000000005,-55.33,0.6943,-0.6858000000000001,-0.0132,-0.2174,0.073,-0.015,-0.06
2025-11-06 18:37:06.515,293.085,-0.029,-0.10300000000000001,0.001,-0.369,-0.9510000000000001,0.027,6.28,-4.32,-55.68,0.6943,-0.6859000000000001,-0.013000000000000001,-0.21730000000000002,0.07100000000000001,-0.014,-0.059000000000000004
2025-11-06 18:37:06.515,293.09,-0.033,-0.108,0.0,-0.367,-0.9500000000000001,0.026000000000000002,6.28,-4.32,-55.68,0.6943,-0.6859000000000001,-0.012700000000000001,-0.2172,0.069,-0.015,-0.058
2025-11-06 18:37:06.515,293.095,-0.034,-0.108,0.002,-0.367,-0.9490000000000001,0.024,5.87,-4.79,-55.65,0.6943,-0.686,-0.0125,-0.217,0.069,-0.015,-0.056
2025-11-06 18:37:06.515,293.1,-0.037,-0.113,0.0,-0.365,-0.9500000000000001,0.024,5.87,-4.79,-55.65,0.6943,-0.686,-0.0122,-0.2169,0.067,-0.014,-0.055
2025-11-06 18:37:06.517,293.105,-0.039,-0.114,0.0,-0.366,-0.9480000000000001,0.023,5.87,-4.79,-55.65,0.6943,-0.6861,-0.0119,-0.21680000000000002,0.067,-0.016,-0.054
2025-11-06 18:37:06.517,293.11,-0.038,-0.11,0.001,-0.364,-0.9460000000000001,0.019,6.34,-4.67,-56.03,0.6943,-0.6861,-0.0117,-0.21660000000000001,0.065,-0.018000000000000002,-0.05
2025-11-06 18:37:06.517,293.115,-0.035,-0.107,0.0,-0.364,-0.9460000000000001,0.019,6.34,-4.67,-56.03,0.6942,-0.6862,-0.0114,-0.2165,0.065,-0.018000000000000002,-0.05
2025-11-06 18:37:06.517,293.12,-0.031,-0.109,0.001,-0.362,-0.9440000000000001,0.019,6.34,-4.67,-56.03,0.6942,-0.6862,-0.0111,-0.2164,0.063,-0.02,-0.05
2025-11-06 18:37:06.517,293.125,-0.021,-0.101,0.002,-0.361,-0.9420000000000001,0.019,6.13,-4.41,-55.53,0.6942,-0.6863,-0.0109,-0.21630000000000002,0.062,-0.022,-0.049
2025-11-06 18:37:06.517,293.13,-0.009000000000000001,-0.097,0.001,-0.36,-0.9400000000000001,0.02,6.13,-4.41,-55.53,0.6941,-0.6864,-0.0106,-0.2162,0.06,-0.024,-0.051000000000000004
2025-11-06 18:37:06.517,293.135,0.002,-0.092,0.001,-0.359,-0.937,0.023,6.78,-4.76,-55.65,0.6941,-0.6865,-0.010400000000000001,-0.21610000000000001,0.059000000000000004,-0.027,-0.054
2025-11-06 18:37:06.517,293.14,0.017,-0.078,0.0,-0.359,-0.935,0.025,6.78,-4.76,-55.65,0.6940000000000001,-0.6866,-0.0103,-0.216,0.059000000000000004,-0.028,-0.055
2025-11-06 18:37:06.517,293.145,0.026000000000000002,-0.07200000000000001,0.0,-0.358,-0.937,0.024,6.78,-4.76,-55.65,0.6939000000000001,-0.6867000000000001,-0.010100000000000001,-0.2159,0.057,-0.027,-0.054
2025-11-06 18:37:06.517,293.15,0.041,-0.065,-0.002,-0.357,-0.937,0.025,6.0200000000000005,-4.53,-55.45,0.6938000000000001,-0.6869000000000001,-0.01,-0.21580000000000002,0.056,-0.027,-0.054
2025-11-06 18:37:06.517,293.155,0.05,-0.059000000000000004,-0.001,-0.356,-0.935,0.025,6.0200000000000005,-4.53,-55.45,0.6937,-0.687,-0.0099,-0.2157,0.055,-0.029,-0.054
2025-11-06 18:37:06.517,293.16,0.058,-0.049,-0.004,-0.354,-0.9380000000000001,0.026000000000000002,6.1000000000000005,-4.41,-56.03,0.6935,-0.6872,-0.0098,-0.2156,0.053,-0.026000000000000002,-0.054
2025-11-06 18:37:06.517,293.165,0.068,-0.041,-0.005,-0.35100000000000003,-0.9380000000000001,0.029,6.1000000000000005,-4.41,-56.03,0.6934,-0.6874,-0.0098,-0.2156,0.051000000000000004,-0.025,-0.057
2025-11-06 18:37:06.517,293.17,0.074,-0.038,-0.006,-0.34900000000000003,-0.9410000000000001,0.03,6.1000000000000005,-4.41,-56.03,0.6932,-0.6876,-0.0097,-0.2155,0.048,-0.022,-0.058
2025-11-06 18:37:06.517,293.175,0.076,-0.034,-0.01,-0.34900000000000003,-0.9400000000000001,0.032,6.13,-4.58,-55.39,0.6930000000000001,-0.6878000000000001,-0.0097,-0.2155,0.048,-0.023,-0.059000000000000004
2025-11-06 18:37:06.517,293.18,0.075,-0.027,-0.011,-0.34700000000000003,-0.9430000000000001,0.035,6.13,-4.58,-55.39,0.6929000000000001,-0.6880000000000001,-0.0097,-0.2154,0.046,-0.021,-0.061
2025-11-06 18:37:06.517,293.185,0.075,-0.019,-0.013000000000000001,-0.34700000000000003,-0.9450000000000001,0.037,6.43,-4.44,-55.620000000000005,0.6926,-0.6882,-0.0097,-0.2154,0.046,-0.019,-0.063
2025-11-06 18:37:06.517,293.19,0.073,-0.015,-0.014,-0.34700000000000003,-0.9450000000000001,0.041,6.43,-4.44,-55.620000000000005,0.6924,-0.6884,-0.009600000000000001,-0.2154,0.047,-0.018000000000000002,-0.066
2025-11-06 18:37:06.517,293.195,0.075,-0.01,-0.016,-0.34700000000000003,-0.9460000000000001,0.043000000000000003,6.43,-4.44,-55.620000000000005,0.6922,-0.6886,-0.009600000000000001,-0.2154,0.046,-0.017,-0.067
2025-11-06 18:37:06.517,293.2,0.077,-0.011,-0.019,-0.34700000000000003,-0.9480000000000001,0.044,6.0200000000000005,-4.0,-55.56,0.6920000000000001,-0.6889000000000001,-0.009600000000000001,-0.2154,0.046,-0.015,-0.067
2025-11-06 18:37:06.517,293.205,0.076,-0.02,-0.02,-0.34400000000000003,-0.9500000000000001,0.045,6.0200000000000005,-4.0,-55.56,0.6917,-0.6891,-0.009600000000000001,-0.21530000000000002,0.043000000000000003,-0.013000000000000001,-0.068
2025-11-06 18:37:06.517,293.21,0.08,-0.026000000000000002,-0.021,-0.34600000000000003,-0.9510000000000001,0.044,6.34,-4.3500000000000005,-55.53,0.6915,-0.6894,-0.009600000000000001,-0.21530000000000002,0.045,-0.013000000000000001,-0.066
2025-11-06 18:37:06.517,293.215,0.079,-0.035,-0.024,-0.34500000000000003,-0.9530000000000001,0.044,6.34,-4.3500000000000005,-55.53,0.6913,-0.6896,-0.0095,-0.2152,0.044,-0.01,-0.066
2025-11-06 18:37:06.517,293.22,0.08,-0.049,-0.025,-0.343,-0.9570000000000001,0.042,6.34,-4.3500000000000005,-55.53,0.6911,-0.6898000000000001,-0.0095,-0.2151,0.042,-0.006,-0.063
2025-11-06 18:37:06.517,293.225,0.081,-0.052000000000000005,-0.023,-0.34400000000000003,-0.9590000000000001,0.043000000000000003,6.28,-4.64,-55.83,0.6909000000000001,-0.6900000000000001,-0.0095,-0.215,0.043000000000000003,-0.004,-0.063
2025-11-06 18:37:06.517,293.23,0.082,-0.08,-0.025,-0.34500000000000003,-0.963,0.04,6.28,-4.64,-55.83,0.6908000000000001,-0.6903,-0.0094,-0.21480000000000002,0.044,-0.001,-0.059000000000000004
2025-11-06 18:37:06.517,293.235,0.078,-0.094,-0.023,-0.34600000000000003,-0.966,0.039,6.37,-4.32,-55.910000000000004,0.6906,-0.6905,-0.009300000000000001,-0.2146,0.045,0.002,-0.058
2025-11-06 18:37:06.517,293.24,0.075,-0.112,-0.023,-0.343,-0.968,0.039,6.37,-4.32,-55.910000000000004,0.6905,-0.6907,-0.0092,-0.21430000000000002,0.042,0.003,-0.057
2025-11-06 18:37:06.517,293.245,0.069,-0.126,-0.02,-0.34400000000000003,-0.968,0.039,6.37,-4.32,-55.910000000000004,0.6904,-0.6909000000000001,-0.0091,-0.2141,0.043000000000000003,0.004,-0.057
2025-11-06 18:37:06.517,293.25,0.062,-0.139,-0.018000000000000002,-0.34500000000000003,-0.971,0.041,6.05,-4.44,-55.910000000000004,0.6903,-0.6911,-0.0089,-0.21380000000000002,0.045,0.006,-0.058
2025-11-06 18:37:06.517,293.255,0.057,-0.151,-0.016,-0.34500000000000003,-0.971,0.043000000000000003,6.05,-4.44,-55.910000000000004,0.6902,-0.6913,-0.008700000000000001,-0.21350000000000002,0.045,0.007,-0.06
2025-11-06 18:37:06.517,293.26,0.056,-0.159,-0.013000000000000001,-0.34800000000000003,-0.972,0.043000000000000003,6.22,-4.32,-55.86,0.6901,-0.6914,-0.0085,-0.2132,0.048,0.007,-0.059000000000000004
2025-11-06 18:37:06.517,293.265,0.053,-0.165,-0.011,-0.35000000000000003,-0.973,0.045,6.22,-4.32,-55.86,0.6900000000000001,-0.6916,-0.0082,-0.2129,0.049,0.008,-0.06
2025-11-06 18:37:06.517,293.27,0.048,-0.17300000000000001,-0.007,-0.35000000000000003,-0.973,0.048,6.22,-4.32,-55.86,0.6899000000000001,-0.6918000000000001,-0.008,-0.2126,0.05,0.008,-0.063
2025-11-06 18:37:06.518,293.275,0.046,-0.176,-0.005,-0.35100000000000003,-0.97,0.049,6.13,-4.41,-55.77,0.6898000000000001,-0.6920000000000001,-0.0077,-0.21230000000000002,0.05,0.006,-0.064
2025-11-06 18:37:06.518,293.32,0.029,-0.178,0.002,-0.34900000000000003,-0.9540000000000001,0.061,5.96,-4.82,-55.56,0.6890000000000001,-0.6937,-0.0049,-0.2096,0.048,-0.01,-0.07100000000000001
2025-11-06 18:37:06.518,293.325,0.029,-0.168,0.003,-0.34900000000000003,-0.9540000000000001,0.061,6.13,-4.47,-56.18,0.6889000000000001,-0.6939000000000001,-0.0046,-0.2093,0.048,-0.009000000000000001,-0.07
2025-11-06 18:37:06.518,293.33,0.03,-0.167,0.0,-0.34900000000000003,-0.9530000000000001,0.062,6.13,-4.47,-56.18,0.6888000000000001,-0.6940000000000001,-0.0043,-0.20900000000000002,0.048,-0.01,-0.07200000000000001
2025-11-06 18:37:06.518,293.335,0.03,-0.162,0.0,-0.34900000000000003,-0.9510000000000001,0.06,5.99,-4.23,-56.27,0.6887,-0.6942,-0.004,-0.2087,0.047,-0.012,-0.069
2025-11-06 18:37:06.518,293.34,0.034,-0.164,-0.002,-0.34700000000000003,-0.9490000000000001,0.06,5.99,-4.23,-56.27,0.6886,-0.6944,-0.0037,-0.20850000000000002,0.045,-0.015,-0.069
2025-11-06 18:37:06.518,293.345,0.037,-0.163,-0.004,-0.34600000000000003,-0.9470000000000001,0.059000000000000004,5.99,-4.23,-56.27,0.6884,-0.6947,-0.0035,-0.2082,0.044,-0.016,-0.067
2025-11-06 18:37:06.518,293.35,0.039,-0.162,-0.005,-0.34500000000000003,-0.9470000000000001,0.058,6.4,-4.73,-56.120000000000005,0.6883,-0.6949000000000001,-0.0032,-0.2079,0.043000000000000003,-0.016,-0.065
2025-11-06 18:37:06.518,293.355,0.039,-0.162,-0.005,-0.34400000000000003,-0.9470000000000001,0.056,6.4,-4.73,-56.120000000000005,0.6882,-0.6951,-0.0029000000000000002,-0.20770000000000002,0.042,-0.016,-0.063
2025-11-06 18:37:06.518,293.36,0.037,-0.16,-0.005,-0.34400000000000003,-0.9460000000000001,0.057,6.28,-4.32,-55.89,0.6881,-0.6953,-0.0026000000000000003,-0.2074,0.042,-0.017,-0.063
2025-11-06 18:37:06.518,293.365,0.038,-0.161,-0.005,-0.34500000000000003,-0.9470000000000001,0.058,6.28,-4.32,-55.89,0.6880000000000001,-0.6955,-0.0023,-0.2071,0.043000000000000003,-0.016,-0.063
2025-11-06 18:37:06.518,293.37,0.037,-0.157,-0.004,-0.34500000000000003,-0.9470000000000001,0.059000000000000004,6.28,-4.32,-55.89,0.6878000000000001,-0.6957,-0.0021000000000000003,-0.2068,0.042,-0.016,-0.064
2025-11-06 18:37:06.518,293.375,0.035,-0.157,-0.003,-0.34700000000000003,-0.9480000000000001,0.061,5.8100000000000005,-4.91,-56.44,0.6877,-0.6959000000000001,-0.0018000000000000002,-0.2066,0.044,-0.015,-0.065
2025-11-06 18:37:06.518,293.38,0.028,-0.162,-0.002,-0.34700000000000003,-0.9500000000000001,0.062,5.8100000000000005,-4.91,-56.44,0.6876,-0.6961,-0.0015,-0.2063,0.044,-0.013000000000000001,-0.066
2025-11-06 18:37:06.518,293.385,0.024,-0.165,0.0,-0.34800000000000003,-0.9520000000000001,0.061,5.2,-4.91,-56.620000000000005,0.6875,-0.6962,-0.0012000000000000001,-0.2061,0.045,-0.011,-0.064
2025-11-06 18:37:06.518,293.39,0.019,-0.17,0.002,-0.34900000000000003,-0.9530000000000001,0.062,5.2,-4.61,-56.620000000000005,0.6874,-0.6964,-0.0009000000000000001,-0.2058,0.046,-0.011,-0.065
2025-11-06 18:37:06.518,293.395,0.017,-0.168,0.004,-0.35000000000000003,-0.9530000000000001,0.061,5.2,-4.61,-56.620000000000005,0.6873,-0.6966,-0.0006000000000000001,-0.20550000000000002,0.047,-0.01,-0.064
2025-11-06 18:37:06.518,293.4,0.014,-0.17,0.007,-0.35100000000000003,-0.9520000000000001,0.059000000000000004,5.75,-4.96,-56.32,0.6872,-0.6967,-0.0002,-0.2053,0.048,-0.011,-0.061
2025-11-06 18:37:06.518,293.405,0.015,-0.17,0.008,-0.352,-0.9530000000000001,0.06,5.75,-4.96,-56.32,0.6871,-0.6969000000000001,0.0,-0.20500000000000002,0.048,-0.011,-0.062
2025-11-06 18:37:06.518,293.41,0.021,-0.17400000000000002,0.008,-0.35100000000000003,-0.9530000000000001,0.06,5.75,-4.96,-56.32,0.687,-0.6971,0.00030000000000000003,-0.20470000000000002,0.048,-0.01,-0.061
2025-11-06 18:37:06.518,293.415,0.029,-0.177,0.009000000000000001,-0.35100000000000003,-0.9510000000000001,0.059000000000000004,6.54,-4.64,-56.27,0.6869000000000001,-0.6972,0.0006000000000000001,-0.20450000000000002,0.047,-0.012,-0.06
2025-11-06 18:37:06.518,293.42,0.04,-0.182,0.008,-0.353,-0.9520000000000001,0.057,6.54,-4.64,-56.27,0.6868000000000001,-0.6974,0.001,-0.20420000000000002,0.049,-0.011,-0.057
2025-11-06 18:37:06.518,293.425,0.048,-0.19,0.005,-0.355,-0.9490000000000001,0.054,6.16,-4.76,-55.77,0.6867000000000001,-0.6977,0.0013000000000000002,-0.2039,0.05,-0.014,-0.054
2025-11-06 18:37:06.518,293.43,0.06,-0.193,0.005,-0.356,-0.9480000000000001,0.053,6.16,-4.76,-55.77,0.6865,-0.6979000000000001,0.0016,-0.2036,0.052000000000000005,-0.015,-0.052000000000000005
2025-11-06 18:37:06.518,293.555,-0.006,-0.09,-0.009000000000000001,-0.355,-0.9580000000000001,0.08,5.72,-5.08,-56.44,0.6837000000000001,-0.7024,0.0079,-0.19740000000000002,0.049,-0.004,-0.066
2025-11-06 18:37:06.518,293.56,0.0,-0.085,-0.009000000000000001,-0.355,-0.961,0.076,5.72,-5.08,-56.44,0.6837000000000001,-0.7025,0.008,-0.19720000000000001,0.05,-0.002,-0.062
2025-11-06 18:37:06.518,293.565,0.009000000000000001,-0.085,-0.006,-0.357,-0.961,0.077,6.16,-4.82,-56.24,0.6836,-0.7026,0.0081,-0.1971,0.052000000000000005,-0.001,-0.062
2025-11-06 18:37:06.518,293.57,0.015,-0.08700000000000001,-0.004,-0.356,-0.961,0.076,6.16,-4.82,-56.24,0.6836,-0.7027,0.0083,-0.19690000000000002,0.05,-0.002,-0.061
2025-11-06 18:37:06.518,293.575,0.024,-0.084,-0.004,-0.36,-0.9590000000000001,0.077,5.84,-4.61,-56.410000000000004,0.6835,-0.7028,0.008400000000000001,-0.1968,0.054,-0.003,-0.061
2025-11-06 18:37:06.518,293.58,0.04,-0.084,-0.002,-0.362,-0.9580000000000001,0.077,5.84,-4.61,-56.410000000000004,0.6834,-0.7029000000000001,0.0086,-0.1966,0.056,-0.004,-0.062
2025-11-06 18:37:06.518,293.585,0.046,-0.083,0.0,-0.362,-0.9560000000000001,0.076,5.84,-4.61,-56.410000000000004,0.6833,-0.7030000000000001,0.008700000000000001,-0.1965,0.057,-0.007,-0.06
2025-11-06 18:37:06.518,293.59,0.051000000000000004,-0.08,-0.002,-0.363,-0.9540000000000001,0.079,5.96,-5.08,-56.65,0.6832,-0.7032,0.0088,-0.19640000000000002,0.057,-0.009000000000000001,-0.063
2025-11-06 18:37:06.518,293.595,0.056,-0.077,-0.002,-0.366,-0.9510000000000001,0.079,5.96,-5.08,-56.65,0.683,-0.7034,0.0089,-0.1963,0.06,-0.011,-0.062
2025-11-06 18:37:06.518,293.6,0.059000000000000004,-0.07200000000000001,-0.003,-0.367,-0.9480000000000001,0.081,5.96,-4.82,-56.38,0.6829000000000001,-0.7036,0.0091,-0.1962,0.061,-0.014,-0.063
2025-11-06 18:37:06.518,293.605,0.061,-0.063,-0.005,-0.368,-0.9470000000000001,0.083,5.96,-4.82,-56.38,0.6827000000000001,-0.7037,0.0092,-0.1961,0.062,-0.015,-0.065
2025-11-06 18:37:06.518,293.61,0.058,-0.053,-0.008,-0.365,-0.9470000000000001,0.083,5.96,-4.82,-56.38,0.6825,-0.7039000000000001,0.009300000000000001,-0.196,0.059000000000000004,-0.015,-0.065
2025-11-06 18:37:06.518,293.615,0.052000000000000005,-0.052000000000000005,-0.005,-0.369,-0.9440000000000001,0.088,6.0200000000000005,-5.78,-56.24,0.6823,-0.7041000000000001,0.0094,-0.196,0.062,-0.018000000000000002,-0.069
2025-11-06 18:37:06.518,293.62,0.048,-0.05,-0.005,-0.367,-0.9450000000000001,0.08600000000000001,6.0200000000000005,-5.78,-56.24,0.6821,-0.7043,0.0095,-0.196,0.06,-0.017,-0.067
2025-11-06 18:37:06.518,293.625,0.046,-0.044,-0.004,-0.365,-0.9450000000000001,0.08700000000000001,6.92,-4.8500000000000005,-55.86,0.6819000000000001,-0.7045,0.009600000000000001,-0.19590000000000002,0.058,-0.017,-0.067
2025-11-06 18:37:06.518,293.63,0.043000000000000003,-0.039,-0.005,-0.363,-0.9440000000000001,0.089,6.92,-4.8500000000000005,-55.86,0.6817000000000001,-0.7047,0.0098,-0.19590000000000002,0.056,-0.018000000000000002,-0.068
2025-11-06 18:37:06.518,293.635,0.039,-0.044,-0.006,-0.363,-0.9440000000000001,0.091,6.92,-4.8500000000000005,-55.86,0.6815,-0.7049000000000001,0.0099,-0.19590000000000002,0.055,-0.018000000000000002,-0.069
2025-11-06 18:37:06.518,293.64,0.037,-0.041,-0.008,-0.36,-0.9440000000000001,0.091,5.75,-5.32,-56.38,0.6812,-0.7052,0.01,-0.19590000000000002,0.052000000000000005,-0.018000000000000002,-0.069
2025-11-06 18:37:06.518,293.645,0.034,-0.043000000000000003,-0.006,-0.357,-0.9430000000000001,0.092,5.75,-5.32,-56.38,0.681,-0.7054,0.0102,-0.19590000000000002,0.049,-0.018000000000000002,-0.07
2025-11-06 18:37:06.518,293.65,0.024,-0.05,-0.006,-0.352,-0.9470000000000001,0.089,5.87,-4.58,-55.86,0.6808000000000001,-0.7056,0.0103,-0.1958,0.044,-0.015,-0.067
2025-11-06 18:37:06.518,293.655,0.019,-0.055,-0.006,-0.356,-0.9420000000000001,0.094,5.87,-4.58,-55.86,0.6806,-0.7058,0.0105,-0.1958,0.047,-0.02,-0.07100000000000001
2025-11-06 18:37:06.518,293.66,0.026000000000000002,-0.039,-0.004,-0.352,-0.9440000000000001,0.093,5.87,-4.58,-55.86,0.6804,-0.7060000000000001,0.010700000000000001,-0.1958,0.044,-0.018000000000000002,-0.068
2025-11-06 18:37:06.518,293.665,0.024,-0.033,-0.003,-0.353,-0.9450000000000001,0.092,5.55,-4.88,-55.94,0.6801,-0.7063,0.0108,-0.1958,0.044,-0.017,-0.067
2025-11-06 18:37:06.518,293.67,0.024,-0.027,-0.006,-0.353,-0.9460000000000001,0.091,5.55,-4.88,-55.94,0.6799000000000001,-0.7065,0.011000000000000001,-0.1958,0.044,-0.015,-0.065
2025-11-06 18:37:06.518,293.675,0.026000000000000002,-0.025,-0.006,-0.354,-0.9460000000000001,0.089,5.55,-4.88,-55.94,0.6796,-0.7067,0.0111,-0.1958,0.044,-0.015,-0.063
2025-11-06 18:37:06.518,293.68,0.026000000000000002,-0.024,-0.005,-0.355,-0.9500000000000001,0.08700000000000001,5.72,-4.88,-56.06,0.6795,-0.7069000000000001,0.0112,-0.1958,0.045,-0.011,-0.06
2025-11-06 18:37:06.518,293.685,0.025,-0.024,-0.006,-0.355,-0.9500000000000001,0.084,5.72,-4.88,-56.06,0.6793,-0.7070000000000001,0.011300000000000001,-0.1958,0.045,-0.011,-0.057
2025-11-06 18:37:06.518,293.69,0.024,-0.024,-0.005,-0.358,-0.9510000000000001,0.08600000000000001,6.72,-5.17,-56.5,0.6792,-0.7071000000000001,0.0114,-0.1958,0.048,-0.01,-0.059000000000000004
2025-11-06 18:37:06.518,293.695,0.024,-0.027,-0.003,-0.36,-0.9520000000000001,0.08700000000000001,6.72,-5.17,-56.5,0.6791,-0.7072,0.0114,-0.1958,0.049,-0.009000000000000001,-0.059000000000000004
2025-11-06 18:37:06.518,293.7,0.023,-0.022,-0.005,-0.36,-0.9530000000000001,0.08700000000000001,6.72,-5.17,-56.5,0.679,-0.7073,0.0115,-0.1958,0.049,-0.008,-0.059000000000000004
2025-11-06 18:37:06.518,293.705,0.026000000000000002,-0.024,-0.004,-0.361,-0.9510000000000001,0.08600000000000001,5.93,-5.37,-56.120000000000005,0.6789000000000001,-0.7074,0.0115,-0.1958,0.05,-0.01,-0.058
2025-11-06 18:37:06.518,293.71,0.023,-0.026000000000000002,-0.006,-0.361,-0.9520000000000001,0.08600000000000001,5.93,-5.37,-56.120000000000005,0.6788000000000001,-0.7075,0.011600000000000001,-0.1957,0.051000000000000004,-0.009000000000000001,-0.057
2025-11-06 18:37:06.518,293.715,0.024,-0.024,-0.006,-0.362,-0.9490000000000001,0.085,6.92,-4.94,-56.32,0.6787000000000001,-0.7077,0.0117,-0.1957,0.051000000000000004,-0.012,-0.056
2025-11-06 18:37:06.518,293.72,0.031,-0.018000000000000002,-0.008,-0.362,-0.9480000000000001,0.08600000000000001,6.92,-4.94,-56.32,0.6785,-0.7078,0.0117,-0.1957,0.051000000000000004,-0.013000000000000001,-0.057
2025-11-06 18:37:06.518,293.725,0.034,-0.017,-0.01,-0.36,-0.9460000000000001,0.085,6.92,-4.94,-56.32,0.6783,-0.7080000000000001,0.0118,-0.1958,0.049,-0.015,-0.055
2025-11-06 18:37:06.518,293.73,0.033,-0.025,-0.009000000000000001,-0.361,-0.9450000000000001,0.08600000000000001,5.61,-5.23,-55.97,0.6781,-0.7082,0.0119,-0.1958,0.049,-0.016,-0.056
2025-11-06 18:37:06.518,293.735,0.032,-0.033,-0.007,-0.362,-0.9440000000000001,0.08600000000000001,5.61,-5.23,-55.97,0.6779000000000001,-0.7084,0.012100000000000001,-0.19590000000000002,0.05,-0.017,-0.055
2025-11-06 18:37:06.518,293.74,0.036000000000000004,-0.032,-0.008,-0.363,-0.9420000000000001,0.089,5.93,-4.88,-56.15,0.6777000000000001,-0.7086,0.0122,-0.19590000000000002,0.051000000000000004,-0.019,-0.058
2025-11-06 18:37:06.518,293.745,0.04,-0.036000000000000004,-0.008,-0.36,-0.9420000000000001,0.088,5.93,-4.88,-56.15,0.6775,-0.7088,0.0123,-0.19590000000000002,0.048,-0.018000000000000002,-0.056
2025-11-06 18:37:06.518,293.75,0.044,-0.035,-0.008,-0.359,-0.9420000000000001,0.09,5.93,-4.88,-56.15,0.6772,-0.7090000000000001,0.012400000000000001,-0.19590000000000002,0.047,-0.018000000000000002,-0.058
2025-11-06 18:37:06.518,293.755,0.049,-0.028,-0.008,-0.36,-0.9420000000000001,0.093,6.22,-4.76,-56.620000000000005,0.677,-0.7092,0.0125,-0.19590000000000002,0.047,-0.018000000000000002,-0.06
2025-11-06 18:37:06.519,293.76,0.052000000000000005,-0.024,-0.009000000000000001,-0.358,-0.9400000000000001,0.094,6.22,-4.76,-56.620000000000005,0.6768000000000001,-0.7094,0.0126,-0.19590000000000002,0.045,-0.02,-0.06
2025-11-06 18:37:06.519,293.765,0.058,-0.013000000000000001,-0.016,-0.359,-0.9420000000000001,0.093,5.67,-5.14,-56.410000000000004,0.6766,-0.7096,0.0126,-0.19590000000000002,0.045,-0.018000000000000002,-0.059000000000000004
2025-11-06 18:37:06.519,293.77,0.057,-0.014,-0.011,-0.357,-0.9410000000000001,0.093,5.67,-5.14,-56.410000000000004,0.6764,-0.7098,0.012700000000000001,-0.19590000000000002,0.043000000000000003,-0.019,-0.058
2025-11-06 18:37:06.519,293.775,0.053,-0.013000000000000001,-0.012,-0.356,-0.9400000000000001,0.094,5.67,-5.14,-56.410000000000004,0.6761,-0.7100000000000001,0.012700000000000001,-0.19590000000000002,0.043000000000000003,-0.02,-0.058
2025-11-06 18:37:06.519,293.78,0.056,-0.011,-0.013000000000000001,-0.356,-0.9400000000000001,0.093,6.4,-5.34,-56.65,0.6759000000000001,-0.7102,0.012700000000000001,-0.19590000000000002,0.043000000000000003,-0.02,-0.057
2025-11-06 18:37:06.519,293.785,0.054,-0.01,-0.013000000000000001,-0.355,-0.9420000000000001,0.091,6.4,-5.34,-56.65,0.6757000000000001,-0.7104,0.0128,-0.196,0.042,-0.017,-0.055
2025-11-06 18:37:06.519,293.79,0.053,0.0,-0.011,-0.355,-0.9430000000000001,0.08700000000000001,5.78,-5.43,-56.76,0.6755,-0.7106,0.0128,-0.196,0.041,-0.017,-0.05
2025-11-06 18:37:06.519,293.795,0.053,0.0,-0.009000000000000001,-0.355,-0.9430000000000001,0.08700000000000001,5.78,-5.43,-56.76,0.6752,-0.7108,0.0129,-0.1961,0.041,-0.017,-0.049
2025-11-06 18:37:06.519,293.8,0.053,-0.005,-0.007,-0.354,-0.9430000000000001,0.08600000000000001,5.78,-5.43,-56.76,0.675,-0.7110000000000001,0.0129,-0.1962,0.039,-0.017,-0.048
2025-11-06 18:37:06.519,293.805,0.048,-0.005,-0.007,-0.353,-0.9450000000000001,0.08600000000000001,5.7,-4.99,-56.88,0.6748000000000001,-0.7112,0.013000000000000001,-0.1962,0.039,-0.014,-0.047
2025-11-06 18:37:06.519,293.81,0.05,0.0,-0.006,-0.353,-0.9450000000000001,0.089,5.7,-4.99,-56.88,0.6745,-0.7115,0.0131,-0.1963,0.038,-0.014,-0.049
2025-11-06 18:37:06.519,293.815,0.05,0.007,-0.005,-0.353,-0.9470000000000001,0.09,5.67,-4.94,-56.29,0.6743,-0.7117,0.0131,-0.19640000000000002,0.038,-0.012,-0.05
2025-11-06 18:37:06.519,293.82,0.05,0.008,-0.002,-0.34900000000000003,-0.9490000000000001,0.092,5.67,-4.94,-56.29,0.6741,-0.7118,0.0131,-0.19640000000000002,0.034,-0.01,-0.051000000000000004
2025-11-06 18:37:06.519,293.825,0.046,0.004,0.0,-0.352,-0.9510000000000001,0.095,5.67,-4.94,-56.29,0.6739,-0.7120000000000001,0.0132,-0.19640000000000002,0.037,-0.008,-0.054
2025-11-06 18:37:06.519,293.83,0.046,0.004,0.0,-0.353,-0.9520000000000001,0.097,5.75,-5.08,-56.620000000000005,0.6738000000000001,-0.7121000000000001,0.0132,-0.1965,0.037,-0.007,-0.056
2025-11-06 18:37:06.519,293.835,0.047,0.008,0.001,-0.354,-0.9510000000000001,0.1,5.75,-5.08,-56.620000000000005,0.6736000000000001,-0.7123,0.0132,-0.1965,0.038,-0.008,-0.058
2025-11-06 18:37:06.519,293.84,0.049,0.01,0.0,-0.354,-0.9520000000000001,0.10200000000000001,5.34,-4.67,-56.44,0.6734,-0.7124,0.0132,-0.1965,0.038,-0.007,-0.059000000000000004
2025-11-06 18:37:06.519,293.845,0.055,0.015,0.0,-0.354,-0.9520000000000001,0.10400000000000001,5.34,-4.67,-56.44,0.6733,-0.7125,0.0132,-0.1966,0.038,-0.007,-0.061
2025-11-06 18:37:06.519,293.85,0.057,0.015,-0.001,-0.356,-0.9520000000000001,0.10400000000000001,5.34,-4.67,-56.44,0.6731,-0.7127,0.0131,-0.1966,0.04,-0.007,-0.061
2025-11-06 18:37:06.519,293.855,0.056,0.013000000000000001,-0.003,-0.356,-0.9510000000000001,0.105,5.96,-4.44,-56.730000000000004,0.673,-0.7128,0.0131,-0.1967,0.04,-0.008,-0.061
2025-11-06 18:37:06.519,293.86,0.059000000000000004,0.015,-0.003,-0.356,-0.9500000000000001,0.10300000000000001,5.96,-4.44,-56.730000000000004,0.6728000000000001,-0.7130000000000001,0.0131,-0.1967,0.04,-0.009000000000000001,-0.059000000000000004
2025-11-06 18:37:06.519,293.865,0.063,0.021,-0.006,-0.356,-0.9510000000000001,0.1,6.0200000000000005,-4.61,-56.47,0.6726000000000001,-0.7131000000000001,0.0131,-0.1968,0.04,-0.008,-0.055
2025-11-06 18:37:06.519,293.87,0.065,0.022,-0.005,-0.357,-0.9490000000000001,0.097,6.0200000000000005,-4.61,-56.47,0.6724,-0.7133,0.013000000000000001,-0.1968,0.04,-0.01,-0.052000000000000005
2025-11-06 18:37:06.519,293.875,0.062,0.021,-0.006,-0.355,-0.9490000000000001,0.095,6.0200000000000005,-4.61,-56.47,0.6723,-0.7134,0.013000000000000001,-0.19690000000000002,0.039,-0.01,-0.05
2025-11-06 18:37:06.519,293.88,0.062,0.015,-0.009000000000000001,-0.356,-0.9490000000000001,0.092,5.84,-4.91,-56.27,0.6721,-0.7136,0.013000000000000001,-0.19690000000000002,0.04,-0.01,-0.046
2025-11-06 18:37:06.519,293.885,0.061,0.012,-0.006,-0.355,-0.9500000000000001,0.091,5.84,-4.91,-56.27,0.6719,-0.7137,0.0129,-0.197,0.038,-0.009000000000000001,-0.045
2025-11-06 18:37:06.519,293.89,0.057,0.01,-0.006,-0.354,-0.9510000000000001,0.091,5.43,-4.58,-56.44,0.6718000000000001,-0.7139,0.0129,-0.197,0.038,-0.007,-0.045
2025-11-06 18:37:06.519,293.895,0.055,0.013000000000000001,-0.004,-0.353,-0.9500000000000001,0.092,5.43,-4.58,-56.44,0.6716000000000001,-0.7140000000000001,0.0129,-0.1971,0.037,-0.009000000000000001,-0.045
2025-11-06 18:37:06.519,293.9,0.054,0.011,-0.003,-0.353,-0.9510000000000001,0.093,5.43,-4.58,-56.44,0.6714,-0.7142000000000001,0.0129,-0.1971,0.036000000000000004,-0.008,-0.045
2025-11-06 18:37:06.519,293.905,0.051000000000000004,0.02,-0.003,-0.352,-0.9530000000000001,0.098,6.22,-4.8500000000000005,-56.35,0.6713,-0.7143,0.0129,-0.19720000000000001,0.035,-0.006,-0.05
2025-11-06 18:37:06.519,293.91,0.049,0.026000000000000002,-0.005,-0.353,-0.9530000000000001,0.101,6.22,-4.8500000000000005,-56.35,0.6711,-0.7144,0.0128,-0.19720000000000001,0.036000000000000004,-0.006,-0.053
2025-11-06 18:37:06.519,293.915,0.048,0.029,-0.004,-0.34800000000000003,-0.9540000000000001,0.10300000000000001,5.8100000000000005,-4.3500000000000005,-56.21,0.671,-0.7145,0.0128,-0.1973,0.031,-0.004,-0.054
2025-11-06 18:37:06.519,293.92,0.041,0.023,-0.002,-0.35000000000000003,-0.9530000000000001,0.111,5.8100000000000005,-4.3500000000000005,-56.21,0.6709,-0.7146,0.012700000000000001,-0.1973,0.033,-0.005,-0.062
2025-11-06 18:37:06.519,293.925,0.034,0.022,-0.004,-0.353,-0.9520000000000001,0.112,5.8100000000000005,-4.3500000000000005,-56.21,0.6708000000000001,-0.7147,0.012700000000000001,-0.19740000000000002,0.036000000000000004,-0.006,-0.063
2025-11-06 18:37:06.519,293.93,0.028,0.026000000000000002,-0.006,-0.352,-0.9510000000000001,0.115,6.13,-4.53,-56.15,0.6707000000000001,-0.7148,0.012700000000000001,-0.19740000000000002,0.035,-0.007,-0.065
2025-11-06 18:37:06.519,293.935,0.026000000000000002,0.026000000000000002,-0.008,-0.353,-0.9510000000000001,0.115,6.13,-4.53,-56.15,0.6706000000000001,-0.7149,0.0126,-0.1975,0.036000000000000004,-0.007,-0.066
2025-11-06 18:37:06.520,293.94,0.023,0.029,-0.006,-0.354,-0.9510000000000001,0.115,6.13,-4.53,-56.15,0.6705,-0.7150000000000001,0.0126,-0.1975,0.037,-0.007,-0.066
2025-11-06 18:37:06.520,293.945,0.026000000000000002,0.028,-0.008,-0.353,-0.9500000000000001,0.113,6.08,-4.58,-56.67,0.6703,-0.7151000000000001,0.0126,-0.1976,0.036000000000000004,-0.008,-0.063
2025-11-06 18:37:06.520,293.95,0.024,0.029,-0.009000000000000001,-0.353,-0.9510000000000001,0.112,6.08,-4.58,-56.67,0.6702,-0.7151000000000001,0.0125,-0.1976,0.036000000000000004,-0.007,-0.061
2025-11-06 18:37:06.520,293.955,0.022,0.028,-0.011,-0.354,-0.9510000000000001,0.109,6.57,-4.53,-56.65,0.6701,-0.7152000000000001,0.0125,-0.19770000000000001,0.036000000000000004,-0.007,-0.058
2025-11-06 18:37:06.520,293.96,0.017,0.024,-0.008,-0.352,-0.9510000000000001,0.107,6.57,-4.53,-56.65,0.67,-0.7153,0.0125,-0.19770000000000001,0.035,-0.007,-0.056
2025-11-06 18:37:06.520,293.965,0.013000000000000001,0.026000000000000002,-0.005,-0.35100000000000003,-0.9520000000000001,0.106,6.57,-4.53,-56.65,0.6699,-0.7154,0.0125,-0.19770000000000001,0.034,-0.006,-0.055
2025-11-06 18:37:06.520,293.97,0.013000000000000001,0.027,-0.005,-0.35000000000000003,-0.9530000000000001,0.107,5.84,-4.5,-56.67,0.6699,-0.7154,0.012400000000000001,-0.1978,0.033,-0.005,-0.056
2025-11-06 18:37:06.520,293.975,0.009000000000000001,0.031,-0.002,-0.352,-0.9530000000000001,0.107,5.84,-4.5,-56.67,0.6698000000000001,-0.7155,0.012400000000000001,-0.19790000000000002,0.034,-0.005,-0.056
2025-11-06 18:37:06.520,293.98,0.006,0.035,0.0,-0.35100000000000003,-0.9540000000000001,0.108,6.34,-4.94,-56.5,0.6697000000000001,-0.7155,0.012400000000000001,-0.19790000000000002,0.033,-0.004,-0.056
2025-11-06 18:37:06.520,293.985,0.002,0.034,0.002,-0.35000000000000003,-0.9540000000000001,0.109,6.34,-4.94,-56.5,0.6697000000000001,-0.7155,0.012400000000000001,-0.198,0.032,-0.004,-0.057
2025-11-06 18:37:06.520,293.99,-0.002,0.033,0.006,-0.35000000000000003,-0.9540000000000001,0.108,6.34,-4.94,-56.5,0.6696000000000001,-0.7156,0.012400000000000001,-0.1981,0.032,-0.004,-0.057
2025-11-06 18:37:06.520,293.995,-0.004,0.033,0.008,-0.34900000000000003,-0.9530000000000001,0.106,6.0200000000000005,-4.5,-56.38,0.6696000000000001,-0.7156,0.012400000000000001,-0.19820000000000002,0.031,-0.005,-0.054
2025-11-06 18:37:06.520,294.0,-0.003,0.038,0.007,-0.34900000000000003,-0.9520000000000001,0.10300000000000001,6.0200000000000005,-4.5,-56.38,0.6695,-0.7156,0.012400000000000001,-0.1983,0.031,-0.006,-0.051000000000000004
2025-11-06 18:37:06.520,294.005,-0.001,0.045,0.008,-0.35000000000000003,-0.9520000000000001,0.099,6.4,-5.0200000000000005,-56.82,0.6695,-0.7157,0.0123,-0.19840000000000002,0.032,-0.006,-0.047
2025-11-06 18:37:06.520,294.01,-0.001,0.045,0.007,-0.35100000000000003,-0.9520000000000001,0.098,6.4,-5.0200000000000005,-56.82,0.6694,-0.7157,0.0123,-0.1985,0.032,-0.006,-0.046
2025-11-06 18:37:06.520,294.015,0.001,0.05,0.006,-0.352,-0.9520000000000001,0.093,6.4,-5.0200000000000005,-56.82,0.6693,-0.7157,0.0123,-0.1986,0.033,-0.006,-0.041
2025-11-06 18:37:06.520,294.02,0.001,0.045,0.007,-0.355,-0.9520000000000001,0.09,6.19,-4.94,-56.21,0.6693,-0.7157,0.0123,-0.1988,0.036000000000000004,-0.006,-0.038
2025-11-06 18:37:06.520,294.025,-0.001,0.039,0.005,-0.355,-0.9540000000000001,0.09,6.19,-4.94,-56.21,0.6692,-0.7157,0.0122,-0.19890000000000002,0.036000000000000004,-0.004,-0.038
2025-11-06 18:37:06.520,294.03,-0.003,0.042,0.005,-0.357,-0.9530000000000001,0.089,5.72,-4.96,-56.03,0.6692,-0.7157,0.0122,-0.199,0.038,-0.005,-0.037
2025-11-06 18:37:06.520,294.035,-0.009000000000000001,0.037,0.007,-0.357,-0.9530000000000001,0.088,5.72,-4.96,-56.03,0.6692,-0.7157,0.0122,-0.1991,0.038,-0.005,-0.036000000000000004
2025-11-06 18:37:06.520,294.04,-0.011,0.038,0.005,-0.357,-0.9540000000000001,0.08700000000000001,5.72,-4.96,-56.03,0.6692,-0.7157,0.012100000000000001,-0.19920000000000002,0.038,-0.003,-0.035
2025-11-06 18:37:06.520,294.045,-0.009000000000000001,0.042,0.006,-0.356,-0.9540000000000001,0.088,5.87,-5.17,-56.47,0.6691,-0.7157,0.012100000000000001,-0.1993,0.036000000000000004,-0.003,-0.036000000000000004
2025-11-06 18:37:06.520,294.05,-0.009000000000000001,0.046,0.006,-0.354,-0.9540000000000001,0.093,5.87,-5.17,-56.47,0.6691,-0.7157,0.012100000000000001,-0.19940000000000002,0.035,-0.004,-0.041
2025-11-06 18:37:06.520,294.055,-0.011,0.05,0.004,-0.354,-0.9550000000000001,0.094,5.84,-4.58,-56.06,0.6691,-0.7157,0.012,-0.1995,0.035,-0.003,-0.042
2025-11-06 18:37:06.520,294.06,-0.009000000000000001,0.051000000000000004,0.003,-0.354,-0.9550000000000001,0.097,5.84,-4.58,-56.06,0.6691,-0.7157,0.012,-0.1996,0.034,-0.002,-0.045
2025-11-06 18:37:06.520,294.065,-0.011,0.048,0.003,-0.352,-0.9550000000000001,0.1,5.84,-4.58,-56.06,0.6691,-0.7156,0.0119,-0.19970000000000002,0.033,-0.002,-0.048
2025-11-06 18:37:06.520,294.07,-0.014,0.043000000000000003,0.002,-0.352,-0.9540000000000001,0.10300000000000001,5.84,-4.44,-55.56,0.6691,-0.7156,0.0119,-0.1998,0.032,-0.003,-0.051000000000000004
2025-11-06 18:37:06.520,294.075,-0.019,0.046,0.004,-0.35100000000000003,-0.9540000000000001,0.108,5.84,-4.44,-55.56,0.6691,-0.7156,0.0119,-0.19990000000000002,0.032,-0.003,-0.056
2025-11-06 18:37:06.520,294.08,-0.021,0.049,0.002,-0.35100000000000003,-0.9530000000000001,0.108,5.96,-5.14,-56.15,0.669,-0.7156,0.0118,-0.2,0.031,-0.005,-0.056
2025-11-06 18:37:06.520,294.085,-0.022,0.046,0.004,-0.35000000000000003,-0.9490000000000001,0.109,5.96,-5.14,-56.15,0.669,-0.7156,0.0118,-0.2001,0.03,-0.008,-0.057
2025-11-06 18:37:06.520,294.09,-0.021,0.044,0.004,-0.34900000000000003,-0.9470000000000001,0.108,5.96,-5.14,-56.15,0.6689,-0.7157,0.0119,-0.20020000000000002,0.029,-0.01,-0.056
2025-11-06 18:37:06.520,294.095,-0.017,0.037,0.005,-0.34800000000000003,-0.9450000000000001,0.107,5.72,-4.96,-56.67,0.6688000000000001,-0.7157,0.0119,-0.2003,0.028,-0.012,-0.055
2025-11-06 18:37:06.520,294.1,-0.016,0.031,0.006,-0.34800000000000003,-0.9440000000000001,0.107,5.72,-4.96,-56.67,0.6687000000000001,-0.7159,0.012,-0.20040000000000002,0.027,-0.012,-0.054
2025-11-06 18:37:06.520,294.16,-0.018000000000000002,0.043000000000000003,0.0,-0.35000000000000003,-0.9550000000000001,0.085,6.0200000000000005,-4.88,-55.910000000000004,0.6679,-0.7162000000000001,0.012,-0.2016,0.027,-0.002,-0.031
2025-11-06 18:37:06.520,294.165,-0.015,0.041,-0.001,-0.35000000000000003,-0.9530000000000001,0.08600000000000001,6.0200000000000005,-4.88,-55.910000000000004,0.6679,-0.7162000000000001,0.012,-0.20170000000000002,0.027,-0.004,-0.032
2025-11-06 18:37:06.520,294.17,-0.016,0.035,0.0,-0.35100000000000003,-0.9540000000000001,0.089,5.87,-5.29,-55.59,0.6679,-0.7162000000000001,0.012,-0.20170000000000002,0.028,-0.003,-0.036000000000000004
2025-11-06 18:37:06.520,294.175,-0.02,0.03,0.001,-0.35000000000000003,-0.9560000000000001,0.091,5.87,-5.29,-55.59,0.6679,-0.7162000000000001,0.012,-0.2018,0.027,-0.001,-0.038
2025-11-06 18:37:06.520,294.18,-0.023,0.034,0.004,-0.35100000000000003,-0.9560000000000001,0.093,5.7,-5.2,-55.77,0.6679,-0.7161000000000001,0.012,-0.2019,0.028,0.0,-0.04
2025-11-06 18:37:06.520,294.185,-0.026000000000000002,0.038,0.004,-0.35000000000000003,-0.9580000000000001,0.094,5.7,-5.2,-55.77,0.6679,-0.7161000000000001,0.0119,-0.202,0.027,0.0,-0.041
2025-11-06 18:37:06.520,294.19,-0.03,0.043000000000000003,0.004,-0.35000000000000003,-0.9590000000000001,0.095,5.7,-5.2,-55.77,0.668,-0.7160000000000001,0.0119,-0.202,0.027,0.001,-0.042
2025-11-06 18:37:06.520,294.195,-0.034,0.044,0.004,-0.34800000000000003,-0.9590000000000001,0.095,5.58,-4.8500000000000005,-56.0,0.668,-0.7160000000000001,0.0119,-0.2021,0.025,0.001,-0.042
2025-11-06 18:37:06.520,294.2,-0.038,0.046,0.002,-0.34700000000000003,-0.9570000000000001,0.096,5.58,-4.8500000000000005,-56.0,0.6681,-0.7159,0.0118,-0.20220000000000002,0.023,0.0,-0.043000000000000003
2025-11-06 18:37:06.523,294.205,-0.045,0.045,0.005,-0.34600000000000003,-0.9560000000000001,0.095,5.58,-4.8500000000000005,-56.0,0.6681,-0.7158,0.0118,-0.2023,0.023,0.0,-0.042
2025-11-06 18:37:06.523,294.21,-0.047,0.04,0.003,-0.34600000000000003,-0.9550000000000001,0.093,6.13,-5.14,-55.89,0.6682,-0.7157,0.0118,-0.2024,0.022,-0.001,-0.041
2025-11-06 18:37:06.523,294.215,-0.05,0.039,0.003,-0.34600000000000003,-0.9550000000000001,0.091,6.13,-5.14,-55.89,0.6682,-0.7157,0.0118,-0.2025,0.023,-0.002,-0.039
2025-11-06 18:37:06.523,294.22,-0.051000000000000004,0.034,0.0,-0.34500000000000003,-0.9540000000000001,0.093,6.0200000000000005,-4.91,-55.45,0.6683,-0.7156,0.0118,-0.2025,0.022,-0.002,-0.041
2025-11-06 18:37:06.523,294.225,-0.053,0.038,0.0,-0.34500000000000003,-0.9540000000000001,0.091,6.0200000000000005,-4.91,-55.45,0.6683,-0.7155,0.0118,-0.2026,0.022,-0.003,-0.039
2025-11-06 18:37:06.523,294.23,-0.055,0.032,0.0,-0.34600000000000003,-0.9520000000000001,0.088,6.0200000000000005,-4.91,-55.45,0.6684,-0.7155,0.0118,-0.20270000000000002,0.023,-0.005,-0.037
2025-11-06 18:37:06.523,294.235,-0.056,0.019,0.0,-0.34600000000000003,-0.9520000000000001,0.08700000000000001,6.37,-5.0200000000000005,-55.18,0.6684,-0.7154,0.0118,-0.20270000000000002,0.023,-0.004,-0.035
2025-11-06 18:37:06.523,294.24,-0.057,0.014,-0.005,-0.34700000000000003,-0.9510000000000001,0.085,6.37,-5.0200000000000005,-55.18,0.6685,-0.7153,0.0118,-0.2028,0.023,-0.005,-0.034
2025-11-06 18:37:06.523,294.245,-0.058,0.007,-0.004,-0.34800000000000003,-0.9510000000000001,0.083,5.99,-4.8500000000000005,-55.68,0.6685,-0.7153,0.0119,-0.2028,0.024,-0.006,-0.033
2025-11-06 18:37:06.523,294.25,-0.058,0.002,-0.005,-0.34700000000000003,-0.9500000000000001,0.082,5.99,-4.8500000000000005,-55.68,0.6686000000000001,-0.7152000000000001,0.012,-0.2028,0.023,-0.007,-0.032
2025-11-06 18:37:06.523,294.255,-0.058,0.0,-0.009000000000000001,-0.34900000000000003,-0.9490000000000001,0.082,5.99,-4.8500000000000005,-55.68,0.6686000000000001,-0.7152000000000001,0.012,-0.2028,0.025,-0.007,-0.031
2025-11-06 18:37:06.523,294.26,-0.058,-0.002,-0.009000000000000001,-0.35100000000000003,-0.9500000000000001,0.084,6.92,-4.73,-55.910000000000004,0.6686000000000001,-0.7152000000000001,0.012100000000000001,-0.2029,0.027,-0.006,-0.033
2025-11-06 18:37:06.523,294.265,-0.055,-0.002,-0.009000000000000001,-0.352,-0.9490000000000001,0.085,6.92,-4.73,-55.910000000000004,0.6687000000000001,-0.7151000000000001,0.012100000000000001,-0.2029,0.028,-0.007,-0.034
2025-11-06 18:37:06.523,294.27,-0.056,-0.006,-0.006,-0.353,-0.9490000000000001,0.084,6.13,-5.26,-56.0,0.6687000000000001,-0.7151000000000001,0.0122,-0.2029,0.029,-0.008,-0.034
2025-11-06 18:37:06.523,294.315,-0.038,0.0,0.0,-0.355,-0.9470000000000001,0.084,5.29,-4.96,-56.38,0.6687000000000001,-0.7150000000000001,0.013000000000000001,-0.2031,0.029,-0.008,-0.034
2025-11-06 18:37:06.523,294.32,-0.036000000000000004,0.004,0.001,-0.356,-0.9490000000000001,0.082,5.5200000000000005,-5.11,-55.89,0.6687000000000001,-0.7150000000000001,0.013000000000000001,-0.20320000000000002,0.03,-0.007,-0.032
2025-11-06 18:37:06.523,294.325,-0.037,0.007,0.0,-0.357,-0.9520000000000001,0.082,5.5200000000000005,-5.11,-55.89,0.6687000000000001,-0.7149,0.0131,-0.20320000000000002,0.031,-0.004,-0.032
2025-11-06 18:37:06.523,294.33,-0.037,0.008,0.001,-0.358,-0.9520000000000001,0.084,5.5200000000000005,-5.11,-55.89,0.6688000000000001,-0.7149,0.0131,-0.2033,0.032,-0.004,-0.034
2025-11-06 18:37:06.523,294.335,-0.039,0.013000000000000001,0.0,-0.36,-0.9530000000000001,0.08600000000000001,5.9,-4.8500000000000005,-56.410000000000004,0.6688000000000001,-0.7149,0.0131,-0.2033,0.033,-0.002,-0.036000000000000004
2025-11-06 18:37:06.523,294.34,-0.037,0.018000000000000002,0.0,-0.36,-0.9550000000000001,0.08700000000000001,5.9,-4.8500000000000005,-56.410000000000004,0.6689,-0.7148,0.0131,-0.2034,0.033,-0.001,-0.037
2025-11-06 18:37:06.523,294.345,-0.04,0.024,-0.002,-0.359,-0.9560000000000001,0.088,5.67,-4.18,-56.06,0.6689,-0.7147,0.0131,-0.2034,0.033,0.0,-0.039
2025-11-06 18:37:06.523,294.35,-0.04,0.029,-0.003,-0.359,-0.9540000000000001,0.089,5.67,-4.18,-56.06,0.669,-0.7147,0.0131,-0.20350000000000001,0.033,-0.002,-0.04
2025-11-06 18:37:06.523,294.355,-0.041,0.03,-0.004,-0.36,-0.9530000000000001,0.089,5.67,-4.18,-56.06,0.669,-0.7146,0.0131,-0.20350000000000001,0.034,-0.003,-0.04
2025-11-06 18:37:06.523,294.36,-0.044,0.032,-0.005,-0.36,-0.9520000000000001,0.088,5.93,-4.67,-55.39,0.6691,-0.7145,0.0131,-0.2036,0.034,-0.004,-0.04
2025-11-06 18:37:06.523,294.365,-0.039,0.038,-0.006,-0.36,-0.9510000000000001,0.088,5.93,-4.67,-55.39,0.6691,-0.7145,0.013000000000000001,-0.20370000000000002,0.034,-0.004,-0.04
2025-11-06 18:37:06.523,294.37,-0.041,0.038,-0.007,-0.361,-0.9520000000000001,0.08600000000000001,6.0200000000000005,-4.5600000000000005,-55.97,0.6692,-0.7144,0.013000000000000001,-0.20370000000000002,0.035,-0.004,-0.037
2025-11-06 18:37:06.523,294.375,-0.041,0.043000000000000003,-0.005,-0.359,-0.9500000000000001,0.084,6.0200000000000005,-4.5600000000000005,-55.97,0.6692,-0.7143,0.0129,-0.2038,0.033,-0.006,-0.036000000000000004
2025-11-06 18:37:06.523,294.38,-0.036000000000000004,0.035,-0.008,-0.359,-0.9490000000000001,0.084,6.0200000000000005,-4.5600000000000005,-55.97,0.6692,-0.7143,0.0129,-0.2039,0.033,-0.007,-0.036000000000000004
2025-11-06 18:37:06.523,294.385,-0.037,0.027,-0.005,-0.356,-0.9490000000000001,0.082,6.19,-4.64,-56.29,0.6692,-0.7143,0.0129,-0.20400000000000001,0.029,-0.007,-0.034
2025-11-06 18:37:06.523,294.39,-0.037,0.025,-0.006,-0.355,-0.9470000000000001,0.083,6.19,-4.64,-56.29,0.6692,-0.7143,0.0129,-0.2041,0.028,-0.008,-0.035
2025-11-06 18:37:06.523,294.395,-0.035,0.021,-0.006,-0.353,-0.9460000000000001,0.082,6.3100000000000005,-4.67,-56.0,0.6692,-0.7143,0.013000000000000001,-0.20420000000000002,0.026000000000000002,-0.01,-0.034
2025-11-06 18:37:06.523,294.4,-0.033,0.026000000000000002,-0.003,-0.35100000000000003,-0.9470000000000001,0.081,6.3100000000000005,-4.67,-56.0,0.6692,-0.7143,0.013000000000000001,-0.20420000000000002,0.024,-0.009000000000000001,-0.033
2025-11-06 18:37:06.523,294.405,-0.032,0.031,0.0,-0.35000000000000003,-0.9460000000000001,0.08,6.3100000000000005,-4.67,-56.0,0.6691,-0.7143,0.013000000000000001,-0.2043,0.023,-0.01,-0.032
2025-11-06 18:37:06.524,294.41,-0.03,0.035,0.0,-0.34700000000000003,-0.9460000000000001,0.079,5.84,-4.64,-55.24,0.6691,-0.7143,0.013000000000000001,-0.2044,0.02,-0.009000000000000001,-0.031
2025-11-06 18:37:06.524,294.415,-0.032,0.035,0.001,-0.34600000000000003,-0.9460000000000001,0.078,5.84,-4.64,-55.24,0.6691,-0.7143,0.013000000000000001,-0.20450000000000002,0.018000000000000002,-0.009000000000000001,-0.03
2025-11-06 18:37:06.524,294.42,-0.036000000000000004,0.03,0.001,-0.34400000000000003,-0.9480000000000001,0.078,5.9,-4.67,-55.620000000000005,0.6691,-0.7142000000000001,0.013000000000000001,-0.2046,0.017,-0.007,-0.03
2025-11-06 18:37:06.524,294.425,-0.037,0.027,0.002,-0.34500000000000003,-0.9480000000000001,0.075,5.9,-4.67,-55.620000000000005,0.6691,-0.7142000000000001,0.0131,-0.2046,0.017,-0.007,-0.028
2025-11-06 18:37:06.524,294.43,-0.042,0.026000000000000002,0.001,-0.34400000000000003,-0.9490000000000001,0.075,5.9,-4.67,-55.620000000000005,0.6691,-0.7142000000000001,0.0131,-0.20470000000000002,0.016,-0.007,-0.028
2025-11-06 18:37:06.524,294.52,-0.019,0.025,0.003,-0.34800000000000003,-0.9560000000000001,0.07200000000000001,5.84,-4.47,-55.45,0.6694,-0.7135,0.0129,-0.2061,0.019,0.0,-0.026000000000000002
2025-11-06 18:37:06.524,294.525,-0.022,0.017,0.005,-0.34600000000000003,-0.9570000000000001,0.073,5.84,-4.64,-55.86,0.6694,-0.7135,0.0129,-0.20620000000000002,0.017,0.001,-0.027
2025-11-06 18:37:06.524,294.53,-0.031,0.01,0.007,-0.34400000000000003,-0.9590000000000001,0.075,5.84,-4.64,-55.86,0.6695,-0.7134,0.0129,-0.20620000000000002,0.015,0.003,-0.029
2025-11-06 18:37:06.524,294.535,-0.034,0.002,0.007,-0.34400000000000003,-0.9590000000000001,0.076,5.93,-4.58,-55.94,0.6695,-0.7134,0.0129,-0.20620000000000002,0.015,0.003,-0.031
2025-11-06 18:37:06.524,294.54,-0.041,-0.002,0.009000000000000001,-0.343,-0.96,0.079,5.93,-4.58,-55.94,0.6695,-0.7133,0.013000000000000001,-0.20620000000000002,0.014,0.005,-0.033
2025-11-06 18:37:06.524,294.545,-0.044,-0.002,0.011,-0.341,-0.9590000000000001,0.08,5.93,-4.58,-55.94,0.6696000000000001,-0.7133,0.0131,-0.20620000000000002,0.011,0.003,-0.034
2025-11-06 18:37:06.524,294.55,-0.044,0.002,0.012,-0.342,-0.9580000000000001,0.082,6.19,-5.32,-55.83,0.6696000000000001,-0.7132000000000001,0.0131,-0.20620000000000002,0.012,0.003,-0.037
2025-11-06 18:37:06.524,294.555,-0.045,0.004,0.013000000000000001,-0.34400000000000003,-0.9580000000000001,0.082,6.19,-5.32,-55.83,0.6697000000000001,-0.7132000000000001,0.0132,-0.2063,0.014,0.002,-0.037
2025-11-06 18:37:06.524,294.56,-0.046,0.01,0.015,-0.34400000000000003,-0.9580000000000001,0.083,6.13,-4.7,-55.51,0.6698000000000001,-0.7131000000000001,0.0132,-0.2063,0.015,0.002,-0.038
2025-11-06 18:37:06.524,294.565,-0.048,0.011,0.015,-0.34700000000000003,-0.9540000000000001,0.081,6.13,-4.7,-55.51,0.6698000000000001,-0.7131000000000001,0.013300000000000001,-0.2063,0.017,0.0,-0.037
2025-11-06 18:37:06.524,294.57,-0.049,0.012,0.015,-0.34900000000000003,-0.9540000000000001,0.081,6.13,-4.7,-55.51,0.6698000000000001,-0.7130000000000001,0.0134,-0.2064,0.019,-0.001,-0.037
2025-11-06 18:37:06.524,294.575,-0.05,0.013000000000000001,0.014,-0.353,-0.9510000000000001,0.08,5.23,-5.2,-56.03,0.6699,-0.7129000000000001,0.0134,-0.2064,0.023,-0.004,-0.036000000000000004
2025-11-06 18:37:06.524,294.58,-0.047,0.019,0.015,-0.354,-0.9470000000000001,0.078,5.23,-5.2,-56.03,0.6699,-0.7129000000000001,0.0135,-0.20650000000000002,0.024,-0.008,-0.034
2025-11-06 18:37:06.524,294.585,-0.044,0.022,0.013000000000000001,-0.357,-0.9460000000000001,0.075,5.29,-5.11,-55.800000000000004,0.6699,-0.7129000000000001,0.0135,-0.2066,0.026000000000000002,-0.008,-0.031
2025-11-06 18:37:06.524,294.59,-0.041,0.024,0.013000000000000001,-0.359,-0.9440000000000001,0.074,5.29,-5.11,-55.800000000000004,0.6699,-0.7128,0.013600000000000001,-0.20670000000000002,0.028,-0.01,-0.03
2025-11-06 18:37:06.524,294.595,-0.036000000000000004,0.024,0.009000000000000001,-0.36,-0.9430000000000001,0.069,5.29,-5.11,-55.800000000000004,0.6699,-0.7128,0.013600000000000001,-0.2069,0.029,-0.012,-0.026000000000000002
2025-11-06 18:37:06.524,294.6,-0.032,0.021,0.01,-0.363,-0.9440000000000001,0.067,6.13,-4.82,-56.0,0.6699,-0.7128,0.0137,-0.20700000000000002,0.031,-0.011,-0.023
2025-11-06 18:37:06.524,294.605,-0.026000000000000002,0.022,0.01,-0.363,-0.9430000000000001,0.065,6.13,-4.82,-56.0,0.6698000000000001,-0.7128,0.0137,-0.20720000000000002,0.032,-0.011,-0.021
2025-11-06 18:37:06.524,294.61,-0.025,0.021,0.01,-0.364,-0.9460000000000001,0.066,5.64,-4.73,-55.800000000000004,0.6698000000000001,-0.7128,0.0137,-0.2073,0.032,-0.008,-0.022
2025-11-06 18:37:06.524,294.615,-0.025,0.025,0.01,-0.366,-0.9480000000000001,0.067,5.64,-4.73,-55.800000000000004,0.6698000000000001,-0.7128,0.0137,-0.2074,0.034,-0.006,-0.023
2025-11-06 18:37:06.524,294.62,-0.027,0.031,0.009000000000000001,-0.364,-0.9510000000000001,0.068,5.64,-4.73,-55.800000000000004,0.6698000000000001,-0.7127,0.0137,-0.20750000000000002,0.032,-0.003,-0.024
2025-11-06 18:37:06.524,294.625,-0.03,0.035,0.013000000000000001,-0.364,-0.9520000000000001,0.068,5.55,-4.5600000000000005,-56.0,0.6698000000000001,-0.7126,0.0137,-0.20770000000000002,0.032,-0.002,-0.024
2025-11-06 18:37:06.524,294.63,-0.031,0.042,0.01,-0.361,-0.9530000000000001,0.066,5.55,-4.5600000000000005,-56.0,0.6699,-0.7126,0.0137,-0.2078,0.029,-0.002,-0.023
2025-11-06 18:37:06.524,294.635,-0.033,0.044,0.011,-0.36,-0.9510000000000001,0.069,6.16,-4.94,-56.21,0.6699,-0.7125,0.0137,-0.2079,0.028,-0.003,-0.025
2025-11-06 18:37:06.524,294.64,-0.033,0.048,0.009000000000000001,-0.359,-0.9510000000000001,0.07,6.16,-4.94,-56.21,0.6699,-0.7125,0.013600000000000001,-0.20800000000000002,0.027,-0.004,-0.027
2025-11-06 18:37:06.524,294.645,-0.035,0.05,0.007,-0.359,-0.9500000000000001,0.07100000000000001,6.16,-4.94,-56.21,0.6699,-0.7124,0.013600000000000001,-0.2081,0.027,-0.004,-0.029
2025-11-06 18:37:06.524,294.65,-0.036000000000000004,0.049,0.004,-0.359,-0.9510000000000001,0.07100000000000001,5.7,-4.64,-55.24,0.67,-0.7123,0.013600000000000001,-0.2082,0.027,-0.003,-0.029
2025-11-06 18:37:06.524,294.655,-0.037,0.045,0.002,-0.361,-0.9490000000000001,0.07100000000000001,5.7,-4.64,-55.24,0.67,-0.7123,0.013600000000000001,-0.2084,0.028,-0.005,-0.028
2025-11-06 18:37:06.524,294.66,-0.036000000000000004,0.048,0.0,-0.361,-0.9500000000000001,0.07,5.5200000000000005,-4.47,-56.0,0.67,-0.7122,0.0135,-0.20850000000000002,0.028,-0.004,-0.028
2025-11-06 18:37:06.524,294.665,-0.037,0.039,-0.003,-0.362,-0.9480000000000001,0.07200000000000001,5.5200000000000005,-4.47,-56.0,0.6701,-0.7122,0.0135,-0.2086,0.029,-0.006,-0.03
2025-11-06 18:37:06.524,294.67,-0.042,0.035,-0.005,-0.363,-0.9510000000000001,0.073,5.5200000000000005,-4.47,-56.0,0.6701,-0.7121000000000001,0.0135,-0.2086,0.03,-0.003,-0.031
2025-11-06 18:37:06.524,294.675,-0.047,0.028,-0.006,-0.363,-0.9490000000000001,0.074,5.84,-4.38,-56.18,0.6702,-0.7120000000000001,0.0135,-0.2087,0.03,-0.005,-0.032
2025-11-06 18:37:06.524,294.68,-0.048,0.027,-0.005,-0.365,-0.9510000000000001,0.074,5.84,-4.38,-56.18,0.6702,-0.7120000000000001,0.0134,-0.2088,0.032,-0.003,-0.032
2025-11-06 18:37:06.524,294.685,-0.052000000000000005,0.022,-0.004,-0.367,-0.9510000000000001,0.073,6.05,-4.64,-56.29,0.6703,-0.7119000000000001,0.0134,-0.2088,0.034,-0.003,-0.032
2025-11-06 18:37:06.524,294.69,-0.051000000000000004,0.026000000000000002,-0.003,-0.368,-0.9510000000000001,0.075,6.05,-4.64,-56.29,0.6704,-0.7118,0.0134,-0.2089,0.035,-0.003,-0.035
2025-11-06 18:37:06.524,294.695,-0.05,0.026000000000000002,-0.003,-0.369,-0.9510000000000001,0.073,6.05,-4.64,-56.29,0.6704,-0.7117,0.0134,-0.2089,0.036000000000000004,-0.003,-0.032
2025-11-06 18:37:06.524,294.7,-0.044,0.037,-0.001,-0.366,-0.9480000000000001,0.077,5.99,-4.12,-56.03,0.6705,-0.7116,0.0134,-0.20900000000000002,0.033,-0.006,-0.037
2025-11-06 18:37:06.524,294.705,-0.039,0.043000000000000003,0.0,-0.364,-0.9480000000000001,0.078,5.99,-4.12,-56.03,0.6705,-0.7116,0.0134,-0.2091,0.031,-0.006,-0.038
2025-11-06 18:37:06.524,294.71,-0.033,0.048,0.0,-0.361,-0.9460000000000001,0.076,5.49,-4.73,-55.68,0.6705,-0.7116,0.0134,-0.2092,0.028,-0.008,-0.035
2025-11-06 18:37:06.524,294.715,-0.028,0.055,0.0,-0.36,-0.9440000000000001,0.074,5.49,-4.73,-55.68,0.6705,-0.7115,0.013300000000000001,-0.2094,0.026000000000000002,-0.01,-0.034
2025-11-06 18:37:06.524,294.72,-0.023,0.068,0.001,-0.356,-0.9430000000000001,0.07200000000000001,5.49,-4.73,-55.68,0.6705,-0.7115,0.013300000000000001,-0.20950000000000002,0.023,-0.011,-0.032
2025-11-06 18:37:06.524,294.725,-0.022,0.08,0.001,-0.355,-0.9430000000000001,0.067,6.22,-4.91,-55.910000000000004,0.6705,-0.7115,0.0132,-0.2097,0.021,-0.01,-0.027
2025-11-06 18:37:06.524,294.73,-0.021,0.092,0.001,-0.352,-0.9430000000000001,0.061,6.22,-4.91,-55.910000000000004,0.6705,-0.7114,0.0131,-0.2099,0.018000000000000002,-0.011,-0.022
2025-11-06 18:37:06.524,294.735,-0.02,0.094,0.001,-0.352,-0.9440000000000001,0.06,6.08,-4.91,-55.910000000000004,0.6705,-0.7113,0.0129,-0.21000000000000002,0.018000000000000002,-0.01,-0.02
2025-11-06 18:37:06.524,294.74,-0.02,0.095,0.002,-0.35100000000000003,-0.9440000000000001,0.057,6.08,-4.91,-55.910000000000004,0.6705,-0.7113,0.0128,-0.2102,0.017,-0.01,-0.018000000000000002
2025-11-06 18:37:06.524,294.745,-0.021,0.095,0.0,-0.353,-0.9430000000000001,0.055,6.08,-4.91,-55.910000000000004,0.6705,-0.7112,0.012700000000000001,-0.2104,0.018000000000000002,-0.011,-0.016
2025-11-06 18:37:06.524,294.775,0.002,0.098,0.0,-0.355,-0.9460000000000001,0.052000000000000005,6.46,-5.34,-55.74,0.6705,-0.7109000000000001,0.0118,-0.2117,0.02,-0.008,-0.014
2025-11-06 18:37:06.524,294.78,0.005,0.097,0.002,-0.355,-0.9480000000000001,0.053,6.46,-5.34,-55.74,0.6704,-0.7109000000000001,0.011600000000000001,-0.2119,0.02,-0.006,-0.015
2025-11-06 18:37:06.525,294.785,0.004,0.098,0.002,-0.357,-0.9500000000000001,0.057,6.46,-5.34,-55.74,0.6704,-0.7109000000000001,0.0115,-0.2121,0.022,-0.004,-0.019
2025-11-06 18:37:06.525,294.79,0.004,0.099,0.002,-0.358,-0.9520000000000001,0.058,5.96,-5.2,-55.68,0.6703,-0.7108,0.011300000000000001,-0.21230000000000002,0.023,-0.001,-0.02
2025-11-06 18:37:06.525,294.795,0.004,0.097,0.003,-0.358,-0.9540000000000001,0.061,5.96,-5.2,-55.68,0.6703,-0.7108,0.0112,-0.21250000000000002,0.023,0.0,-0.023
2025-11-06 18:37:06.525,294.8,0.005,0.096,0.002,-0.359,-0.9560000000000001,0.063,6.69,-4.88,-56.44,0.6703,-0.7108,0.0111,-0.2127,0.024,0.002,-0.025
2025-11-06 18:37:06.525,294.805,0.005,0.097,0.005,-0.36,-0.9560000000000001,0.067,6.69,-4.88,-56.44,0.6703,-0.7107,0.0109,-0.2129,0.025,0.002,-0.029
2025-11-06 18:37:06.525,294.81,0.006,0.096,0.002,-0.359,-0.9580000000000001,0.069,6.69,-4.88,-56.44,0.6702,-0.7107,0.0108,-0.21300000000000002,0.023,0.003,-0.031
2025-11-06 18:37:06.525,294.815,0.005,0.08700000000000001,0.005,-0.357,-0.9580000000000001,0.07200000000000001,6.48,-4.47,-56.0,0.6702,-0.7107,0.0106,-0.2132,0.022,0.004,-0.035
2025-11-06 18:37:06.525,294.82,0.002,0.084,0.006,-0.357,-0.9580000000000001,0.073,6.48,-4.47,-56.0,0.6702,-0.7107,0.0105,-0.2134,0.021,0.004,-0.035
2025-11-06 18:37:06.525,294.825,0.0,0.084,0.006,-0.355,-0.96,0.073,6.3100000000000005,-4.58,-55.97,0.6702,-0.7106,0.010400000000000001,-0.21350000000000002,0.02,0.005,-0.036000000000000004
2025-11-06 18:37:06.525,294.83,-0.001,0.079,0.008,-0.354,-0.9590000000000001,0.073,6.3100000000000005,-4.58,-55.97,0.6702,-0.7106,0.0103,-0.2137,0.019,0.005,-0.035
2025-11-06 18:37:06.525,294.835,-0.003,0.077,0.009000000000000001,-0.353,-0.9580000000000001,0.07100000000000001,6.3100000000000005,-4.58,-55.97,0.6702,-0.7106,0.0102,-0.21380000000000002,0.018000000000000002,0.004,-0.033
2025-11-06 18:37:06.525,294.84,-0.006,0.077,0.008,-0.354,-0.9580000000000001,0.067,7.33,-4.96,-55.97,0.6702,-0.7105,0.010100000000000001,-0.21400000000000002,0.018000000000000002,0.003,-0.03
2025-11-06 18:37:06.525,294.845,-0.008,0.07,0.01,-0.352,-0.9560000000000001,0.064,7.33,-4.96,-55.97,0.6701,-0.7105,0.01,-0.2141,0.017,0.001,-0.027
2025-11-06 18:37:06.525,294.85,-0.012,0.065,0.008,-0.355,-0.9530000000000001,0.061,5.99,-4.88,-56.32,0.6701,-0.7105,0.01,-0.21430000000000002,0.019,0.0,-0.024
2025-11-06 18:37:06.525,294.855,-0.013000000000000001,0.06,0.006,-0.355,-0.9510000000000001,0.058,5.99,-4.88,-56.32,0.6701,-0.7104,0.0099,-0.2144,0.02,-0.002,-0.021
2025-11-06 18:37:06.525,294.86,-0.014,0.057,0.004,-0.355,-0.9490000000000001,0.059000000000000004,5.99,-4.88,-56.32,0.6701,-0.7104,0.0099,-0.21450000000000002,0.019,-0.004,-0.022
2025-11-06 18:37:06.525,294.865,-0.015,0.054,0.002,-0.355,-0.9470000000000001,0.059000000000000004,6.05,-5.4,-56.94,0.6701,-0.7104,0.0098,-0.2147,0.019,-0.006,-0.022
2025-11-06 18:37:06.525,294.87,-0.015,0.056,0.001,-0.355,-0.9490000000000001,0.057,6.05,-5.4,-56.94,0.6701,-0.7104,0.0098,-0.21480000000000002,0.019,-0.004,-0.021
2025-11-06 18:37:06.525,294.875,-0.015,0.062,0.0,-0.356,-0.9510000000000001,0.057,7.19,-4.64,-56.32,0.6701,-0.7103,0.0097,-0.2149,0.02,-0.002,-0.02
2025-11-06 18:37:06.525,294.88,-0.012,0.065,0.0,-0.358,-0.9520000000000001,0.056,7.19,-4.64,-56.32,0.6701,-0.7103,0.009600000000000001,-0.2151,0.022,-0.001,-0.02
2025-11-06 18:37:06.525,294.885,-0.013000000000000001,0.064,-0.002,-0.357,-0.9530000000000001,0.055,7.19,-4.64,-56.32,0.6701,-0.7103,0.0095,-0.2152,0.021,-0.001,-0.018000000000000002
2025-11-06 18:37:06.525,294.89,-0.012,0.066,-0.001,-0.357,-0.9550000000000001,0.055,6.28,-4.61,-56.730000000000004,0.6701,-0.7102,0.0094,-0.21530000000000002,0.021,0.001,-0.019
2025-11-06 18:37:06.525,294.895,-0.009000000000000001,0.064,0.0,-0.356,-0.9570000000000001,0.056,6.28,-4.61,-56.730000000000004,0.6701,-0.7102,0.009300000000000001,-0.2154,0.02,0.003,-0.02
2025-11-06 18:37:06.525,294.9,-0.011,0.07100000000000001,0.0,-0.355,-0.9560000000000001,0.057,5.8100000000000005,-5.14,-56.32,0.6701,-0.7101000000000001,0.0092,-0.2156,0.018000000000000002,0.002,-0.021
2025-11-06 18:37:06.525,294.905,-0.011,0.074,0.0,-0.354,-0.9560000000000001,0.057,5.8100000000000005,-5.14,-56.32,0.6701,-0.7101000000000001,0.0091,-0.2157,0.017,0.002,-0.021
2025-11-06 18:37:06.525,294.91,-0.008,0.074,0.003,-0.352,-0.9570000000000001,0.057,5.8100000000000005,-5.14,-56.32,0.6701,-0.7100000000000001,0.009000000000000001,-0.2159,0.016,0.002,-0.021
2025-11-06 18:37:06.525,294.915,-0.009000000000000001,0.077,0.005,-0.352,-0.9540000000000001,0.056,5.72,-5.5200000000000005,-56.620000000000005,0.6701,-0.7100000000000001,0.0089,-0.216,0.016,0.0,-0.02
2025-11-06 18:37:06.525,294.92,-0.011,0.081,0.005,-0.353,-0.9530000000000001,0.056,5.72,-5.5200000000000005,-56.620000000000005,0.6701,-0.7100000000000001,0.0088,-0.2162,0.016,0.0,-0.021
2025-11-06 18:37:06.525,294.925,-0.012,0.078,0.005,-0.352,-0.9510000000000001,0.057,5.9,-4.96,-56.44,0.6701,-0.7099000000000001,0.008700000000000001,-0.21630000000000002,0.015,-0.002,-0.022
2025-11-06 18:37:06.525,294.93,-0.013000000000000001,0.076,0.007,-0.35100000000000003,-0.9500000000000001,0.057,5.9,-4.96,-56.44,0.6701,-0.7099000000000001,0.008700000000000001,-0.2165,0.014,-0.003,-0.022
2025-11-06 18:37:06.525,294.935,-0.014,0.08,0.007,-0.35000000000000003,-0.9480000000000001,0.057,5.9,-4.96,-56.44,0.67,-0.7098,0.0086,-0.21660000000000001,0.014,-0.004,-0.022
2025-11-06 18:37:06.525,294.94,-0.015,0.073,0.007,-0.34900000000000003,-0.9460000000000001,0.055,6.22,-4.91,-56.29,0.67,-0.7098,0.0085,-0.21680000000000002,0.012,-0.007,-0.02
2025-11-06 18:37:06.525,294.945,-0.02,0.07100000000000001,0.005,-0.34700000000000003,-0.9450000000000001,0.055,6.22,-4.91,-56.29,0.67,-0.7098,0.008400000000000001,-0.2169,0.01,-0.008,-0.02
2025-11-06 18:37:06.526,294.95,-0.023,0.067,0.004,-0.34600000000000003,-0.9460000000000001,0.052000000000000005,6.08,-6.13,-55.94,0.6701,-0.7097,0.008400000000000001,-0.21710000000000002,0.009000000000000001,-0.007,-0.018000000000000002
2025-11-06 18:37:06.526,294.955,-0.025,0.06,0.005,-0.343,-0.9470000000000001,0.052000000000000005,6.08,-6.13,-55.94,0.6701,-0.7096,0.0083,-0.2172,0.006,-0.006,-0.017
2025-11-06 18:37:06.526,294.96,-0.026000000000000002,0.059000000000000004,0.006,-0.343,-0.9490000000000001,0.05,6.08,-6.13,-55.94,0.6701,-0.7096,0.0082,-0.21730000000000002,0.006,-0.004,-0.016
2025-11-06 18:37:06.526,294.965,-0.026000000000000002,0.053,0.005,-0.342,-0.9520000000000001,0.052000000000000005,6.86,-4.91,-56.29,0.6701,-0.7095,0.0082,-0.2174,0.005,-0.001,-0.017
2025-11-06 18:37:06.526,294.97,-0.026000000000000002,0.045,0.005,-0.341,-0.9530000000000001,0.053,6.86,-4.91,-56.29,0.6701,-0.7095,0.0082,-0.2174,0.003,0.0,-0.019
2025-11-06 18:37:06.526,294.975,-0.022,0.04,0.005,-0.343,-0.9550000000000001,0.055,6.13,-4.82,-56.18,0.6702,-0.7095,0.0082,-0.2175,0.006,0.001,-0.02
2025-11-06 18:37:06.526,294.98,-0.021,0.037,0.004,-0.343,-0.9570000000000001,0.054,6.13,-4.82,-56.18,0.6702,-0.7094,0.0081,-0.21760000000000002,0.006,0.003,-0.02
2025-11-06 18:37:06.526,294.985,-0.019,0.034,0.004,-0.34500000000000003,-0.96,0.053,6.13,-4.82,-56.18,0.6702,-0.7094,0.0081,-0.21760000000000002,0.008,0.006,-0.019
2025-11-06 18:37:06.526,294.99,-0.013000000000000001,0.033,0.004,-0.34800000000000003,-0.961,0.053,6.75,-5.08,-56.410000000000004,0.6702,-0.7094,0.0081,-0.2177,0.01,0.007,-0.019
2025-11-06 18:37:06.526,294.995,-0.008,0.038,0.003,-0.35100000000000003,-0.962,0.056,6.75,-5.08,-56.410000000000004,0.6702,-0.7093,0.008,-0.21780000000000002,0.014,0.008,-0.022
2025-11-06 18:37:06.526,295.0,-0.008,0.035,0.003,-0.352,-0.964,0.057,6.1000000000000005,-5.17,-56.27,0.6702,-0.7093,0.008,-0.21780000000000002,0.015,0.01,-0.023
2025-11-06 18:37:06.526,295.005,-0.009000000000000001,0.037,0.002,-0.354,-0.962,0.057,6.1000000000000005,-5.17,-56.27,0.6702,-0.7093,0.008,-0.2179,0.016,0.008,-0.023
2025-11-06 18:37:06.526,295.01,-0.012,0.038,0.002,-0.355,-0.96,0.056,6.1000000000000005,-5.17,-56.27,0.6702,-0.7093,0.0079,-0.218,0.018000000000000002,0.007,-0.022
2025-11-06 18:37:06.528,295.015,-0.016,0.04,0.0,-0.355,-0.9580000000000001,0.056,7.1000000000000005,-4.7,-56.47,0.6703,-0.7092,0.0079,-0.218,0.017,0.005,-0.023
2025-11-06 18:37:06.528,295.02,-0.026000000000000002,0.033,0.0,-0.356,-0.9560000000000001,0.054,7.1000000000000005,-4.7,-56.47,0.6703,-0.7092,0.0078000000000000005,-0.21810000000000002,0.019,0.002,-0.021
2025-11-06 18:37:06.528,295.025,-0.033,0.029,-0.002,-0.356,-0.9550000000000001,0.052000000000000005,7.1000000000000005,-4.7,-56.94,0.6703,-0.7091000000000001,0.0078000000000000005,-0.2182,0.018000000000000002,0.001,-0.019
2025-11-06 18:37:06.529,295.03,-0.035,0.027,-0.001,-0.357,-0.9540000000000001,0.052000000000000005,5.99,-4.91,-56.94,0.6704,-0.7090000000000001,0.0078000000000000005,-0.2182,0.02,0.0,-0.019
2025-11-06 18:37:06.529,295.035,-0.037,0.022,-0.002,-0.356,-0.9520000000000001,0.053,5.99,-4.91,-56.94,0.6704,-0.7090000000000001,0.0078000000000000005,-0.21830000000000002,0.018000000000000002,-0.001,-0.02
2025-11-06 18:37:06.529,295.04,-0.039,0.023,-0.003,-0.357,-0.9510000000000001,0.052000000000000005,5.75,-4.76,-56.59,0.6705,-0.7089000000000001,0.0078000000000000005,-0.21830000000000002,0.019,-0.001,-0.02
2025-11-06 18:37:06.529,295.045,-0.041,0.02,-0.005,-0.358,-0.9510000000000001,0.051000000000000004,5.75,-4.76,-56.59,0.6705,-0.7089000000000001,0.0078000000000000005,-0.2184,0.02,-0.002,-0.019
2025-11-06 18:37:06.529,295.05,-0.045,0.019,-0.006,-0.358,-0.9510000000000001,0.051000000000000004,5.75,-4.76,-56.59,0.6706000000000001,-0.7088,0.0078000000000000005,-0.2184,0.02,-0.002,-0.019
2025-11-06 18:37:06.529,295.055,-0.046,0.018000000000000002,-0.01,-0.358,-0.9520000000000001,0.05,6.13,-4.96,-56.27,0.6706000000000001,-0.7087,0.0078000000000000005,-0.2185,0.02,-0.001,-0.018000000000000002
2025-11-06 18:37:06.529,295.06,-0.049,0.013000000000000001,-0.008,-0.357,-0.9520000000000001,0.05,6.13,-4.96,-56.27,0.6707000000000001,-0.7087,0.0078000000000000005,-0.2185,0.019,-0.001,-0.018000000000000002
2025-11-06 18:37:06.529,295.065,-0.051000000000000004,0.012,-0.009000000000000001,-0.357,-0.9510000000000001,0.051000000000000004,5.75,-6.1000000000000005,-56.38,0.6708000000000001,-0.7086,0.0078000000000000005,-0.2185,0.019,-0.001,-0.019
2025-11-06 18:37:06.529,295.07,-0.053,0.008,-0.012,-0.357,-0.9510000000000001,0.051000000000000004,5.75,-6.1000000000000005,-56.38,0.6708000000000001,-0.7085,0.0078000000000000005,-0.2185,0.019,-0.001,-0.019
2025-11-06 18:37:06.529,295.075,-0.053,0.009000000000000001,-0.013000000000000001,-0.357,-0.9500000000000001,0.051000000000000004,5.75,-6.1000000000000005,-56.38,0.6709,-0.7084,0.0078000000000000005,-0.2185,0.02,-0.003,-0.02
2025-11-06 18:37:06.529,295.08,-0.051000000000000004,0.012,-0.013000000000000001,-0.356,-0.9490000000000001,0.053,6.16,-6.22,-56.21,0.671,-0.7084,0.0078000000000000005,-0.21860000000000002,0.018000000000000002,-0.004,-0.022
2025-11-06 18:37:06.529,295.085,-0.051000000000000004,0.013000000000000001,-0.013000000000000001,-0.355,-0.9490000000000001,0.054,6.16,-6.22,-56.21,0.671,-0.7083,0.0078000000000000005,-0.21860000000000002,0.017,-0.004,-0.023
2025-11-06 18:37:06.529,295.09,-0.051000000000000004,0.005,-0.013000000000000001,-0.355,-0.9490000000000001,0.054,5.5200000000000005,-4.82,-56.32,0.6711,-0.7083,0.0079,-0.21860000000000002,0.017,-0.003,-0.023
2025-11-06 18:37:06.529,295.095,-0.05,0.013000000000000001,-0.01,-0.356,-0.9480000000000001,0.056,5.5200000000000005,-4.82,-56.32,0.6711,-0.7082,0.0079,-0.21860000000000002,0.018000000000000002,-0.004,-0.025
2025-11-06 18:37:06.529,295.1,-0.048,0.017,-0.009000000000000001,-0.357,-0.9480000000000001,0.056,5.5200000000000005,-4.82,-56.32,0.6712,-0.7082,0.0079,-0.21860000000000002,0.019,-0.005,-0.026000000000000002
2025-11-06 18:37:06.529,295.105,-0.049,0.019,-0.009000000000000001,-0.356,-0.9500000000000001,0.057,6.05,-4.38,-56.5,0.6712,-0.7081000000000001,0.0079,-0.2187,0.018000000000000002,-0.002,-0.027
2025-11-06 18:37:06.529,295.11,-0.048,0.019,-0.007,-0.357,-0.9500000000000001,0.059000000000000004,6.05,-4.38,-56.5,0.6713,-0.7080000000000001,0.0079,-0.2187,0.019,-0.002,-0.029
2025-11-06 18:37:06.529,295.115,-0.046,0.024,-0.006,-0.357,-0.9500000000000001,0.059000000000000004,6.22,-4.7,-56.67,0.6713,-0.7080000000000001,0.0079,-0.2187,0.019,-0.002,-0.029
2025-11-06 18:37:06.529,295.12,-0.044,0.029,-0.003,-0.357,-0.9520000000000001,0.058,6.22,-4.7,-56.67,0.6714,-0.7079000000000001,0.0079,-0.21880000000000002,0.019,0.0,-0.028
2025-11-06 18:37:06.529,295.125,-0.041,0.035,0.0,-0.358,-0.9540000000000001,0.056,6.22,-4.7,-56.67,0.6714,-0.7078,0.0079,-0.21880000000000002,0.02,0.001,-0.026000000000000002
2025-11-06 18:37:06.529,295.13,-0.039,0.033,0.0,-0.359,-0.9540000000000001,0.055,5.75,-4.41,-55.910000000000004,0.6715,-0.7078,0.0079,-0.2189,0.021,0.001,-0.025
2025-11-06 18:37:06.529,295.135,-0.038,0.035,-0.002,-0.36,-0.9550000000000001,0.054,5.75,-4.41,-55.910000000000004,0.6716000000000001,-0.7077,0.0078000000000000005,-0.219,0.022,0.001,-0.024
2025-11-06 18:37:06.529,295.14,-0.037,0.033,-0.001,-0.359,-0.9570000000000001,0.054,5.61,-4.61,-57.0,0.6716000000000001,-0.7076,0.0078000000000000005,-0.219,0.021,0.003,-0.025
2025-11-06 18:37:06.529,295.145,-0.036000000000000004,0.029,-0.003,-0.361,-0.9560000000000001,0.053,5.61,-4.61,-57.0,0.6717000000000001,-0.7076,0.0078000000000000005,-0.21910000000000002,0.022,0.002,-0.024
2025-11-06 18:37:06.529,295.15,-0.037,0.033,-0.002,-0.359,-0.9540000000000001,0.054,5.61,-4.61,-57.0,0.6717000000000001,-0.7075,0.0078000000000000005,-0.21910000000000002,0.021,0.001,-0.025
2025-11-06 18:37:06.529,295.155,-0.037,0.038,-0.002,-0.359,-0.9560000000000001,0.053,6.75,-4.61,-56.120000000000005,0.6718000000000001,-0.7074,0.0077,-0.2192,0.021,0.002,-0.024
2025-11-06 18:37:06.529,295.16,-0.038,0.04,-0.005,-0.359,-0.9550000000000001,0.052000000000000005,6.75,-4.61,-56.120000000000005,0.6718000000000001,-0.7074,0.0077,-0.21930000000000002,0.021,0.001,-0.024
2025-11-06 18:37:06.529,295.165,-0.04,0.037,-0.005,-0.359,-0.9540000000000001,0.053,5.96,-4.64,-56.76,0.6719,-0.7073,0.0077,-0.21930000000000002,0.021,0.0,-0.025
2025-11-06 18:37:06.529,295.17,-0.042,0.036000000000000004,-0.006,-0.358,-0.9530000000000001,0.052000000000000005,5.96,-4.64,-56.76,0.6719,-0.7072,0.0076,-0.2194,0.02,0.0,-0.024
2025-11-06 18:37:06.530,295.175,-0.045,0.033,-0.006,-0.355,-0.9530000000000001,0.051000000000000004,5.96,-4.64,-56.76,0.672,-0.7071000000000001,0.0076,-0.2195,0.017,0.0,-0.023
2025-11-06 18:37:06.530,295.18,-0.047,0.041,-0.008,-0.354,-0.9530000000000001,0.051000000000000004,6.72,-4.91,-56.15,0.6721,-0.7070000000000001,0.0076,-0.2195,0.016,0.0,-0.024
2025-11-06 18:37:06.530,295.185,-0.048,0.039,-0.008,-0.354,-0.9520000000000001,0.05,6.72,-4.91,-56.15,0.6721,-0.7070000000000001,0.007500000000000001,-0.21960000000000002,0.015,-0.001,-0.023
2025-11-06 18:37:06.530,295.19,-0.045,0.044,-0.007,-0.354,-0.9510000000000001,0.049,6.05,-4.29,-56.44,0.6722,-0.7069000000000001,0.007500000000000001,-0.2197,0.015,-0.002,-0.022
2025-11-06 18:37:06.530,295.195,-0.043000000000000003,0.049,-0.007,-0.355,-0.9500000000000001,0.05,6.05,-4.29,-56.44,0.6722,-0.7068,0.0074,-0.2197,0.016,-0.002,-0.023
2025-11-06 18:37:06.530,295.2,-0.041,0.048,-0.005,-0.355,-0.9510000000000001,0.05,6.05,-4.29,-56.44,0.6723,-0.7067,0.0074,-0.21980000000000002,0.017,-0.001,-0.023
2025-11-06 18:37:06.530,295.205,-0.045,0.044,-0.003,-0.354,-0.9490000000000001,0.052000000000000005,6.54,-4.99,-56.67,0.6723,-0.7067,0.0074,-0.2199,0.016,-0.003,-0.026000000000000002
2025-11-06 18:37:06.530,295.21,-0.047,0.048,0.0,-0.356,-0.9520000000000001,0.053,6.54,-4.99,-56.67,0.6724,-0.7066,0.0073,-0.22,0.017,-0.001,-0.027
2025-11-06 18:37:06.530,295.215,-0.045,0.039,0.002,-0.356,-0.9500000000000001,0.052000000000000005,6.1000000000000005,-4.41,-56.59,0.6724,-0.7065,0.0073,-0.22010000000000002,0.018000000000000002,-0.003,-0.026000000000000002
2025-11-06 18:37:06.530,295.22,-0.046,0.046,0.002,-0.356,-0.9500000000000001,0.052000000000000005,6.1000000000000005,-4.41,-56.59,0.6725,-0.7065,0.0073,-0.2202,0.017,-0.003,-0.027
2025-11-06 18:37:06.530,295.225,-0.048,0.039,0.003,-0.358,-0.9490000000000001,0.052000000000000005,6.1000000000000005,-4.41,-56.59,0.6725,-0.7064,0.0073,-0.2202,0.019,-0.003,-0.027
2025-11-06 18:37:06.530,295.23,-0.049,0.04,0.004,-0.358,-0.9500000000000001,0.05,6.13,-4.5600000000000005,-56.910000000000004,0.6726000000000001,-0.7063,0.0073,-0.22030000000000002,0.019,-0.002,-0.025
2025-11-06 18:37:06.530,295.235,-0.048,0.037,0.002,-0.36,-0.9470000000000001,0.05,6.13,-4.5600000000000005,-56.910000000000004,0.6726000000000001,-0.7062,0.0073,-0.2204,0.021,-0.005,-0.025
2025-11-06 18:37:06.530,295.24,-0.048,0.033,0.004,-0.359,-0.9460000000000001,0.048,7.01,-4.18,-56.18,0.6727000000000001,-0.7062,0.0073,-0.2205,0.02,-0.007,-0.024
2025-11-06 18:37:06.530,295.245,-0.046,0.032,0.001,-0.359,-0.9450000000000001,0.046,7.01,-4.18,-56.18,0.6727000000000001,-0.7061000000000001,0.0073,-0.22060000000000002,0.02,-0.007,-0.021
2025-11-06 18:37:06.531,295.25,-0.044,0.026000000000000002,0.002,-0.359,-0.9440000000000001,0.043000000000000003,7.01,-4.18,-56.18,0.6727000000000001,-0.7060000000000001,0.0073,-0.2207,0.02,-0.008,-0.019
2025-11-06 18:37:06.531,295.255,-0.039,0.027,0.0,-0.359,-0.9430000000000001,0.04,5.96,-4.8500000000000005,-56.410000000000004,0.6728000000000001,-0.7060000000000001,0.0073,-0.22080000000000002,0.02,-0.01,-0.016
2025-11-06 18:37:06.531,295.26,-0.037,0.026000000000000002,0.001,-0.36,-0.9420000000000001,0.041,5.96,-4.8500000000000005,-56.410000000000004,0.6728000000000001,-0.7059000000000001,0.0073,-0.2209,0.02,-0.011,-0.017
2025-11-06 18:37:06.531,295.265,-0.034,0.031,-0.002,-0.359,-0.9450000000000001,0.041,6.48,-4.8500000000000005,-56.09,0.6728000000000001,-0.7059000000000001,0.0073,-0.221,0.02,-0.007,-0.018000000000000002
2025-11-06 18:37:06.531,295.27,-0.038,0.025,-0.002,-0.358,-0.9460000000000001,0.042,6.48,-4.8500000000000005,-56.09,0.6728000000000001,-0.7059000000000001,0.0073,-0.22110000000000002,0.018000000000000002,-0.006,-0.018000000000000002
2025-11-06 18:37:06.531,295.275,-0.04,0.021,-0.003,-0.359,-0.9480000000000001,0.042,6.48,-4.8500000000000005,-56.09,0.6729,-0.7058,0.0073,-0.22110000000000002,0.019,-0.004,-0.018000000000000002
2025-11-06 18:37:06.531,295.28,-0.044,0.019,-0.003,-0.358,-0.9510000000000001,0.043000000000000003,7.04,-4.91,-55.86,0.6729,-0.7057,0.0073,-0.2212,0.019,-0.002,-0.02
2025-11-06 18:37:06.531,295.285,-0.045,0.018000000000000002,-0.003,-0.356,-0.9530000000000001,0.046,7.04,-4.91,-55.86,0.673,-0.7057,0.0073,-0.2212,0.016,0.0,-0.022
2025-11-06 18:37:06.531,295.29,-0.048,0.016,-0.004,-0.355,-0.9550000000000001,0.046,6.22,-4.5,-56.0,0.673,-0.7056,0.0073,-0.2212,0.015,0.001,-0.023
2025-11-06 18:37:06.531,295.295,-0.047,0.021,-0.002,-0.352,-0.9550000000000001,0.049,6.22,-4.5,-56.0,0.6731,-0.7055,0.0073,-0.2212,0.012,0.002,-0.026000000000000002
2025-11-06 18:37:06.531,295.3,-0.047,0.024,-0.002,-0.34900000000000003,-0.9560000000000001,0.048,6.22,-4.5,-56.0,0.6732,-0.7055,0.0073,-0.22130000000000002,0.01,0.003,-0.025
2025-11-06 18:37:06.531,295.305,-0.047,0.024,-0.002,-0.34800000000000003,-0.9560000000000001,0.047,5.96,-4.29,-55.71,0.6732,-0.7054,0.0074,-0.22130000000000002,0.008,0.003,-0.024
2025-11-06 18:37:06.531,295.31,-0.05,0.019,0.0,-0.34500000000000003,-0.9560000000000001,0.046,5.96,-4.29,-55.71,0.6733,-0.7053,0.0074,-0.22130000000000002,0.006,0.002,-0.024
2025-11-06 18:37:06.531,295.315,-0.055,0.022,0.002,-0.34700000000000003,-0.9550000000000001,0.046,5.96,-4.29,-55.71,0.6734,-0.7052,0.0074,-0.22130000000000002,0.007,0.002,-0.023
2025-11-06 18:37:06.531,295.32,-0.058,0.03,-0.002,-0.34600000000000003,-0.9560000000000001,0.042,6.19,-3.74,-55.39,0.6735,-0.7051000000000001,0.0074,-0.2214,0.006,0.003,-0.02
2025-11-06 18:37:06.531,295.325,-0.056,0.033,0.001,-0.34600000000000003,-0.9550000000000001,0.041,6.19,-3.74,-55.39,0.6736000000000001,-0.7050000000000001,0.0074,-0.2214,0.006,0.002,-0.02
2025-11-06 18:37:06.531,295.33,-0.057,0.028,0.0,-0.34800000000000003,-0.9550000000000001,0.041,6.13,-4.23,-55.97,0.6736000000000001,-0.7049000000000001,0.0074,-0.2215,0.008,0.001,-0.019
2025-11-06 18:37:06.531,295.335,-0.056,0.03,0.001,-0.35000000000000003,-0.9540000000000001,0.041,6.13,-4.23,-55.97,0.6737000000000001,-0.7048,0.0074,-0.2215,0.01,0.001,-0.02
2025-11-06 18:37:06.531,295.34,-0.05,0.024,0.001,-0.35100000000000003,-0.9540000000000001,0.042,6.13,-4.23,-55.97,0.6738000000000001,-0.7048,0.0074,-0.22160000000000002,0.011,0.001,-0.021
2025-11-06 18:37:06.531,295.345,-0.045,0.025,0.0,-0.353,-0.9540000000000001,0.041,6.46,-4.7,-56.06,0.6739,-0.7047,0.0074,-0.22160000000000002,0.013000000000000001,0.001,-0.02
2025-11-06 18:37:06.531,295.35,-0.04,0.016,0.0,-0.355,-0.9520000000000001,0.039,6.46,-4.7,-56.06,0.6739,-0.7046,0.0074,-0.22160000000000002,0.015,0.0,-0.019
2025-11-06 18:37:06.531,295.355,-0.034,0.016,0.0,-0.355,-0.9510000000000001,0.038,5.75,-5.11,-56.65,0.6739,-0.7046,0.0074,-0.2217,0.015,-0.001,-0.017
2025-11-06 18:37:06.531,295.36,-0.033,0.018000000000000002,-0.001,-0.357,-0.9500000000000001,0.035,5.75,-5.11,-56.65,0.6739,-0.7046,0.0074,-0.2217,0.017,-0.002,-0.014
2025-11-06 18:37:06.531,295.365,-0.033,0.019,0.0,-0.357,-0.9520000000000001,0.034,5.75,-5.11,-56.65,0.674,-0.7045,0.0074,-0.2218,0.017,-0.001,-0.013000000000000001
2025-11-06 18:37:06.531,295.37,-0.031,0.023,-0.002,-0.358,-0.9520000000000001,0.032,6.25,-5.23,-56.79,0.674,-0.7045,0.0074,-0.22190000000000001,0.017,0.0,-0.012
2025-11-06 18:37:06.531,295.375,-0.033,0.021,-0.001,-0.359,-0.9530000000000001,0.031,6.25,-5.23,-56.79,0.6741,-0.7044,0.0074,-0.22190000000000001,0.019,0.0,-0.012
2025-11-06 18:37:06.531,295.38,-0.035,0.021,-0.002,-0.359,-0.9520000000000001,0.031,6.0200000000000005,-4.23,-56.53,0.6741,-0.7043,0.0074,-0.222,0.018000000000000002,0.0,-0.012
2025-11-06 18:37:06.531,295.385,-0.039,0.018000000000000002,-0.004,-0.36,-0.9520000000000001,0.033,6.0200000000000005,-4.23,-56.53,0.6741,-0.7043,0.0074,-0.222,0.02,0.0,-0.013000000000000001
2025-11-06 18:37:06.531,295.39,-0.043000000000000003,0.013000000000000001,-0.005,-0.358,-0.9520000000000001,0.034,6.0200000000000005,-4.23,-56.53,0.6742,-0.7042,0.0074,-0.22210000000000002,0.017,-0.001,-0.015
2025-11-06 18:37:06.531,295.395,-0.045,0.01,-0.007,-0.358,-0.9510000000000001,0.032,6.13,-4.67,-56.27,0.6743,-0.7041000000000001,0.0074,-0.22210000000000002,0.017,-0.001,-0.013000000000000001
2025-11-06 18:37:06.531,295.4,-0.045,0.018000000000000002,-0.008,-0.358,-0.9510000000000001,0.034,6.13,-4.67,-56.27,0.6743,-0.7041000000000001,0.0074,-0.22210000000000002,0.018000000000000002,-0.002,-0.015
2025-11-06 18:37:06.531,295.405,-0.045,0.015,-0.008,-0.357,-0.9520000000000001,0.034,5.99,-4.76,-55.71,0.6744,-0.7040000000000001,0.0074,-0.2222,0.016,0.0,-0.015
2025-11-06 18:37:06.531,295.41,-0.041,0.018000000000000002,-0.007,-0.355,-0.9520000000000001,0.034,5.99,-4.76,-55.71,0.6744,-0.7040000000000001,0.0074,-0.2222,0.015,0.0,-0.016
2025-11-06 18:37:06.531,295.415,-0.036000000000000004,0.013000000000000001,-0.009000000000000001,-0.355,-0.9510000000000001,0.036000000000000004,5.99,-4.76,-55.71,0.6745,-0.7039000000000001,0.0074,-0.2222,0.014,-0.001,-0.018000000000000002
2025-11-06 18:37:06.531,295.42,-0.034,0.01,-0.009000000000000001,-0.355,-0.9520000000000001,0.035,6.13,-4.82,-56.59,0.6745,-0.7039000000000001,0.0074,-0.2222,0.014,-0.001,-0.017
2025-11-06 18:37:06.531,295.425,-0.032,0.009000000000000001,-0.008,-0.354,-0.9520000000000001,0.036000000000000004,6.13,-4.82,-56.59,0.6745,-0.7038,0.0074,-0.2223,0.013000000000000001,0.0,-0.018000000000000002
2025-11-06 18:37:06.531,295.43,-0.033,0.007,-0.005,-0.353,-0.9520000000000001,0.038,6.28,-4.7,-56.59,0.6746,-0.7038,0.007500000000000001,-0.2223,0.013000000000000001,0.0,-0.02
2025-11-06 18:37:06.531,295.435,-0.032,0.006,-0.003,-0.353,-0.9500000000000001,0.039,6.28,-4.7,-56.59,0.6746,-0.7038,0.007500000000000001,-0.2223,0.012,-0.002,-0.021
2025-11-06 18:37:06.531,295.44,-0.028,0.009000000000000001,-0.001,-0.353,-0.9490000000000001,0.039,6.28,-4.7,-56.59,0.6745,-0.7038,0.0076,-0.2223,0.012,-0.003,-0.021
2025-11-06 18:37:06.531,295.445,-0.022,0.008,-0.002,-0.353,-0.9490000000000001,0.039,6.86,-5.2,-56.94,0.6745,-0.7039000000000001,0.0076,-0.2223,0.012,-0.003,-0.021
2025-11-06 18:37:06.531,295.45,-0.022,0.01,0.0,-0.353,-0.9490000000000001,0.039,6.86,-5.2,-56.94,0.6745,-0.7039000000000001,0.0077,-0.2223,0.012,-0.003,-0.021
2025-11-06 18:37:06.531,295.455,-0.022,0.01,0.001,-0.352,-0.9490000000000001,0.039,6.25,-4.18,-57.35,0.6744,-0.7039000000000001,0.0077,-0.2223,0.011,-0.003,-0.021
2025-11-06 18:37:06.531,295.46,-0.026000000000000002,0.007,0.0,-0.352,-0.9500000000000001,0.04,6.25,-4.18,-57.35,0.6744,-0.7039000000000001,0.0078000000000000005,-0.2223,0.011,-0.001,-0.021
2025-11-06 18:37:06.532,295.465,-0.028,0.003,0.001,-0.353,-0.9510000000000001,0.04,6.25,-4.18,-57.35,0.6744,-0.7039000000000001,0.0079,-0.2223,0.012,0.0,-0.022
2025-11-06 18:37:06.532,295.47,-0.03,0.0,0.001,-0.353,-0.9520000000000001,0.039,5.96,-4.41,-56.79,0.6744,-0.7039000000000001,0.0079,-0.2223,0.012,0.0,-0.02
2025-11-06 18:37:06.532,295.475,-0.028,0.001,0.001,-0.35100000000000003,-0.9550000000000001,0.037,5.96,-4.41,-56.79,0.6744,-0.7039000000000001,0.008,-0.2223,0.009000000000000001,0.003,-0.018000000000000002
2025-11-06 18:37:06.532,295.48,-0.025,0.002,0.001,-0.352,-0.9550000000000001,0.035,6.34,-4.5600000000000005,-56.65,0.6745,-0.7039000000000001,0.008,-0.2223,0.011,0.002,-0.017
2025-11-06 18:37:06.532,295.485,-0.024,0.002,0.0,-0.353,-0.9560000000000001,0.035,6.34,-4.5600000000000005,-56.65,0.6745,-0.7038,0.008,-0.2223,0.011,0.004,-0.016
2025-11-06 18:37:06.532,295.49,-0.022,0.0,0.001,-0.354,-0.9580000000000001,0.034,6.34,-4.5600000000000005,-56.65,0.6745,-0.7038,0.008,-0.2223,0.013000000000000001,0.005,-0.016
2025-11-06 18:37:06.532,295.495,-0.022,0.002,-0.002,-0.355,-0.9580000000000001,0.034,6.19,-4.44,-56.32,0.6746,-0.7038,0.008,-0.2223,0.013000000000000001,0.005,-0.015
2025-11-06 18:37:06.532,295.5,-0.022,0.001,-0.005,-0.357,-0.9590000000000001,0.033,6.19,-4.44,-56.32,0.6746,-0.7038,0.0081,-0.2223,0.016,0.006,-0.015
2025-11-06 18:37:06.532,295.505,-0.022,0.002,-0.005,-0.358,-0.9580000000000001,0.031,6.34,-4.73,-55.800000000000004,0.6746,-0.7037,0.0081,-0.2223,0.016,0.005,-0.013000000000000001
2025-11-06 18:37:06.532,295.51,-0.024,0.007,-0.006,-0.36,-0.9560000000000001,0.032,6.34,-4.73,-55.800000000000004,0.6747000000000001,-0.7037,0.0081,-0.22240000000000001,0.019,0.003,-0.014
2025-11-06 18:37:06.532,295.515,-0.027,0.01,-0.006,-0.359,-0.9560000000000001,0.031,6.34,-4.73,-55.800000000000004,0.6747000000000001,-0.7036,0.008,-0.22240000000000001,0.018000000000000002,0.003,-0.013000000000000001
2025-11-06 18:37:06.533,295.52,-0.023,0.01,-0.005,-0.36,-0.9540000000000001,0.03,6.51,-4.47,-56.88,0.6747000000000001,-0.7036,0.008,-0.22240000000000001,0.018000000000000002,0.001,-0.012
2025-11-06 18:37:06.533,295.525,-0.027,0.019,-0.006,-0.361,-0.9510000000000001,0.03,6.51,-4.47,-56.88,0.6748000000000001,-0.7036,0.008,-0.2225,0.019,-0.001,-0.012
2025-11-06 18:37:06.533,295.53,-0.031,0.019,-0.003,-0.359,-0.9480000000000001,0.03,6.25,-4.12,-56.79,0.6748000000000001,-0.7035,0.008,-0.2225,0.018000000000000002,-0.004,-0.013000000000000001
2025-11-06 18:37:06.533,295.535,-0.03,0.02,-0.002,-0.359,-0.9450000000000001,0.028,6.25,-4.12,-56.79,0.6748000000000001,-0.7035,0.008,-0.22260000000000002,0.017,-0.006,-0.011
2025-11-06 18:37:06.533,295.54,-0.03,0.026000000000000002,0.0,-0.357,-0.9450000000000001,0.026000000000000002,6.25,-4.12,-56.79,0.6748000000000001,-0.7034,0.008,-0.2227,0.015,-0.007,-0.009000000000000001
2025-11-06 18:37:06.533,295.545,-0.025,0.031,0.003,-0.357,-0.9430000000000001,0.026000000000000002,6.19,-5.14,-56.410000000000004,0.6748000000000001,-0.7034,0.008,-0.2228,0.015,-0.009000000000000001,-0.009000000000000001
2025-11-06 18:37:06.533,295.55,-0.023,0.03,0.005,-0.357,-0.9430000000000001,0.026000000000000002,6.19,-5.14,-56.410000000000004,0.6748000000000001,-0.7033,0.008,-0.22290000000000001,0.015,-0.009000000000000001,-0.01
2025-11-06 18:37:06.533,295.555,-0.02,0.029,0.004,-0.356,-0.9430000000000001,0.024,6.46,-4.0600000000000005,-56.620000000000005,0.6748000000000001,-0.7033,0.0079,-0.223,0.014,-0.009000000000000001,-0.007
2025-11-06 18:37:06.533,295.56,-0.015,0.025,0.008,-0.356,-0.9410000000000001,0.024,6.46,-4.0600000000000005,-56.620000000000005,0.6748000000000001,-0.7033,0.0079,-0.22310000000000002,0.013000000000000001,-0.011,-0.008
2025-11-06 18:37:06.533,295.565,-0.012,0.024,0.008,-0.354,-0.9420000000000001,0.024,6.46,-4.0600000000000005,-56.620000000000005,0.6748000000000001,-0.7032,0.0079,-0.2232,0.012,-0.01,-0.008
2025-11-06 18:37:06.533,295.57,-0.009000000000000001,0.019,0.009000000000000001,-0.352,-0.9440000000000001,0.023,5.84,-4.53,-56.94,0.6748000000000001,-0.7032,0.0079,-0.2233,0.01,-0.008,-0.007
2025-11-06 18:37:06.533,295.575,-0.009000000000000001,0.018000000000000002,0.007,-0.353,-0.9460000000000001,0.022,5.84,-4.53,-56.94,0.6748000000000001,-0.7032,0.0079,-0.22340000000000002,0.011,-0.006,-0.006
2025-11-06 18:37:06.533,295.58,-0.008,0.018000000000000002,0.007,-0.35100000000000003,-0.9460000000000001,0.022,5.84,-4.53,-56.94,0.6748000000000001,-0.7032,0.0079,-0.22340000000000002,0.008,-0.006,-0.005
2025-11-06 18:37:06.533,295.585,-0.001,0.013000000000000001,0.003,-0.35100000000000003,-0.9500000000000001,0.023,5.8100000000000005,-4.2,-56.38,0.6747000000000001,-0.7032,0.0079,-0.2235,0.009000000000000001,-0.001,-0.006
2025-11-06 18:37:06.533,295.59,0.001,0.016,0.002,-0.35100000000000003,-0.9520000000000001,0.021,5.8100000000000005,-4.2,-56.38,0.6747000000000001,-0.7032,0.0079,-0.22360000000000002,0.009000000000000001,0.0,-0.004
2025-11-06 18:37:06.533,295.595,0.002,0.011,0.002,-0.35100000000000003,-0.9550000000000001,0.022,6.28,-4.26,-56.5,0.6747000000000001,-0.7033,0.0079,-0.2237,0.008,0.002,-0.005
2025-11-06 18:37:06.533,295.6,0.004,0.011,0.0,-0.35000000000000003,-0.9570000000000001,0.024,6.28,-4.26,-56.5,0.6747000000000001,-0.7033,0.0079,-0.2237,0.007,0.004,-0.007
2025-11-06 18:37:06.533,295.605,0.005,0.005,-0.003,-0.35100000000000003,-0.9580000000000001,0.023,6.28,-4.26,-56.5,0.6746,-0.7033,0.0079,-0.2237,0.009000000000000001,0.006,-0.007
2025-11-06 18:37:06.533,295.61,0.002,0.004,-0.002,-0.35100000000000003,-0.9590000000000001,0.025,5.99,-4.03,-56.620000000000005,0.6746,-0.7033,0.0079,-0.2237,0.008,0.006,-0.008
2025-11-06 18:37:06.533,295.615,0.002,0.004,-0.005,-0.35100000000000003,-0.961,0.026000000000000002,5.99,-4.03,-56.620000000000005,0.6746,-0.7033,0.0079,-0.2237,0.008,0.008,-0.009000000000000001
2025-11-06 18:37:06.533,295.62,0.005,0.0,-0.002,-0.354,-0.96,0.027,5.99,-4.23,-57.32,0.6746,-0.7033,0.0079,-0.2237,0.011,0.007,-0.01
2025-11-06 18:37:06.533,295.625,0.003,-0.003,-0.001,-0.353,-0.9590000000000001,0.028,5.99,-4.23,-57.32,0.6746,-0.7033,0.0079,-0.2237,0.01,0.007,-0.012
2025-11-06 18:37:06.533,295.63,0.005,-0.008,-0.003,-0.354,-0.9590000000000001,0.031,5.99,-4.23,-57.32,0.6746,-0.7033,0.0079,-0.2237,0.012,0.007,-0.014
2025-11-06 18:37:06.533,295.635,0.008,-0.006,-0.001,-0.355,-0.9570000000000001,0.031,5.99,-4.29,-56.730000000000004,0.6746,-0.7034,0.0079,-0.2237,0.012,0.005,-0.014
2025-11-06 18:37:06.533,295.64,0.01,-0.005,-0.002,-0.354,-0.9570000000000001,0.031,5.99,-4.29,-56.730000000000004,0.6745,-0.7034,0.0079,-0.22360000000000002,0.012,0.005,-0.014
2025-11-06 18:37:06.533,295.645,0.013000000000000001,0.0,0.002,-0.355,-0.9550000000000001,0.031,6.57,-5.08,-56.82,0.6745,-0.7034,0.0079,-0.22360000000000002,0.012,0.003,-0.014
2025-11-06 18:37:06.533,295.65,0.013000000000000001,0.0,0.004,-0.356,-0.9540000000000001,0.03,6.57,-5.08,-56.82,0.6744,-0.7035,0.0079,-0.2237,0.013000000000000001,0.002,-0.013000000000000001
2025-11-06 18:37:06.533,295.655,0.015,0.001,0.005,-0.356,-0.9520000000000001,0.031,6.57,-5.08,-56.82,0.6744,-0.7035,0.0079,-0.2237,0.013000000000000001,0.0,-0.014
2025-11-06 18:37:06.533,295.66,0.016,0.005,0.006,-0.355,-0.9520000000000001,0.031,5.9,-3.8200000000000003,-56.82,0.6743,-0.7036,0.008,-0.2237,0.012,0.0,-0.013000000000000001
2025-11-06 18:37:06.533,295.665,0.017,0.003,0.007,-0.354,-0.9510000000000001,0.032,5.9,-3.8200000000000003,-56.82,0.6742,-0.7037,0.008,-0.2238,0.01,0.0,-0.015
2025-11-06 18:37:06.533,295.67,0.018000000000000002,0.005,0.008,-0.354,-0.9500000000000001,0.033,6.08,-4.15,-56.76,0.6741,-0.7037,0.008,-0.2238,0.01,-0.001,-0.016
2025-11-06 18:37:06.533,295.675,0.018000000000000002,0.005,0.008,-0.353,-0.9490000000000001,0.034,6.08,-4.15,-56.76,0.674,-0.7038,0.0081,-0.2238,0.009000000000000001,-0.002,-0.016
2025-11-06 18:37:06.533,295.68,0.018000000000000002,0.01,0.009000000000000001,-0.352,-0.9480000000000001,0.034,6.08,-4.15,-56.76,0.6739,-0.7039000000000001,0.0081,-0.2238,0.008,-0.003,-0.016
2025-11-06 18:37:06.533,295.685,0.019,0.01,0.008,-0.352,-0.9470000000000001,0.036000000000000004,6.16,-4.32,-57.03,0.6739,-0.7040000000000001,0.0081,-0.22390000000000002,0.008,-0.004,-0.017
2025-11-06 18:37:06.533,295.69,0.019,0.01,0.007,-0.352,-0.9460000000000001,0.036000000000000004,6.16,-4.32,-57.03,0.6738000000000001,-0.7040000000000001,0.0082,-0.22390000000000002,0.008,-0.005,-0.018000000000000002
2025-11-06 18:37:06.533,295.695,0.02,0.011,0.008,-0.352,-0.9460000000000001,0.037,5.99,-3.91,-56.620000000000005,0.6737000000000001,-0.7041000000000001,0.0082,-0.22390000000000002,0.008,-0.005,-0.018000000000000002
2025-11-06 18:37:06.533,295.7,0.021,0.008,0.006,-0.35100000000000003,-0.9460000000000001,0.04,5.99,-3.91,-56.620000000000005,0.6736000000000001,-0.7042,0.0082,-0.22390000000000002,0.007,-0.005,-0.021
2025-11-06 18:37:06.533,295.705,0.018000000000000002,0.0,0.004,-0.352,-0.9470000000000001,0.041,5.99,-3.91,-56.620000000000005,0.6735,-0.7043,0.0083,-0.22390000000000002,0.008,-0.004,-0.022
2025-11-06 18:37:06.533,295.71,0.018000000000000002,-0.001,0.002,-0.352,-0.9480000000000001,0.044,6.19,-4.26,-57.11,0.6733,-0.7045,0.008400000000000001,-0.2238,0.007,-0.003,-0.024
2025-11-06 18:37:06.533,295.715,0.013000000000000001,-0.003,0.003,-0.352,-0.9510000000000001,0.042,6.19,-4.26,-57.11,0.6732,-0.7046,0.0085,-0.2238,0.008,0.0,-0.022
2025-11-06 18:37:06.533,295.72,0.012,-0.004,0.001,-0.35100000000000003,-0.9520000000000001,0.044,5.93,-5.0200000000000005,-57.03,0.6731,-0.7047,0.0086,-0.2237,0.007,0.0,-0.024
2025-11-06 18:37:06.533,295.725,0.009000000000000001,-0.008,0.0,-0.352,-0.9550000000000001,0.044,5.93,-5.0200000000000005,-57.03,0.6731,-0.7048,0.0086,-0.2237,0.007,0.003,-0.023
2025-11-06 18:37:06.533,295.73,0.004,-0.01,0.001,-0.35100000000000003,-0.9570000000000001,0.041,5.93,-5.0200000000000005,-57.03,0.6731,-0.7048,0.008700000000000001,-0.2237,0.007,0.005,-0.02
2025-11-06 18:37:06.533,295.735,0.0,-0.008,0.0,-0.352,-0.9590000000000001,0.041,6.78,-4.12,-57.230000000000004,0.673,-0.7048,0.008700000000000001,-0.22360000000000002,0.007,0.007,-0.02
2025-11-06 18:37:06.533,295.74,-0.003,-0.008,0.001,-0.352,-0.962,0.038,6.78,-4.12,-57.230000000000004,0.673,-0.7048,0.008700000000000001,-0.22360000000000002,0.007,0.01,-0.017
2025-11-06 18:37:06.533,295.745,-0.009000000000000001,-0.013000000000000001,0.001,-0.353,-0.963,0.038,6.57,-4.03,-56.79,0.6731,-0.7048,0.008700000000000001,-0.22360000000000002,0.008,0.012,-0.017
2025-11-06 18:37:06.533,295.75,-0.013000000000000001,-0.015,0.002,-0.352,-0.962,0.037,6.57,-4.03,-56.79,0.6731,-0.7048,0.0088,-0.22360000000000002,0.008,0.01,-0.015
2025-11-06 18:37:06.533,295.755,-0.014,-0.014,0.004,-0.353,-0.963,0.033,6.57,-4.03,-56.79,0.6731,-0.7048,0.0088,-0.2235,0.009000000000000001,0.012,-0.012
2025-11-06 18:37:06.533,295.76,-0.017,-0.012,0.004,-0.353,-0.964,0.031,5.87,-4.47,-57.17,0.6731,-0.7048,0.0089,-0.2235,0.009000000000000001,0.012,-0.01
2025-11-06 18:37:06.533,295.765,-0.015,-0.008,0.005,-0.353,-0.962,0.03,5.87,-4.47,-57.17,0.6731,-0.7048,0.0089,-0.2235,0.008,0.011,-0.009000000000000001
2025-11-06 18:37:06.533,295.77,-0.017,-0.008,0.005,-0.353,-0.962,0.029,6.28,-4.0,-56.82,0.6732,-0.7047,0.0089,-0.2235,0.009000000000000001,0.01,-0.008
2025-11-06 18:37:06.533,295.775,-0.015,-0.01,0.007,-0.353,-0.96,0.03,6.28,-4.0,-56.82,0.6732,-0.7047,0.009000000000000001,-0.2235,0.008,0.009000000000000001,-0.009000000000000001
2025-11-06 18:37:06.533,295.78,-0.012,-0.011,0.008,-0.353,-0.9560000000000001,0.028,6.28,-4.0,-56.82,0.6732,-0.7047,0.009000000000000001,-0.2235,0.008,0.004,-0.007
2025-11-06 18:37:06.534,295.785,-0.012,-0.008,0.008,-0.352,-0.9550000000000001,0.029,6.51,-4.32,-56.94,0.6732,-0.7047,0.0091,-0.2235,0.008,0.003,-0.008
2025-11-06 18:37:06.534,295.79,-0.006,-0.009000000000000001,0.008,-0.353,-0.9530000000000001,0.03,6.51,-4.32,-56.94,0.6732,-0.7047,0.0091,-0.2235,0.008,0.002,-0.01
2025-11-06 18:37:06.537,295.795,-0.004,-0.009000000000000001,0.008,-0.352,-0.9500000000000001,0.031,6.43,-4.23,-56.97,0.6731,-0.7048,0.0092,-0.2235,0.007,-0.001,-0.01
2025-11-06 18:37:06.537,295.8,-0.002,-0.008,0.01,-0.353,-0.9480000000000001,0.031,6.43,-4.23,-56.97,0.6731,-0.7048,0.009300000000000001,-0.22360000000000002,0.008,-0.003,-0.01
2025-11-06 18:37:06.537,295.805,0.003,-0.006,0.01,-0.354,-0.9460000000000001,0.031,6.43,-4.23,-56.97,0.673,-0.7049000000000001,0.009300000000000001,-0.22360000000000002,0.008,-0.005,-0.01
2025-11-06 18:37:06.537,295.81,0.007,-0.008,0.01,-0.353,-0.9440000000000001,0.031,6.57,-4.44,-56.65,0.6729,-0.7049000000000001,0.0094,-0.22360000000000002,0.008,-0.006,-0.01
2025-11-06 18:37:06.537,295.815,0.012,-0.011,0.009000000000000001,-0.355,-0.9440000000000001,0.033,6.57,-4.44,-56.65,0.6729,-0.7050000000000001,0.0094,-0.22360000000000002,0.009000000000000001,-0.007,-0.012
2025-11-06 18:37:06.537,295.82,0.018000000000000002,-0.01,0.011,-0.353,-0.9430000000000001,0.037,6.57,-4.44,-56.65,0.6728000000000001,-0.7050000000000001,0.0095,-0.22360000000000002,0.008,-0.007,-0.016
2025-11-06 18:37:06.537,295.825,0.017,-0.008,0.013000000000000001,-0.357,-0.9440000000000001,0.04,6.54,-4.67,-56.88,0.6727000000000001,-0.7051000000000001,0.0095,-0.2237,0.011,-0.006,-0.018000000000000002
2025-11-06 18:37:06.537,295.83,0.012,-0.008,0.013000000000000001,-0.357,-0.9460000000000001,0.042,6.54,-4.67,-56.88,0.6726000000000001,-0.7052,0.009600000000000001,-0.2237,0.011,-0.004,-0.02
2025-11-06 18:37:06.537,295.835,0.009000000000000001,-0.005,0.015,-0.358,-0.9470000000000001,0.045,6.22,-4.15,-56.85,0.6725,-0.7053,0.0097,-0.2237,0.011,-0.003,-0.023
2025-11-06 18:37:06.537,295.84,0.008,-0.002,0.015,-0.36,-0.9480000000000001,0.045,6.22,-4.15,-56.85,0.6724,-0.7054,0.0098,-0.2237,0.013000000000000001,-0.002,-0.023
2025-11-06 18:37:06.537,295.845,0.005,-0.002,0.016,-0.36,-0.9490000000000001,0.048,5.99,-4.15,-56.97,0.6723,-0.7055,0.0099,-0.2237,0.013000000000000001,-0.001,-0.025
2025-11-06 18:37:06.537,295.85,-0.001,0.001,0.014,-0.361,-0.9500000000000001,0.05,5.99,-4.44,-56.97,0.6723,-0.7055,0.01,-0.2237,0.014,0.0,-0.027
2025-11-06 18:37:06.537,295.855,-0.008,0.002,0.012,-0.361,-0.9500000000000001,0.051000000000000004,5.99,-4.44,-56.97,0.6722,-0.7055,0.01,-0.2237,0.014,0.0,-0.028
2025-11-06 18:37:06.537,295.86,-0.014,0.002,0.012,-0.362,-0.9500000000000001,0.049,6.54,-5.43,-56.32,0.6722,-0.7056,0.010100000000000001,-0.2238,0.015,0.0,-0.026000000000000002
2025-11-06 18:37:06.537,295.865,-0.015,0.0,0.009000000000000001,-0.362,-0.9510000000000001,0.047,6.54,-5.43,-56.32,0.6722,-0.7056,0.010100000000000001,-0.2238,0.015,0.001,-0.024
2025-11-06 18:37:06.537,295.87,-0.015,0.002,0.007,-0.36,-0.9530000000000001,0.044,6.54,-5.43,-56.32,0.6722,-0.7055,0.0102,-0.2238,0.013000000000000001,0.002,-0.021
2025-11-06 18:37:06.537,295.875,-0.012,0.0,0.006,-0.362,-0.9540000000000001,0.041,5.96,-4.15,-56.56,0.6722,-0.7055,0.0102,-0.2238,0.015,0.003,-0.018000000000000002
2025-11-06 18:37:06.537,295.88,-0.008,0.009000000000000001,0.005,-0.363,-0.9570000000000001,0.037,5.96,-4.15,-56.56,0.6722,-0.7055,0.0102,-0.2238,0.016,0.006,-0.014
2025-11-06 18:37:06.537,295.885,-0.009000000000000001,0.007,0.004,-0.362,-0.9580000000000001,0.035,6.19,-4.18,-57.11,0.6722,-0.7055,0.0102,-0.22390000000000002,0.015,0.007,-0.012
2025-11-06 18:37:06.537,295.89,-0.009000000000000001,0.002,0.005,-0.361,-0.9570000000000001,0.033,6.19,-4.18,-57.11,0.6722,-0.7055,0.0102,-0.22390000000000002,0.014,0.006,-0.01
2025-11-06 18:37:06.538,295.895,-0.012,0.0,0.004,-0.361,-0.9580000000000001,0.032,6.19,-4.18,-57.11,0.6722,-0.7055,0.0103,-0.22390000000000002,0.014,0.007,-0.009000000000000001
2025-11-06 18:37:06.540,295.9,-0.015,0.0,0.007,-0.361,-0.9590000000000001,0.03,6.0200000000000005,-4.0,-56.79,0.6723,-0.7054,0.0103,-0.22390000000000002,0.013000000000000001,0.008,-0.007
2025-11-06 18:37:06.540,295.905,-0.015,-0.001,0.007,-0.359,-0.9590000000000001,0.03,6.0200000000000005,-4.0,-56.79,0.6723,-0.7054,0.0103,-0.22390000000000002,0.011,0.009000000000000001,-0.007
2025-11-06 18:37:06.540,295.91,-0.012,-0.005,0.01,-0.356,-0.9590000000000001,0.031,6.63,-4.18,-56.56,0.6723,-0.7054,0.0103,-0.22390000000000002,0.009000000000000001,0.008,-0.008
2025-11-06 18:37:06.540,295.915,-0.006,-0.002,0.008,-0.354,-0.9590000000000001,0.031,6.63,-4.18,-56.56,0.6723,-0.7054,0.010400000000000001,-0.22390000000000002,0.007,0.008,-0.009000000000000001
2025-11-06 18:37:06.540,295.92,-0.001,-0.006,0.008,-0.352,-0.9560000000000001,0.031,6.63,-4.18,-56.56,0.6723,-0.7054,0.010400000000000001,-0.22390000000000002,0.005,0.005,-0.008
2025-11-06 18:37:06.540,295.925,0.004,-0.006,0.009000000000000001,-0.35000000000000003,-0.9520000000000001,0.031,5.99,-4.47,-57.03,0.6723,-0.7055,0.0105,-0.22390000000000002,0.003,0.001,-0.008
2025-11-06 18:37:06.540,295.93,0.01,-0.005,0.01,-0.34800000000000003,-0.9510000000000001,0.03,5.99,-4.47,-57.03,0.6722,-0.7055,0.0105,-0.22390000000000002,0.0,0.0,-0.007
2025-11-06 18:37:06.540,295.935,0.016,-0.001,0.01,-0.34700000000000003,-0.9470000000000001,0.027,5.72,-5.67,-56.7,0.6722,-0.7055,0.0105,-0.22390000000000002,0.0,-0.003,-0.004
2025-11-06 18:37:06.540,295.94,0.021,0.0,0.01,-0.34600000000000003,-0.9440000000000001,0.026000000000000002,5.72,-5.67,-56.7,0.6721,-0.7056,0.0105,-0.22390000000000002,-0.001,-0.005,-0.003
2025-11-06 18:37:06.540,295.945,0.024,0.0,0.01,-0.34600000000000003,-0.9440000000000001,0.027,5.72,-5.67,-56.7,0.6721,-0.7056,0.0106,-0.22390000000000002,-0.001,-0.006,-0.004
2025-11-06 18:37:06.540,295.95,0.028,-0.002,0.009000000000000001,-0.34500000000000003,-0.9420000000000001,0.028,5.99,-5.99,-57.38,0.672,-0.7057,0.0106,-0.22390000000000002,-0.002,-0.007,-0.005
2025-11-06 18:37:06.540,295.955,0.032,-0.003,0.008,-0.34600000000000003,-0.9430000000000001,0.031,5.99,-5.99,-57.38,0.6719,-0.7058,0.0106,-0.22390000000000002,-0.001,-0.006,-0.007
2025-11-06 18:37:06.540,295.96,0.035,-0.011,0.008,-0.34900000000000003,-0.9420000000000001,0.031,5.84,-4.94,-57.08,0.6719,-0.7058,0.0106,-0.22390000000000002,0.001,-0.007,-0.007
2025-11-06 18:37:06.540,295.965,0.039,-0.019,0.006,-0.35000000000000003,-0.9420000000000001,0.033,5.84,-4.94,-57.08,0.6718000000000001,-0.7059000000000001,0.0106,-0.22390000000000002,0.002,-0.007,-0.009000000000000001
2025-11-06 18:37:06.540,295.97,0.042,-0.017,0.005,-0.35100000000000003,-0.9440000000000001,0.034,5.84,-4.94,-57.08,0.6717000000000001,-0.7060000000000001,0.0106,-0.22390000000000002,0.003,-0.006,-0.009000000000000001
2025-11-06 18:37:06.540,295.975,0.043000000000000003,-0.019,0.001,-0.356,-0.9460000000000001,0.037,6.92,-4.5,-57.230000000000004,0.6716000000000001,-0.7061000000000001,0.010700000000000001,-0.22390000000000002,0.008,-0.004,-0.012
2025-11-06 18:37:06.540,295.98,0.042,-0.02,0.002,-0.357,-0.9480000000000001,0.037,6.92,-4.5,-57.230000000000004,0.6715,-0.7062,0.010700000000000001,-0.2238,0.008,-0.002,-0.012
2025-11-06 18:37:06.540,295.985,0.04,-0.021,0.001,-0.358,-0.9490000000000001,0.038,6.48,-4.47,-56.88,0.6714,-0.7063,0.010700000000000001,-0.2238,0.009000000000000001,0.0,-0.012
2025-11-06 18:37:06.540,295.99,0.036000000000000004,-0.017,0.002,-0.358,-0.9520000000000001,0.038,6.48,-4.47,-56.88,0.6713,-0.7064,0.010700000000000001,-0.2238,0.01,0.002,-0.013000000000000001
2025-11-06 18:37:06.540,295.995,0.028,-0.015,0.002,-0.36,-0.9530000000000001,0.039,6.48,-4.47,-56.88,0.6712,-0.7065,0.0108,-0.2238,0.011,0.003,-0.014
2025-11-06 18:37:06.540,296.0,0.022,-0.01,0.004,-0.36,-0.9570000000000001,0.041,6.37,-4.32,-57.32,0.6712,-0.7065,0.0108,-0.2237,0.012,0.007,-0.015
2025-11-06 18:37:06.540,296.005,0.02,-0.006,0.001,-0.36,-0.9590000000000001,0.041,6.37,-4.32,-57.32,0.6711,-0.7066,0.0108,-0.2237,0.012,0.008,-0.015
2025-11-06 18:37:06.540,296.01,0.017,0.002,0.001,-0.36,-0.9590000000000001,0.042,6.1000000000000005,-5.2,-57.46,0.6711,-0.7066,0.0108,-0.2237,0.012,0.009000000000000001,-0.016
2025-11-06 18:37:06.540,296.015,0.013000000000000001,0.0,0.004,-0.361,-0.962,0.041,6.1000000000000005,-5.2,-57.46,0.6711,-0.7066,0.0108,-0.2238,0.013000000000000001,0.011,-0.015
2025-11-06 18:37:06.540,296.02,0.012,0.0,0.004,-0.36,-0.96,0.041,6.1000000000000005,-5.2,-57.46,0.671,-0.7066,0.0108,-0.2238,0.012,0.01,-0.015
2025-11-06 18:37:06.540,296.025,0.008,-0.006,0.004,-0.359,-0.9590000000000001,0.039,6.08,-3.94,-57.26,0.671,-0.7067,0.0108,-0.2238,0.01,0.009000000000000001,-0.012
2025-11-06 18:37:06.540,296.03,0.006,-0.008,0.003,-0.357,-0.9590000000000001,0.039,6.08,-3.94,-57.26,0.671,-0.7067,0.0108,-0.2237,0.009000000000000001,0.008,-0.012
2025-11-06 18:37:06.540,296.035,0.004,-0.012,0.003,-0.357,-0.9590000000000001,0.037,6.37,-4.0600000000000005,-57.29,0.671,-0.7067,0.0109,-0.2237,0.008,0.008,-0.011
2025-11-06 18:37:06.540,296.04,0.006,-0.017,0.003,-0.355,-0.9580000000000001,0.035,6.37,-4.0600000000000005,-57.29,0.671,-0.7067,0.0109,-0.2237,0.006,0.007,-0.008
2025-11-06 18:37:06.540,296.045,0.005,-0.018000000000000002,0.003,-0.354,-0.9540000000000001,0.033,6.37,-4.0600000000000005,-57.29,0.6709,-0.7068,0.0109,-0.2237,0.006,0.003,-0.006
2025-11-06 18:37:06.540,296.05,0.007,-0.014,0.002,-0.354,-0.9550000000000001,0.031,5.99,-4.3500000000000005,-56.5,0.6709,-0.7068,0.011000000000000001,-0.2237,0.005,0.004,-0.004
2025-11-06 18:37:06.540,296.055,0.012,-0.019,0.003,-0.354,-0.9530000000000001,0.029,5.99,-4.3500000000000005,-56.5,0.6709,-0.7068,0.011000000000000001,-0.22360000000000002,0.006,0.002,-0.002
2025-11-06 18:37:06.540,296.06,0.016,-0.022,0.003,-0.354,-0.9510000000000001,0.029,5.96,-4.73,-56.7,0.6709,-0.7069000000000001,0.011000000000000001,-0.22360000000000002,0.006,0.0,-0.002
2025-11-06 18:37:06.540,296.065,0.018000000000000002,-0.021,0.005,-0.355,-0.9500000000000001,0.029,5.96,-4.73,-56.7,0.6708000000000001,-0.7069000000000001,0.0111,-0.22360000000000002,0.006,0.0,-0.002
2025-11-06 18:37:06.540,296.07,0.021,-0.024,0.005,-0.356,-0.9490000000000001,0.032,5.96,-4.73,-56.7,0.6707000000000001,-0.7070000000000001,0.0111,-0.22360000000000002,0.007,0.0,-0.005
2025-11-06 18:37:06.540,296.075,0.024,-0.028,0.005,-0.356,-0.9480000000000001,0.032,6.46,-5.29,-56.82,0.6707000000000001,-0.7070000000000001,0.0112,-0.22360000000000002,0.007,-0.001,-0.004
2025-11-06 18:37:06.540,296.08,0.029,-0.028,0.007,-0.356,-0.9480000000000001,0.033,6.46,-5.29,-56.82,0.6706000000000001,-0.7071000000000001,0.0112,-0.22360000000000002,0.007,-0.001,-0.006
2025-11-06 18:37:06.540,296.085,0.036000000000000004,-0.035,0.008,-0.356,-0.9470000000000001,0.038,6.1000000000000005,-4.29,-56.76,0.6705,-0.7072,0.011300000000000001,-0.2235,0.007,-0.002,-0.01
2025-11-06 18:37:06.540,296.09,0.045,-0.033,0.01,-0.356,-0.9470000000000001,0.04,6.1000000000000005,-4.29,-56.76,0.6704,-0.7073,0.011300000000000001,-0.2235,0.007,-0.002,-0.012
2025-11-06 18:37:06.540,296.095,0.053,-0.033,0.014,-0.356,-0.9460000000000001,0.04,6.1000000000000005,-4.29,-56.76,0.6703,-0.7075,0.0114,-0.22340000000000002,0.007,-0.003,-0.012
2025-11-06 18:37:06.540,296.1,0.058,-0.031,0.014,-0.356,-0.9460000000000001,0.04,6.08,-4.7,-56.620000000000005,0.6702,-0.7076,0.0115,-0.22340000000000002,0.006,-0.003,-0.011
2025-11-06 18:37:06.540,296.105,0.065,-0.031,0.015,-0.356,-0.9470000000000001,0.041,6.08,-4.7,-56.620000000000005,0.67,-0.7077,0.0115,-0.22340000000000002,0.006,-0.002,-0.012
2025-11-06 18:37:06.540,296.11,0.068,-0.029,0.018000000000000002,-0.355,-0.9460000000000001,0.043000000000000003,7.13,-4.67,-56.29,0.6699,-0.7079000000000001,0.011600000000000001,-0.22340000000000002,0.005,-0.003,-0.014
2025-11-06 18:37:06.542,296.115,0.07200000000000001,-0.028,0.017,-0.358,-0.9450000000000001,0.043000000000000003,7.13,-4.67,-56.29,0.6697000000000001,-0.7080000000000001,0.011600000000000001,-0.2233,0.008,-0.004,-0.013000000000000001
2025-11-06 18:37:06.542,296.12,0.074,-0.03,0.019,-0.358,-0.9450000000000001,0.042,7.13,-4.67,-56.29,0.6696000000000001,-0.7082,0.0117,-0.2233,0.009000000000000001,-0.004,-0.012
2025-11-06 18:37:06.542,296.125,0.076,-0.03,0.017,-0.358,-0.9440000000000001,0.044,5.99,-4.5600000000000005,-56.53,0.6694,-0.7083,0.0117,-0.2233,0.008,-0.005,-0.013000000000000001
2025-11-06 18:37:06.542,296.13,0.078,-0.028,0.018000000000000002,-0.359,-0.9450000000000001,0.044,5.99,-4.5600000000000005,-56.53,0.6692,-0.7085,0.0118,-0.2233,0.009000000000000001,-0.004,-0.013000000000000001
2025-11-06 18:37:06.542,296.135,0.081,-0.028,0.016,-0.36,-0.9440000000000001,0.044,5.99,-4.5600000000000005,-56.53,0.6691,-0.7087,0.0118,-0.2233,0.01,-0.004,-0.012
2025-11-06 18:37:06.542,296.14,0.083,-0.025,0.014,-0.359,-0.9450000000000001,0.045,6.46,-4.41,-56.53,0.6689,-0.7088,0.0118,-0.2233,0.009000000000000001,-0.003,-0.013000000000000001
2025-11-06 18:37:06.542,296.145,0.08600000000000001,-0.019,0.013000000000000001,-0.362,-0.9450000000000001,0.044,6.46,-4.41,-56.53,0.6687000000000001,-0.7090000000000001,0.0118,-0.2233,0.012,-0.003,-0.011
2025-11-06 18:37:06.542,296.15,0.09,-0.016,0.011,-0.362,-0.9450000000000001,0.044,6.6000000000000005,-3.88,-56.53,0.6685,-0.7092,0.0118,-0.2233,0.012,-0.004,-0.011
2025-11-06 18:37:06.542,296.155,0.091,-0.015,0.008,-0.364,-0.9460000000000001,0.044,6.6000000000000005,-3.88,-56.53,0.6683,-0.7094,0.0118,-0.2233,0.014,-0.003,-0.01
2025-11-06 18:37:06.542,296.16,0.093,-0.013000000000000001,0.008,-0.364,-0.9480000000000001,0.042,6.6000000000000005,-3.88,-56.53,0.6681,-0.7095,0.0118,-0.2233,0.014,-0.001,-0.008
2025-11-06 18:37:06.542,296.165,0.095,-0.012,0.006,-0.366,-0.9470000000000001,0.042,5.61,-4.26,-56.76,0.6679,-0.7097,0.0118,-0.2233,0.016,-0.001,-0.008
2025-11-06 18:37:06.542,296.17,0.095,-0.016,0.005,-0.366,-0.9470000000000001,0.043000000000000003,5.61,-4.26,-56.76,0.6678000000000001,-0.7099000000000001,0.0118,-0.2233,0.015,-0.002,-0.008
2025-11-06 18:37:06.542,296.175,0.09,-0.018000000000000002,0.002,-0.364,-0.9500000000000001,0.042,6.1000000000000005,-4.23,-56.730000000000004,0.6676000000000001,-0.7101000000000001,0.0118,-0.2233,0.013000000000000001,0.0,-0.007
2025-11-06 18:37:06.542,296.18,0.088,-0.021,0.001,-0.363,-0.9510000000000001,0.044,6.1000000000000005,-4.23,-56.730000000000004,0.6674,-0.7102,0.0118,-0.2233,0.013000000000000001,0.001,-0.007
2025-11-06 18:37:06.542,296.185,0.089,-0.025,0.002,-0.364,-0.9500000000000001,0.043000000000000003,6.1000000000000005,-4.23,-56.730000000000004,0.6672,-0.7104,0.0118,-0.2232,0.013000000000000001,0.0,-0.007
2025-11-06 18:37:06.542,296.19,0.08700000000000001,-0.022,0.002,-0.361,-0.9500000000000001,0.044,6.13,-4.03,-56.67,0.6671,-0.7106,0.0118,-0.2232,0.011,0.001,-0.007
2025-11-06 18:37:06.542,296.195,0.08600000000000001,-0.021,0.002,-0.361,-0.9510000000000001,0.045,6.13,-4.03,-56.67,0.6669,-0.7107,0.0118,-0.2232,0.01,0.002,-0.007
2025-11-06 18:37:06.542,296.2,0.088,-0.023,0.002,-0.36,-0.9510000000000001,0.045,6.13,-3.8200000000000003,-56.410000000000004,0.6667000000000001,-0.7109000000000001,0.0118,-0.22310000000000002,0.01,0.002,-0.007
2025-11-06 18:37:06.542,296.205,0.089,-0.028,0.005,-0.359,-0.9530000000000001,0.048,6.13,-3.8200000000000003,-56.410000000000004,0.6666000000000001,-0.7111000000000001,0.0118,-0.22310000000000002,0.008,0.004,-0.009000000000000001
2025-11-06 18:37:06.542,296.21,0.092,-0.025,0.005,-0.359,-0.9540000000000001,0.048,6.13,-3.8200000000000003,-56.410000000000004,0.6664,-0.7113,0.0118,-0.22310000000000002,0.008,0.004,-0.009000000000000001
2025-11-06 18:37:06.542,296.215,0.093,-0.027,0.007,-0.359,-0.9530000000000001,0.05,5.84,-4.15,-56.24,0.6662,-0.7114,0.0118,-0.223,0.009000000000000001,0.003,-0.01
2025-11-06 18:37:06.542,296.22,0.092,-0.03,0.004,-0.36,-0.9550000000000001,0.053,5.84,-4.15,-56.24,0.666,-0.7116,0.0118,-0.223,0.009000000000000001,0.006,-0.013000000000000001
2025-11-06 18:37:06.542,296.225,0.08700000000000001,-0.028,0.006,-0.359,-0.9570000000000001,0.054,5.64,-4.32,-56.15,0.6658000000000001,-0.7118,0.0118,-0.22290000000000001,0.008,0.008,-0.013000000000000001
2025-11-06 18:37:06.545,296.23,0.08600000000000001,-0.022,0.006,-0.359,-0.9570000000000001,0.055,5.64,-4.32,-56.15,0.6657000000000001,-0.7120000000000001,0.0118,-0.22290000000000001,0.008,0.008,-0.014
2025-11-06 18:37:06.545,296.235,0.081,-0.024,0.004,-0.358,-0.9580000000000001,0.055,5.64,-4.32,-56.15,0.6655,-0.7121000000000001,0.0118,-0.22290000000000001,0.007,0.009000000000000001,-0.013000000000000001
2025-11-06 18:37:06.545,296.24,0.078,-0.022,0.005,-0.356,-0.9570000000000001,0.056,5.67,-4.47,-56.09,0.6654,-0.7123,0.0118,-0.2228,0.005,0.008,-0.013000000000000001
2025-11-06 18:37:06.545,296.245,0.076,-0.025,0.003,-0.357,-0.9570000000000001,0.056,5.67,-4.47,-56.09,0.6652,-0.7124,0.0118,-0.2228,0.006,0.008,-0.013000000000000001
2025-11-06 18:37:06.545,296.25,0.07100000000000001,-0.021,0.004,-0.356,-0.9560000000000001,0.056,6.28,-4.96,-56.44,0.6651,-0.7125,0.0118,-0.2228,0.006,0.007,-0.013000000000000001
2025-11-06 18:37:06.545,296.255,0.068,-0.024,0.005,-0.357,-0.9560000000000001,0.056,6.28,-4.96,-56.44,0.665,-0.7127,0.0118,-0.2227,0.006,0.007,-0.013000000000000001
2025-11-06 18:37:06.545,296.26,0.065,-0.017,0.005,-0.359,-0.9560000000000001,0.056,6.28,-4.96,-56.44,0.6648000000000001,-0.7128,0.0119,-0.2227,0.008,0.007,-0.012
2025-11-06 18:37:06.545,296.265,0.062,-0.018000000000000002,0.005,-0.359,-0.9540000000000001,0.056,5.64,-4.61,-56.94,0.6647000000000001,-0.7129000000000001,0.0119,-0.2227,0.008,0.005,-0.012
2025-11-06 18:37:06.545,296.27,0.057,-0.019,0.005,-0.36,-0.9520000000000001,0.053,5.64,-4.61,-56.94,0.6646000000000001,-0.7130000000000001,0.0119,-0.2227,0.009000000000000001,0.003,-0.009000000000000001
2025-11-06 18:37:06.545,296.275,0.054,-0.017,0.004,-0.359,-0.9510000000000001,0.054,5.96,-4.8500000000000005,-56.27,0.6645,-0.7132000000000001,0.0119,-0.22260000000000002,0.008,0.002,-0.01
2025-11-06 18:37:06.545,296.28,0.048,-0.024,0.002,-0.36,-0.9490000000000001,0.054,5.96,-4.8500000000000005,-56.27,0.6644,-0.7133,0.0119,-0.22260000000000002,0.009000000000000001,0.0,-0.009000000000000001
2025-11-06 18:37:06.545,296.285,0.046,-0.027,0.002,-0.359,-0.9500000000000001,0.053,5.96,-4.8500000000000005,-56.27,0.6643,-0.7134,0.0119,-0.22260000000000002,0.008,0.001,-0.008
2025-11-06 18:37:06.545,296.29,0.045,-0.022,0.001,-0.359,-0.9480000000000001,0.057,6.22,-4.96,-55.89,0.6642,-0.7135,0.012,-0.2225,0.008,0.0,-0.011
2025-11-06 18:37:06.545,296.295,0.043000000000000003,-0.024,0.001,-0.359,-0.9480000000000001,0.057,6.22,-4.96,-55.89,0.6641,-0.7136,0.012,-0.2225,0.007,0.0,-0.012
2025-11-06 18:37:06.545,296.3,0.044,-0.024,0.001,-0.36,-0.9480000000000001,0.059000000000000004,5.9,-4.64,-56.0,0.664,-0.7137,0.012,-0.2225,0.008,0.0,-0.013000000000000001
2025-11-06 18:37:06.545,296.305,0.046,-0.017,0.0,-0.361,-0.9480000000000001,0.062,5.9,-4.64,-56.0,0.6639,-0.7138,0.012,-0.22240000000000001,0.009000000000000001,0.0,-0.015
2025-11-06 18:37:06.545,296.31,0.048,-0.017,0.002,-0.361,-0.9490000000000001,0.062,5.9,-4.64,-56.0,0.6638000000000001,-0.7139,0.012100000000000001,-0.22240000000000001,0.01,0.0,-0.016
2025-11-06 18:37:06.545,296.315,0.046,-0.018000000000000002,0.001,-0.361,-0.9490000000000001,0.064,6.63,-4.88,-56.09,0.6637000000000001,-0.7140000000000001,0.012100000000000001,-0.22240000000000001,0.01,0.001,-0.017
2025-11-06 18:37:06.545,296.32,0.046,-0.016,0.0,-0.362,-0.9500000000000001,0.065,6.63,-4.88,-56.09,0.6636000000000001,-0.7141000000000001,0.012100000000000001,-0.2223,0.011,0.002,-0.018000000000000002
2025-11-06 18:37:06.545,296.325,0.044,-0.014,0.002,-0.363,-0.9530000000000001,0.064,5.61,-4.64,-55.910000000000004,0.6635,-0.7142000000000001,0.012100000000000001,-0.2223,0.011,0.004,-0.016
2025-11-06 18:37:06.545,296.33,0.043000000000000003,-0.01,0.004,-0.363,-0.9520000000000001,0.064,5.61,-4.64,-55.910000000000004,0.6634,-0.7143,0.012100000000000001,-0.2223,0.012,0.003,-0.016
2025-11-06 18:37:06.545,296.335,0.04,-0.009000000000000001,0.002,-0.364,-0.9520000000000001,0.063,5.61,-4.64,-55.910000000000004,0.6633,-0.7144,0.012100000000000001,-0.2223,0.013000000000000001,0.003,-0.015
2025-11-06 18:37:06.545,296.34,0.037,-0.007,0.003,-0.363,-0.9520000000000001,0.063,6.43,-4.76,-55.59,0.6632,-0.7145,0.012100000000000001,-0.2223,0.011,0.004,-0.014
2025-11-06 18:37:06.545,296.345,0.037,-0.004,0.005,-0.365,-0.9520000000000001,0.062,6.43,-4.76,-55.59,0.6631,-0.7145,0.012100000000000001,-0.2223,0.013000000000000001,0.003,-0.013000000000000001
2025-11-06 18:37:06.545,296.35,0.032,-0.005,0.004,-0.363,-0.9530000000000001,0.06,5.96,-4.94,-55.53,0.663,-0.7146,0.012100000000000001,-0.2223,0.012,0.004,-0.011
2025-11-06 18:37:06.545,296.355,0.029,-0.003,0.005,-0.363,-0.9530000000000001,0.06,5.96,-4.94,-55.53,0.663,-0.7146,0.012100000000000001,-0.2223,0.012,0.005,-0.011
2025-11-06 18:37:06.545,296.36,0.027,-0.002,0.006,-0.363,-0.9550000000000001,0.06,5.96,-4.94,-55.53,0.6629,-0.7147,0.012100000000000001,-0.2223,0.012,0.006,-0.011
2025-11-06 18:37:06.545,296.365,0.026000000000000002,0.001,0.005,-0.363,-0.9550000000000001,0.061,6.16,-4.73,-55.51,0.6629,-0.7148,0.012100000000000001,-0.2223,0.011,0.006,-0.011
2025-11-06 18:37:06.545,296.37,0.023,0.0,0.004,-0.361,-0.9550000000000001,0.062,6.16,-4.73,-55.51,0.6628000000000001,-0.7148,0.012100000000000001,-0.2223,0.01,0.007,-0.012
2025-11-06 18:37:06.545,296.375,0.02,0.002,0.004,-0.361,-0.9560000000000001,0.062,5.78,-4.79,-55.56,0.6628000000000001,-0.7148,0.012100000000000001,-0.22240000000000001,0.01,0.007,-0.012
2025-11-06 18:37:06.545,296.38,0.018000000000000002,0.0,0.004,-0.361,-0.9560000000000001,0.062,5.78,-4.79,-55.56,0.6627000000000001,-0.7149,0.012100000000000001,-0.22240000000000001,0.009000000000000001,0.007,-0.012
2025-11-06 18:37:06.545,296.385,0.018000000000000002,-0.003,0.002,-0.36,-0.9530000000000001,0.059000000000000004,5.78,-4.79,-55.56,0.6627000000000001,-0.7149,0.012100000000000001,-0.22240000000000001,0.009000000000000001,0.004,-0.009000000000000001
2025-11-06 18:37:06.545,296.39,0.015,-0.005,0.002,-0.36,-0.9500000000000001,0.058,7.24,-4.3500000000000005,-56.24,0.6626000000000001,-0.7150000000000001,0.0122,-0.22240000000000001,0.008,0.001,-0.009000000000000001
2025-11-06 18:37:06.545,296.395,0.013000000000000001,-0.006,0.0,-0.361,-0.9480000000000001,0.057,7.24,-4.3500000000000005,-56.24,0.6626000000000001,-0.7150000000000001,0.0122,-0.22240000000000001,0.009000000000000001,0.0,-0.007
2025-11-06 18:37:06.545,296.4,0.014,-0.002,0.0,-0.36,-0.9470000000000001,0.056,7.24,-4.3500000000000005,-56.24,0.6625,-0.7151000000000001,0.0122,-0.22240000000000001,0.008,-0.001,-0.006
2025-11-06 18:37:06.545,296.405,0.018000000000000002,-0.006,-0.002,-0.359,-0.9450000000000001,0.056,5.67,-4.3500000000000005,-56.18,0.6624,-0.7151000000000001,0.0122,-0.22240000000000001,0.007,-0.003,-0.006
2025-11-06 18:37:06.545,296.41,0.018000000000000002,-0.006,-0.002,-0.357,-0.9430000000000001,0.056,5.67,-4.3500000000000005,-56.18,0.6624,-0.7152000000000001,0.0122,-0.22240000000000001,0.005,-0.004,-0.006
2025-11-06 18:37:06.545,296.415,0.021,-0.013000000000000001,-0.001,-0.358,-0.9440000000000001,0.055,6.37,-4.3500000000000005,-56.15,0.6623,-0.7152000000000001,0.0122,-0.2225,0.006,-0.003,-0.005
2025-11-06 18:37:06.546,296.42,0.021,-0.017,-0.001,-0.358,-0.9440000000000001,0.053,6.37,-4.3500000000000005,-56.15,0.6622,-0.7153,0.0123,-0.22240000000000001,0.006,-0.003,-0.003
2025-11-06 18:37:06.546,296.425,0.024,-0.016,-0.001,-0.358,-0.9450000000000001,0.055,6.37,-4.3500000000000005,-56.15,0.6622,-0.7153,0.0123,-0.22240000000000001,0.005,-0.002,-0.004
2025-11-06 18:37:06.546,296.43,0.026000000000000002,-0.017,0.0,-0.357,-0.9460000000000001,0.054,5.9,-4.79,-55.910000000000004,0.6621,-0.7154,0.0123,-0.22240000000000001,0.005,-0.001,-0.003
2025-11-06 18:37:06.546,296.435,0.029,-0.017,0.0,-0.358,-0.9470000000000001,0.055,5.9,-4.79,-55.910000000000004,0.6621,-0.7155,0.0123,-0.22240000000000001,0.005,-0.001,-0.004
2025-11-06 18:37:06.546,296.44,0.032,-0.013000000000000001,-0.001,-0.359,-0.9460000000000001,0.052000000000000005,5.9,-4.64,-55.71,0.662,-0.7155,0.0123,-0.22240000000000001,0.006,-0.001,-0.001
2025-11-06 18:37:06.546,296.445,0.031,-0.02,0.0,-0.36,-0.9470000000000001,0.052000000000000005,5.9,-4.64,-55.71,0.6619,-0.7156,0.0123,-0.22240000000000001,0.007,-0.001,0.0
2025-11-06 18:37:06.546,296.45,0.031,-0.017,0.0,-0.36,-0.9480000000000001,0.052000000000000005,5.9,-4.64,-55.71,0.6618,-0.7157,0.0123,-0.22240000000000001,0.007,0.0,0.0
2025-11-06 18:37:06.546,296.455,0.033,-0.022,-0.001,-0.361,-0.9500000000000001,0.054,5.67,-4.73,-55.97,0.6618,-0.7157,0.0123,-0.22240000000000001,0.009000000000000001,0.001,-0.002
2025-11-06 18:37:06.546,296.46,0.032,-0.019,0.001,-0.361,-0.9500000000000001,0.058,5.67,-4.73,-55.97,0.6617000000000001,-0.7158,0.012400000000000001,-0.2223,0.009000000000000001,0.002,-0.005
2025-11-06 18:37:06.546,296.465,0.028,-0.022,0.001,-0.363,-0.9520000000000001,0.062,5.8100000000000005,-4.79,-56.21,0.6616000000000001,-0.7159,0.012400000000000001,-0.2223,0.011,0.004,-0.01
2025-11-06 18:37:06.546,296.47,0.026000000000000002,-0.013000000000000001,0.004,-0.364,-0.9530000000000001,0.064,5.8100000000000005,-4.79,-56.21,0.6616000000000001,-0.7159,0.012400000000000001,-0.2223,0.011,0.005,-0.012
2025-11-06 18:37:06.546,296.475,0.025,-0.013000000000000001,0.002,-0.364,-0.9520000000000001,0.065,5.8100000000000005,-4.79,-56.21,0.6615,-0.7160000000000001,0.012400000000000001,-0.2223,0.011,0.004,-0.012
2025-11-06 18:37:06.546,296.48,0.028,-0.006,0.004,-0.363,-0.9510000000000001,0.065,6.28,-4.32,-56.0,0.6615,-0.7161000000000001,0.012400000000000001,-0.2223,0.011,0.003,-0.012
2025-11-06 18:37:06.546,296.485,0.028,-0.003,0.0,-0.363,-0.9490000000000001,0.065,6.28,-4.32,-56.0,0.6614,-0.7161000000000001,0.012400000000000001,-0.2223,0.011,0.001,-0.012
2025-11-06 18:37:06.546,296.49,0.024,0.0,-0.001,-0.365,-0.9470000000000001,0.065,6.37,-5.23,-55.45,0.6613,-0.7162000000000001,0.012400000000000001,-0.2223,0.012,0.0,-0.011
2025-11-06 18:37:06.546,296.495,0.021,-0.003,-0.002,-0.364,-0.9470000000000001,0.064,6.37,-5.23,-55.45,0.6613,-0.7162000000000001,0.012400000000000001,-0.2223,0.011,0.0,-0.01
2025-11-06 18:37:06.546,296.5,0.021,-0.01,-0.001,-0.363,-0.9500000000000001,0.062,6.37,-5.23,-55.45,0.6612,-0.7163,0.0125,-0.2223,0.01,0.002,-0.008
2025-11-06 18:37:06.546,296.505,0.021,-0.011,-0.002,-0.363,-0.9490000000000001,0.061,6.84,-4.73,-55.71,0.6611,-0.7163,0.0125,-0.2223,0.01,0.001,-0.007
2025-11-06 18:37:06.546,296.51,0.017,-0.012,0.0,-0.362,-0.9490000000000001,0.061,6.84,-4.73,-55.71,0.6611,-0.7164,0.0125,-0.2223,0.009000000000000001,0.001,-0.007
2025-11-06 18:37:06.546,296.515,0.014,-0.012,0.0,-0.36,-0.9490000000000001,0.059000000000000004,5.58,-4.32,-55.86,0.6611,-0.7164,0.0125,-0.2223,0.007,0.001,-0.005
2025-11-06 18:37:06.546,296.52,0.015,-0.017,0.0,-0.361,-0.9480000000000001,0.057,5.58,-4.32,-55.86,0.661,-0.7165,0.0125,-0.2223,0.008,0.0,-0.003
