System_Time,Timestamp,Gyro_X,Gyro_Y,Gyro_Z,Acc_X,Acc_Y,Acc_Z,Mag_X,Mag_Y,Mag_Z,Quat_W,Quat_X,Quat_Y,Quat_Z,Linear_Acc_X,Linear_Acc_Y,Linear_Acc_Z
2025-11-06 18:37:23.997,309.065,0.041,-0.021,-0.005,-0.362,-0.9390000000000001,0.201,6.28,-8.38,-48.61,0.5995,-0.7609,-0.022600000000000002,-0.24680000000000002,-0.004,0.012,-0.015
2025-11-06 18:37:23.997,309.07,0.04,-0.016,-0.002,-0.363,-0.9410000000000001,0.199,6.19,-6.69,-47.99,0.5994,-0.761,-0.022600000000000002,-0.2467,-0.002,0.014,-0.013000000000000001
2025-11-06 18:37:23.997,309.075,0.039,-0.02,-0.002,-0.362,-0.9410000000000001,0.196,6.19,-6.69,-47.99,0.5993,-0.7611,-0.022600000000000002,-0.2467,-0.003,0.014,-0.01
2025-11-06 18:37:23.997,309.08,0.039,-0.025,-0.001,-0.363,-0.9400000000000001,0.193,6.19,-6.69,-47.99,0.5993,-0.7612,-0.022600000000000002,-0.2466,-0.003,0.013000000000000001,-0.007
2025-11-06 18:37:23.997,309.085,0.042,-0.027,0.0,-0.363,-0.9420000000000001,0.192,6.95,-6.8100000000000005,-48.11,0.5992000000000001,-0.7613000000000001,-0.022600000000000002,-0.2466,-0.003,0.015,-0.005
2025-11-06 18:37:23.997,309.09,0.042,-0.029,0.001,-0.365,-0.9410000000000001,0.189,6.95,-6.8100000000000005,-48.11,0.5991000000000001,-0.7613000000000001,-0.022600000000000002,-0.24650000000000002,0.0,0.014,-0.002
2025-11-06 18:37:23.997,309.095,0.042,-0.033,0.0,-0.365,-0.9390000000000001,0.187,5.93,-6.84,-48.26,0.599,-0.7614000000000001,-0.022600000000000002,-0.2464,0.0,0.012,0.0
2025-11-06 18:37:23.997,309.1,0.044,-0.044,0.001,-0.367,-0.936,0.187,5.93,-6.84,-48.26,0.599,-0.7615000000000001,-0.022500000000000003,-0.24630000000000002,0.0,0.008,0.0
2025-11-06 18:37:23.997,309.105,0.047,-0.043000000000000003,0.0,-0.369,-0.934,0.189,5.93,-6.84,-48.26,0.5989,-0.7616,-0.022500000000000003,-0.24630000000000002,0.003,0.006,-0.001
2025-11-06 18:37:23.997,309.11,0.051000000000000004,-0.042,0.0,-0.37,-0.932,0.187,7.13,-6.78,-47.730000000000004,0.5988,-0.7617,-0.022500000000000003,-0.2462,0.003,0.005,0.0
2025-11-06 18:37:23.997,309.115,0.052000000000000005,-0.045,-0.001,-0.368,-0.93,0.187,7.13,-6.78,-47.730000000000004,0.5987,-0.7618,-0.0224,-0.2461,0.002,0.003,0.0
2025-11-06 18:37:23.997,309.12,0.054,-0.04,-0.001,-0.368,-0.93,0.186,5.96,-6.890000000000001,-47.93,0.5986,-0.7619,-0.0224,-0.24600000000000002,0.002,0.003,0.002
2025-11-06 18:37:23.997,309.125,0.057,-0.038,-0.002,-0.369,-0.93,0.187,5.96,-6.890000000000001,-47.93,0.5985,-0.762,-0.0224,-0.2459,0.003,0.003,0.001
2025-11-06 18:37:23.998,309.13,0.057,-0.035,-0.002,-0.368,-0.932,0.185,5.96,-6.890000000000001,-47.93,0.5984,-0.7621,-0.0224,-0.24580000000000002,0.002,0.005,0.003
2025-11-06 18:37:23.998,309.135,0.055,-0.036000000000000004,-0.003,-0.366,-0.934,0.185,5.9,-6.8100000000000005,-48.28,0.5983,-0.7622,-0.0224,-0.24580000000000002,0.0,0.007,0.004
2025-11-06 18:37:23.998,309.14,0.053,-0.035,-0.005,-0.365,-0.935,0.185,5.9,-6.8100000000000005,-48.28,0.5982000000000001,-0.7623000000000001,-0.0224,-0.2457,0.0,0.008,0.004
2025-11-06 18:37:23.998,309.145,0.055,-0.028,-0.006,-0.362,-0.936,0.185,6.25,-6.66,-47.76,0.5981000000000001,-0.7624000000000001,-0.0224,-0.2456,-0.003,0.009000000000000001,0.004
2025-11-06 18:37:23.998,309.15,0.054,-0.03,-0.006,-0.36,-0.937,0.189,6.25,-6.66,-47.76,0.598,-0.7625000000000001,-0.0224,-0.24550000000000002,-0.005,0.01,0.001
2025-11-06 18:37:23.998,309.155,0.051000000000000004,-0.035,-0.009000000000000001,-0.356,-0.9390000000000001,0.192,6.25,-6.66,-47.76,0.5979,-0.7626000000000001,-0.0224,-0.2454,-0.008,0.012,-0.001
2025-11-06 18:37:23.998,309.16,0.046,-0.034,-0.008,-0.355,-0.9380000000000001,0.192,5.8100000000000005,-7.92,-47.64,0.5978,-0.7627,-0.0224,-0.2454,-0.01,0.011,-0.001
2025-11-06 18:37:23.998,309.165,0.045,-0.038,-0.006,-0.353,-0.937,0.194,5.8100000000000005,-7.92,-47.64,0.5977,-0.7628,-0.0224,-0.24530000000000002,-0.012,0.011,-0.002
2025-11-06 18:37:23.998,309.17,0.042,-0.043000000000000003,-0.006,-0.35100000000000003,-0.9380000000000001,0.195,5.67,-6.51,-47.82,0.5977,-0.7629,-0.0224,-0.2451,-0.013000000000000001,0.012,-0.003
2025-11-06 18:37:23.998,309.175,0.039,-0.047,-0.003,-0.353,-0.937,0.196,5.67,-6.51,-47.82,0.5976,-0.763,-0.0223,-0.24500000000000002,-0.012,0.011,-0.004
2025-11-06 18:37:23.998,309.18,0.037,-0.053,-0.002,-0.354,-0.936,0.197,5.67,-6.51,-47.82,0.5975,-0.7631,-0.0223,-0.2449,-0.01,0.009000000000000001,-0.005
2025-11-06 18:37:23.998,309.185,0.034,-0.058,0.0,-0.356,-0.935,0.201,6.98,-7.22,-47.52,0.5975,-0.7632,-0.0222,-0.24480000000000002,-0.008,0.009000000000000001,-0.008
2025-11-06 18:37:23.998,309.19,0.035,-0.057,0.002,-0.357,-0.934,0.2,6.98,-7.22,-47.52,0.5974,-0.7633000000000001,-0.0222,-0.2446,-0.007,0.008,-0.007
2025-11-06 18:37:23.998,309.195,0.034,-0.059000000000000004,0.005,-0.361,-0.935,0.202,5.87,-6.34,-47.64,0.5973,-0.7634000000000001,-0.0221,-0.24450000000000002,-0.003,0.009000000000000001,-0.009000000000000001
2025-11-06 18:37:23.998,309.2,0.032,-0.063,0.007,-0.362,-0.933,0.203,5.87,-6.34,-47.64,0.5973,-0.7635000000000001,-0.022000000000000002,-0.2444,-0.002,0.007,-0.009000000000000001
2025-11-06 18:37:23.998,309.205,0.032,-0.057,0.009000000000000001,-0.364,-0.934,0.20500000000000002,5.87,-6.34,-47.64,0.5972000000000001,-0.7636000000000001,-0.0219,-0.24430000000000002,0.0,0.008,-0.011
2025-11-06 18:37:23.998,309.21,0.029,-0.061,0.013000000000000001,-0.367,-0.933,0.203,6.16,-7.390000000000001,-47.230000000000004,0.5971000000000001,-0.7637,-0.0218,-0.2442,0.001,0.006,-0.009000000000000001
2025-11-06 18:37:23.998,309.215,0.032,-0.053,0.017,-0.37,-0.933,0.201,6.16,-7.390000000000001,-47.230000000000004,0.597,-0.7637,-0.0217,-0.2441,0.005,0.006,-0.007
2025-11-06 18:37:23.998,309.22,0.034,-0.05,0.019,-0.37,-0.934,0.201,6.0200000000000005,-6.3100000000000005,-47.79,0.597,-0.7638,-0.0217,-0.2441,0.005,0.008,-0.006
2025-11-06 18:37:23.998,309.225,0.037,-0.052000000000000005,0.022,-0.372,-0.934,0.2,6.0200000000000005,-6.3100000000000005,-47.79,0.5969,-0.7639,-0.0216,-0.24400000000000002,0.006,0.008,-0.005
2025-11-06 18:37:23.998,309.23,0.035,-0.05,0.023,-0.371,-0.933,0.201,6.0200000000000005,-6.3100000000000005,-47.79,0.5968,-0.764,-0.021500000000000002,-0.2439,0.006,0.007,-0.006
2025-11-06 18:37:23.998,309.235,0.034,-0.049,0.024,-0.369,-0.933,0.2,5.84,-6.48,-48.14,0.5967,-0.7641,-0.021400000000000002,-0.2439,0.004,0.007,-0.004
2025-11-06 18:37:23.998,309.24,0.033,-0.042,0.024,-0.369,-0.934,0.2,5.84,-6.48,-48.14,0.5966,-0.7642,-0.0213,-0.24380000000000002,0.003,0.008,-0.004
2025-11-06 18:37:23.998,309.245,0.035,-0.036000000000000004,0.026000000000000002,-0.365,-0.931,0.197,5.84,-6.48,-48.26,0.5966,-0.7643000000000001,-0.0212,-0.24380000000000002,0.0,0.005,-0.001
2025-11-06 18:37:23.998,309.25,0.035,-0.039,0.024,-0.367,-0.928,0.196,5.99,-6.95,-48.26,0.5965,-0.7643000000000001,-0.0211,-0.2437,0.001,0.003,0.0
2025-11-06 18:37:23.998,309.255,0.037,-0.038,0.023,-0.365,-0.93,0.195,5.99,-6.95,-48.26,0.5964,-0.7644000000000001,-0.021,-0.2437,0.0,0.004,0.0
2025-11-06 18:37:23.998,309.26,0.037,-0.037,0.023,-0.363,-0.928,0.196,5.72,-6.37,-47.64,0.5963,-0.7645000000000001,-0.021,-0.2436,-0.002,0.003,0.0
2025-11-06 18:37:23.998,309.265,0.036000000000000004,-0.045,0.024,-0.363,-0.93,0.197,5.72,-6.37,-47.64,0.5962000000000001,-0.7646000000000001,-0.020900000000000002,-0.2436,-0.002,0.004,0.0
2025-11-06 18:37:23.998,309.27,0.034,-0.045,0.023,-0.36,-0.93,0.198,5.72,-6.37,-47.64,0.5962000000000001,-0.7647,-0.020800000000000003,-0.24350000000000002,-0.004,0.005,-0.001
2025-11-06 18:37:23.998,309.275,0.033,-0.042,0.019,-0.36,-0.932,0.2,5.43,-6.98,-48.28,0.5961000000000001,-0.7647,-0.0207,-0.24350000000000002,-0.005,0.006,-0.003
2025-11-06 18:37:23.998,309.28,0.034,-0.043000000000000003,0.019,-0.358,-0.929,0.199,5.43,-6.98,-48.28,0.596,-0.7648,-0.0206,-0.2434,-0.007,0.003,-0.002
2025-11-06 18:37:23.998,309.285,0.034,-0.045,0.018000000000000002,-0.357,-0.928,0.2,6.78,-6.86,-47.85,0.5959,-0.7649,-0.0206,-0.24330000000000002,-0.008,0.003,-0.002
2025-11-06 18:37:23.998,309.29,0.035,-0.046,0.016,-0.356,-0.928,0.201,6.78,-6.86,-47.85,0.5959,-0.765,-0.0205,-0.2432,-0.009000000000000001,0.002,-0.003
2025-11-06 18:37:23.998,309.295,0.037,-0.046,0.016,-0.356,-0.927,0.203,6.78,-6.86,-47.85,0.5958,-0.7651,-0.0204,-0.2431,-0.009000000000000001,0.002,-0.005
2025-11-06 18:37:23.998,309.3,0.039,-0.046,0.016,-0.354,-0.927,0.203,6.1000000000000005,-8.120000000000001,-47.61,0.5957,-0.7652,-0.0204,-0.24300000000000002,-0.011,0.002,-0.004
2025-11-06 18:37:23.998,309.305,0.039,-0.047,0.018000000000000002,-0.353,-0.927,0.20400000000000001,6.1000000000000005,-8.120000000000001,-47.61,0.5956,-0.7653000000000001,-0.020300000000000002,-0.2429,-0.012,0.002,-0.005
2025-11-06 18:37:23.998,309.31,0.039,-0.052000000000000005,0.018000000000000002,-0.354,-0.928,0.203,5.96,-6.46,-47.38,0.5955,-0.7654000000000001,-0.020200000000000003,-0.2429,-0.011,0.003,-0.004
2025-11-06 18:37:23.998,309.315,0.033,-0.049,0.02,-0.355,-0.93,0.20500000000000002,5.96,-6.46,-47.38,0.5954,-0.7655000000000001,-0.0201,-0.24280000000000002,-0.01,0.005,-0.006
2025-11-06 18:37:23.998,309.32,0.032,-0.049,0.021,-0.356,-0.93,0.203,5.96,-6.46,-47.38,0.5954,-0.7656000000000001,-0.02,-0.2427,-0.009000000000000001,0.005,-0.004
2025-11-06 18:37:23.998,309.325,0.032,-0.054,0.024,-0.355,-0.934,0.20400000000000001,6.63,-6.69,-47.52,0.5953,-0.7656000000000001,-0.0199,-0.2426,-0.01,0.009000000000000001,-0.004
2025-11-06 18:37:23.998,309.33,0.032,-0.056,0.024,-0.354,-0.936,0.202,6.63,-6.69,-47.52,0.5952000000000001,-0.7657,-0.0198,-0.24250000000000002,-0.011,0.011,-0.002
2025-11-06 18:37:23.998,309.335,0.034,-0.058,0.026000000000000002,-0.354,-0.937,0.201,5.93,-6.6000000000000005,-47.5,0.5952000000000001,-0.7658,-0.019700000000000002,-0.2424,-0.011,0.012,0.0
2025-11-06 18:37:23.998,309.34,0.032,-0.066,0.028,-0.355,-0.937,0.202,5.93,-6.6000000000000005,-47.5,0.5951000000000001,-0.7659,-0.0196,-0.24230000000000002,-0.01,0.012,-0.001
2025-11-06 18:37:23.998,309.345,0.034,-0.066,0.029,-0.356,-0.937,0.201,5.93,-6.6000000000000005,-47.5,0.595,-0.766,-0.0195,-0.2422,-0.009000000000000001,0.012,0.0
2025-11-06 18:37:23.998,309.35,0.039,-0.066,0.027,-0.356,-0.9380000000000001,0.20400000000000001,5.49,-6.8100000000000005,-47.17,0.5949,-0.7661,-0.0194,-0.2421,-0.009000000000000001,0.013000000000000001,-0.002
2025-11-06 18:37:23.998,309.355,0.039,-0.069,0.027,-0.355,-0.936,0.20500000000000002,5.49,-6.8100000000000005,-47.17,0.5948,-0.7662,-0.019200000000000002,-0.24200000000000002,-0.01,0.012,-0.004
2025-11-06 18:37:23.998,309.36,0.043000000000000003,-0.067,0.029,-0.357,-0.935,0.20700000000000002,5.23,-6.28,-47.79,0.5947,-0.7663000000000001,-0.019100000000000002,-0.2419,-0.008,0.011,-0.005
2025-11-06 18:37:23.998,309.365,0.042,-0.07,0.03,-0.357,-0.933,0.20800000000000002,5.23,-6.28,-47.79,0.5946,-0.7664000000000001,-0.019,-0.24180000000000001,-0.008,0.009000000000000001,-0.006
2025-11-06 18:37:23.998,309.37,0.045,-0.07,0.028,-0.357,-0.933,0.20800000000000002,5.23,-6.28,-47.79,0.5945,-0.7665000000000001,-0.0188,-0.2417,-0.008,0.009000000000000001,-0.006
2025-11-06 18:37:23.998,309.375,0.048,-0.07,0.027,-0.357,-0.93,0.20800000000000002,6.13,-6.66,-48.02,0.5944,-0.7667,-0.0187,-0.2416,-0.009000000000000001,0.006,-0.006
2025-11-06 18:37:23.998,309.38,0.05,-0.07200000000000001,0.026000000000000002,-0.358,-0.929,0.21,6.13,-6.66,-48.02,0.5943,-0.7668,-0.018600000000000002,-0.24150000000000002,-0.007,0.005,-0.007
2025-11-06 18:37:23.998,309.385,0.053,-0.074,0.025,-0.359,-0.926,0.21,6.34,-7.65,-47.82,0.5942000000000001,-0.7669,-0.018500000000000003,-0.2414,-0.007,0.002,-0.006
2025-11-06 18:37:23.999,309.39,0.053,-0.069,0.026000000000000002,-0.36,-0.924,0.209,6.34,-7.65,-47.82,0.5941000000000001,-0.767,-0.0184,-0.24130000000000001,-0.006,0.0,-0.005
2025-11-06 18:37:23.999,309.395,0.056,-0.07100000000000001,0.028,-0.362,-0.923,0.20600000000000002,6.34,-7.65,-47.82,0.5940000000000001,-0.7672,-0.0182,-0.2411,-0.003,0.0,-0.002
2025-11-06 18:37:23.999,309.4,0.054,-0.073,0.028,-0.362,-0.921,0.20800000000000002,5.5200000000000005,-7.65,-47.82,0.5938,-0.7673,-0.0181,-0.24100000000000002,-0.004,-0.002,-0.003
2025-11-06 18:37:23.999,309.405,0.055,-0.075,0.028,-0.363,-0.919,0.209,5.5200000000000005,-7.65,-47.82,0.5937,-0.7674000000000001,-0.018000000000000002,-0.2409,-0.003,-0.003,-0.004
2025-11-06 18:37:23.999,309.41,0.056,-0.07100000000000001,0.027,-0.362,-0.92,0.21,6.0200000000000005,-6.8100000000000005,-47.67,0.5936,-0.7676000000000001,-0.0179,-0.24080000000000001,-0.004,-0.002,-0.005
2025-11-06 18:37:23.999,309.415,0.057,-0.068,0.029,-0.363,-0.918,0.213,6.0200000000000005,-6.8100000000000005,-47.67,0.5934,-0.7677,-0.0177,-0.24070000000000003,-0.003,-0.004,-0.007
2025-11-06 18:37:23.999,309.42,0.058,-0.06,0.03,-0.363,-0.918,0.215,6.0200000000000005,-6.8100000000000005,-47.67,0.5933,-0.7679,-0.0176,-0.2406,-0.003,-0.004,-0.009000000000000001
2025-11-06 18:37:23.999,309.425,0.058,-0.057,0.029,-0.364,-0.918,0.218,5.58,-7.33,-47.76,0.5932000000000001,-0.768,-0.0175,-0.2406,-0.002,-0.003,-0.011
2025-11-06 18:37:23.999,309.43,0.061,-0.053,0.028,-0.363,-0.918,0.218,5.58,-7.33,-47.76,0.5930000000000001,-0.7681,-0.017400000000000002,-0.24050000000000002,-0.003,-0.004,-0.011
2025-11-06 18:37:23.999,309.435,0.064,-0.039,0.029,-0.364,-0.917,0.221,5.08,-8.33,-48.4,0.5929,-0.7683,-0.017400000000000002,-0.2404,-0.002,-0.005,-0.014
2025-11-06 18:37:23.999,309.44,0.064,-0.036000000000000004,0.027,-0.366,-0.917,0.222,5.08,-8.33,-48.4,0.5927,-0.7684000000000001,-0.0173,-0.2404,-0.001,-0.004,-0.014
2025-11-06 18:37:23.999,309.445,0.063,-0.034,0.028,-0.366,-0.917,0.223,5.08,-8.33,-48.4,0.5926,-0.7685000000000001,-0.0172,-0.2404,-0.001,-0.005,-0.015
2025-11-06 18:37:23.999,309.45,0.062,-0.023,0.026000000000000002,-0.367,-0.916,0.224,5.4,-6.78,-47.96,0.5924,-0.7687,-0.0172,-0.2403,0.0,-0.006,-0.016
2025-11-06 18:37:23.999,309.455,0.061,-0.024,0.023,-0.366,-0.915,0.226,5.4,-6.78,-47.96,0.5922000000000001,-0.7688,-0.0171,-0.2403,-0.001,-0.006,-0.017
2025-11-06 18:37:23.999,309.46,0.059000000000000004,-0.025,0.023,-0.365,-0.913,0.226,5.87,-7.16,-48.31,0.5921000000000001,-0.7689,-0.0171,-0.2403,-0.001,-0.007,-0.017
2025-11-06 18:37:23.999,309.465,0.059000000000000004,-0.021,0.021,-0.365,-0.913,0.227,5.87,-7.16,-48.31,0.5920000000000001,-0.769,-0.017,-0.2403,-0.002,-0.007,-0.017
2025-11-06 18:37:23.999,309.47,0.06,-0.027,0.02,-0.363,-0.914,0.225,5.87,-7.16,-48.31,0.5918,-0.7692,-0.017,-0.24020000000000002,-0.004,-0.007,-0.015
2025-11-06 18:37:23.999,309.475,0.058,-0.031,0.021,-0.362,-0.915,0.221,5.64,-6.6000000000000005,-47.99,0.5917,-0.7693,-0.016900000000000002,-0.24020000000000002,-0.005,-0.006,-0.011
2025-11-06 18:37:23.999,309.48,0.059000000000000004,-0.032,0.021,-0.361,-0.915,0.221,5.64,-6.6000000000000005,-47.99,0.5915,-0.7694000000000001,-0.016900000000000002,-0.24020000000000002,-0.006,-0.006,-0.011
2025-11-06 18:37:23.999,309.485,0.064,-0.042,0.023,-0.36,-0.917,0.22,6.4,-7.48,-47.9,0.5914,-0.7695000000000001,-0.016800000000000002,-0.2401,-0.007,-0.004,-0.009000000000000001
2025-11-06 18:37:23.999,309.49,0.067,-0.036000000000000004,0.024,-0.357,-0.918,0.222,6.4,-7.48,-47.9,0.5912000000000001,-0.7697,-0.016800000000000002,-0.24000000000000002,-0.01,-0.002,-0.01
2025-11-06 18:37:23.999,309.495,0.067,-0.038,0.03,-0.356,-0.918,0.221,6.4,-7.48,-47.9,0.5911000000000001,-0.7698,-0.0167,-0.24000000000000002,-0.011,-0.003,-0.009000000000000001
2025-11-06 18:37:23.999,309.5,0.067,-0.033,0.032,-0.355,-0.918,0.221,5.17,-6.890000000000001,-47.85,0.5909,-0.7699,-0.0166,-0.24000000000000002,-0.012,-0.002,-0.008
2025-11-06 18:37:23.999,309.505,0.067,-0.029,0.035,-0.355,-0.916,0.222,5.17,-6.890000000000001,-47.85,0.5908,-0.7701,-0.0166,-0.2399,-0.012,-0.004,-0.009000000000000001
2025-11-06 18:37:23.999,309.51,0.067,-0.019,0.038,-0.355,-0.915,0.222,5.5200000000000005,-6.890000000000001,-47.09,0.5906,-0.7702,-0.0165,-0.2399,-0.013000000000000001,-0.005,-0.009000000000000001
2025-11-06 18:37:23.999,309.515,0.065,-0.019,0.043000000000000003,-0.354,-0.914,0.22,5.5200000000000005,-7.8,-47.09,0.5905,-0.7703,-0.0164,-0.2399,-0.014,-0.006,-0.006
2025-11-06 18:37:23.999,309.52,0.066,-0.017,0.046,-0.356,-0.913,0.218,5.5200000000000005,-7.8,-47.09,0.5903,-0.7704000000000001,-0.0164,-0.24000000000000002,-0.012,-0.007,-0.005
2025-11-06 18:37:23.999,309.525,0.066,-0.011,0.049,-0.357,-0.909,0.218,5.32,-6.98,-46.97,0.5901000000000001,-0.7705000000000001,-0.016300000000000002,-0.24000000000000002,-0.011,-0.01,-0.003
2025-11-06 18:37:23.999,309.53,0.066,-0.01,0.055,-0.359,-0.909,0.215,5.32,-6.98,-46.97,0.5900000000000001,-0.7706000000000001,-0.0162,-0.2401,-0.009000000000000001,-0.011,0.0
2025-11-06 18:37:23.999,309.535,0.07100000000000001,-0.008,0.057,-0.361,-0.91,0.212,5.32,-6.98,-46.97,0.5898,-0.7708,-0.0161,-0.2401,-0.008,-0.009000000000000001,0.001
2025-11-06 18:37:24.001,309.54,0.075,0.002,0.061,-0.361,-0.912,0.213,5.84,-6.69,-47.14,0.5896,-0.7709,-0.0161,-0.24020000000000002,-0.007,-0.007,0.001
2025-11-06 18:37:24.001,309.545,0.083,0.01,0.065,-0.362,-0.914,0.213,5.84,-6.69,-47.14,0.5894,-0.771,-0.016,-0.2403,-0.007,-0.005,0.002
2025-11-06 18:37:24.001,309.55,0.088,0.015,0.068,-0.365,-0.916,0.214,5.37,-6.75,-46.82,0.5892000000000001,-0.7711,-0.0159,-0.2404,-0.004,-0.003,0.001
2025-11-06 18:37:24.001,309.555,0.093,0.021,0.07,-0.367,-0.92,0.217,5.37,-6.75,-46.82,0.5890000000000001,-0.7713,-0.0159,-0.2406,-0.003,0.001,0.0
2025-11-06 18:37:24.001,309.56,0.1,0.03,0.07100000000000001,-0.367,-0.923,0.22,5.37,-6.75,-46.82,0.5887,-0.7714000000000001,-0.0159,-0.24070000000000003,-0.003,0.003,-0.003
2025-11-06 18:37:24.001,309.565,0.106,0.042,0.073,-0.37,-0.925,0.222,4.82,-6.48,-47.88,0.5885,-0.7715000000000001,-0.0158,-0.2409,-0.001,0.006,-0.005
2025-11-06 18:37:24.001,309.57,0.11,0.052000000000000005,0.073,-0.373,-0.927,0.224,4.82,-6.48,-47.88,0.5882000000000001,-0.7717,-0.0158,-0.2411,0.001,0.008,-0.006
2025-11-06 18:37:24.001,309.575,0.114,0.054,0.073,-0.373,-0.929,0.226,5.34,-6.66,-46.94,0.5879,-0.7718,-0.0158,-0.24130000000000001,0.0,0.01,-0.008
2025-11-06 18:37:24.001,309.58,0.115,0.054,0.073,-0.373,-0.931,0.226,5.34,-6.66,-46.94,0.5876,-0.772,-0.0158,-0.24150000000000002,0.0,0.013000000000000001,-0.007
2025-11-06 18:37:24.001,309.585,0.115,0.059000000000000004,0.074,-0.375,-0.932,0.227,5.34,-6.66,-46.94,0.5874,-0.7721,-0.0159,-0.2417,0.002,0.014,-0.008
2025-11-06 18:37:24.001,309.59,0.11800000000000001,0.058,0.073,-0.377,-0.934,0.225,5.4,-6.92,-47.12,0.5871000000000001,-0.7723,-0.0159,-0.2419,0.004,0.016,-0.005
2025-11-06 18:37:24.001,309.595,0.11900000000000001,0.06,0.07200000000000001,-0.378,-0.9380000000000001,0.224,5.4,-6.92,-47.12,0.5868,-0.7724000000000001,-0.0159,-0.2421,0.005,0.02,-0.003
2025-11-06 18:37:24.001,309.6,0.123,0.063,0.07100000000000001,-0.38,-0.9380000000000001,0.224,4.96,-6.22,-47.09,0.5865,-0.7726000000000001,-0.0159,-0.2424,0.006,0.02,-0.003
2025-11-06 18:37:24.001,309.605,0.125,0.063,0.073,-0.383,-0.9410000000000001,0.225,4.96,-6.22,-47.09,0.5862,-0.7727,-0.0159,-0.2426,0.009000000000000001,0.024,-0.004
2025-11-06 18:37:24.001,309.61,0.126,0.066,0.074,-0.384,-0.9410000000000001,0.225,4.96,-6.22,-47.09,0.5859,-0.7729,-0.016,-0.24280000000000002,0.009000000000000001,0.024,-0.003
2025-11-06 18:37:24.001,309.615,0.125,0.067,0.073,-0.384,-0.9400000000000001,0.224,4.99,-6.75,-47.29,0.5856,-0.773,-0.016,-0.24300000000000002,0.009000000000000001,0.023,-0.002
2025-11-06 18:37:24.001,309.62,0.125,0.07,0.074,-0.385,-0.936,0.226,4.99,-6.75,-47.29,0.5853,-0.7732,-0.016,-0.24330000000000002,0.01,0.019,-0.003
2025-11-06 18:37:24.001,309.625,0.123,0.078,0.07100000000000001,-0.383,-0.928,0.225,5.23,-6.6000000000000005,-47.32,0.5850000000000001,-0.7733,-0.0161,-0.24350000000000002,0.007,0.012,-0.002
2025-11-06 18:37:24.001,309.63,0.11800000000000001,0.082,0.07100000000000001,-0.38,-0.921,0.223,5.23,-6.6000000000000005,-47.32,0.5847,-0.7735000000000001,-0.0161,-0.24380000000000002,0.003,0.005,0.0
2025-11-06 18:37:24.001,309.635,0.116,0.088,0.07200000000000001,-0.376,-0.917,0.221,5.23,-6.6000000000000005,-47.32,0.5844,-0.7736000000000001,-0.0162,-0.2441,0.0,0.002,0.002
2025-11-06 18:37:24.001,309.64,0.115,0.099,0.07100000000000001,-0.374,-0.91,0.22,5.37,-6.66,-46.97,0.5842,-0.7737,-0.0162,-0.24430000000000002,-0.002,-0.004,0.003
2025-11-06 18:37:24.001,309.645,0.117,0.106,0.073,-0.372,-0.906,0.22,5.37,-6.66,-46.97,0.5839,-0.7738,-0.016300000000000002,-0.2447,-0.005,-0.008,0.004
2025-11-06 18:37:24.001,309.65,0.12,0.112,0.076,-0.368,-0.905,0.222,5.26,-6.63,-47.2,0.5836,-0.7739,-0.0164,-0.24500000000000002,-0.009000000000000001,-0.009000000000000001,0.001
2025-11-06 18:37:24.001,309.655,0.126,0.11800000000000001,0.08,-0.367,-0.901,0.224,5.26,-6.63,-47.2,0.5833,-0.7741,-0.0165,-0.24530000000000002,-0.011,-0.012,0.0
2025-11-06 18:37:24.001,309.66,0.128,0.12,0.084,-0.366,-0.899,0.226,5.26,-6.63,-47.2,0.5830000000000001,-0.7742,-0.0166,-0.2456,-0.012,-0.014,-0.001
2025-11-06 18:37:24.001,309.665,0.128,0.123,0.089,-0.366,-0.897,0.229,4.79,-6.86,-46.94,0.5826,-0.7743,-0.0166,-0.24600000000000002,-0.013000000000000001,-0.015,-0.003
2025-11-06 18:37:24.001,309.67,0.126,0.134,0.09,-0.367,-0.9,0.23,4.79,-6.86,-46.94,0.5823,-0.7744000000000001,-0.0167,-0.2464,-0.013000000000000001,-0.013000000000000001,-0.004
2025-11-06 18:37:24.001,309.675,0.125,0.14400000000000002,0.096,-0.369,-0.898,0.231,5.26,-6.28,-46.62,0.5820000000000001,-0.7745000000000001,-0.016800000000000002,-0.24680000000000002,-0.011,-0.014,-0.005
2025-11-06 18:37:24.001,309.68,0.13,0.148,0.1,-0.371,-0.899,0.233,5.26,-6.28,-46.62,0.5817,-0.7747,-0.016900000000000002,-0.2472,-0.01,-0.013000000000000001,-0.006
2025-11-06 18:37:24.001,309.685,0.135,0.16,0.10200000000000001,-0.372,-0.9,0.234,5.26,-6.28,-46.62,0.5813,-0.7748,-0.017,-0.2477,-0.009000000000000001,-0.012,-0.007
2025-11-06 18:37:24.001,309.69,0.14300000000000002,0.17,0.106,-0.373,-0.902,0.23500000000000001,4.8500000000000005,-6.37,-46.33,0.5810000000000001,-0.7749,-0.0172,-0.24810000000000001,-0.009000000000000001,-0.009000000000000001,-0.007
2025-11-06 18:37:24.001,309.695,0.145,0.176,0.109,-0.375,-0.903,0.23700000000000002,4.8500000000000005,-6.37,-46.33,0.5806,-0.775,-0.0173,-0.24860000000000002,-0.007,-0.008,-0.009000000000000001
2025-11-06 18:37:24.001,309.7,0.147,0.186,0.113,-0.373,-0.904,0.23800000000000002,5.4,-6.78,-46.21,0.5802,-0.7751,-0.017400000000000002,-0.24910000000000002,-0.01,-0.007,-0.01
2025-11-06 18:37:24.001,309.705,0.15,0.19,0.114,-0.373,-0.908,0.23900000000000002,5.4,-6.78,-46.21,0.5798,-0.7752,-0.0175,-0.2497,-0.011,-0.002,-0.011
2025-11-06 18:37:24.001,309.71,0.157,0.198,0.117,-0.374,-0.912,0.241,5.4,-6.78,-46.21,0.5794,-0.7754000000000001,-0.0177,-0.25020000000000003,-0.011,0.002,-0.012
2025-11-06 18:37:24.001,309.715,0.166,0.213,0.11900000000000001,-0.376,-0.92,0.24,4.44,-6.54,-45.83,0.5790000000000001,-0.7755000000000001,-0.0179,-0.2508,-0.009000000000000001,0.01,-0.011
2025-11-06 18:37:24.001,309.72,0.169,0.226,0.123,-0.379,-0.923,0.23700000000000002,4.44,-6.54,-45.83,0.5786,-0.7756000000000001,-0.018000000000000002,-0.2514,-0.007,0.013000000000000001,-0.007
2025-11-06 18:37:24.001,309.725,0.171,0.23600000000000002,0.123,-0.382,-0.929,0.23500000000000001,4.26,-6.72,-45.83,0.5781000000000001,-0.7757000000000001,-0.0182,-0.252,-0.006,0.019,-0.004
2025-11-06 18:37:24.001,309.73,0.177,0.23900000000000002,0.123,-0.383,-0.933,0.234,4.26,-6.72,-45.83,0.5777,-0.7759,-0.0184,-0.2526,-0.005,0.024,-0.003
2025-11-06 18:37:24.001,309.735,0.178,0.245,0.124,-0.386,-0.9380000000000001,0.234,4.26,-6.72,-45.83,0.5772,-0.776,-0.0187,-0.2533,-0.003,0.03,-0.002
2025-11-06 18:37:24.001,309.74,0.185,0.25,0.125,-0.389,-0.9420000000000001,0.23500000000000001,5.05,-7.07,-45.42,0.5768,-0.7761,-0.0189,-0.2539,-0.001,0.034,-0.003
2025-11-06 18:37:24.001,309.745,0.186,0.254,0.128,-0.39,-0.9450000000000001,0.23700000000000002,5.05,-7.07,-45.42,0.5763,-0.7762,-0.019100000000000002,-0.2546,0.0,0.037,-0.004
2025-11-06 18:37:24.001,309.75,0.185,0.256,0.131,-0.39,-0.9450000000000001,0.23900000000000002,5.05,-7.01,-45.980000000000004,0.5758,-0.7764000000000001,-0.0193,-0.25520000000000004,-0.001,0.038,-0.006
2025-11-06 18:37:24.001,309.755,0.186,0.264,0.133,-0.389,-0.9440000000000001,0.241,5.05,-7.01,-45.980000000000004,0.5754,-0.7765000000000001,-0.0195,-0.2559,-0.003,0.038,-0.008
2025-11-06 18:37:24.001,309.76,0.181,0.269,0.136,-0.387,-0.9430000000000001,0.242,5.05,-7.01,-45.980000000000004,0.5749000000000001,-0.7766000000000001,-0.0198,-0.2566,-0.005,0.036000000000000004,-0.009000000000000001
2025-11-06 18:37:24.001,309.765,0.181,0.268,0.137,-0.385,-0.9400000000000001,0.243,4.64,-6.72,-45.22,0.5744,-0.7767000000000001,-0.02,-0.25730000000000003,-0.009000000000000001,0.035,-0.009000000000000001
2025-11-06 18:37:24.001,309.77,0.179,0.271,0.139,-0.381,-0.936,0.244,4.64,-6.72,-45.22,0.5739000000000001,-0.7768,-0.020200000000000003,-0.258,-0.014,0.031,-0.01
2025-11-06 18:37:24.001,309.775,0.179,0.265,0.139,-0.375,-0.932,0.242,4.8500000000000005,-6.72,-46.03,0.5735,-0.7769,-0.0204,-0.2587,-0.02,0.027,-0.008
2025-11-06 18:37:24.001,309.78,0.178,0.263,0.137,-0.373,-0.929,0.242,4.8500000000000005,-7.68,-46.03,0.5730000000000001,-0.777,-0.0206,-0.2594,-0.024,0.025,-0.007
2025-11-06 18:37:24.001,309.785,0.177,0.265,0.135,-0.368,-0.928,0.242,4.8500000000000005,-7.68,-46.03,0.5726,-0.7771,-0.020900000000000002,-0.2601,-0.029,0.024,-0.006
2025-11-06 18:37:24.001,309.79,0.177,0.264,0.131,-0.366,-0.923,0.23900000000000002,4.2,-6.69,-45.1,0.5721,-0.7772,-0.0211,-0.26080000000000003,-0.033,0.019,-0.003
2025-11-06 18:37:24.001,309.795,0.17400000000000002,0.264,0.128,-0.366,-0.919,0.23800000000000002,4.2,-6.69,-45.1,0.5717,-0.7773,-0.0213,-0.2615,-0.033,0.016,-0.002
2025-11-06 18:37:24.001,309.8,0.17400000000000002,0.266,0.123,-0.366,-0.911,0.233,4.2,-6.69,-45.1,0.5712,-0.7774000000000001,-0.0216,-0.2621,-0.034,0.009000000000000001,0.002
2025-11-06 18:37:24.002,309.805,0.171,0.269,0.11800000000000001,-0.369,-0.907,0.229,4.7,-8.03,-44.19,0.5708,-0.7775000000000001,-0.0218,-0.26280000000000003,-0.032,0.005,0.007
2025-11-06 18:37:24.002,309.81,0.17200000000000001,0.28,0.115,-0.374,-0.904,0.227,4.7,-8.03,-44.19,0.5703,-0.7776000000000001,-0.0221,-0.2635,-0.028,0.002,0.009000000000000001
2025-11-06 18:37:24.002,309.815,0.17400000000000002,0.289,0.114,-0.38,-0.9,0.226,4.09,-6.95,-44.54,0.5699000000000001,-0.7777000000000001,-0.0224,-0.2642,-0.023,-0.001,0.009000000000000001
2025-11-06 18:37:24.002,309.82,0.178,0.303,0.114,-0.385,-0.899,0.224,4.09,-6.95,-44.54,0.5694,-0.7777000000000001,-0.0227,-0.2649,-0.019,-0.001,0.011
2025-11-06 18:37:24.002,309.825,0.186,0.319,0.117,-0.388,-0.9,0.225,4.09,-6.95,-44.54,0.5690000000000001,-0.7778,-0.023,-0.2657,-0.017,0.0,0.011
2025-11-06 18:37:24.002,309.83,0.188,0.325,0.12,-0.395,-0.9,0.226,4.0600000000000005,-7.19,-44.81,0.5685,-0.7779,-0.0234,-0.2665,-0.01,0.0,0.01
2025-11-06 18:37:24.002,309.835,0.197,0.34700000000000003,0.126,-0.403,-0.902,0.231,4.0600000000000005,-7.19,-44.81,0.5680000000000001,-0.778,-0.023700000000000002,-0.26730000000000004,-0.004,0.002,0.006
2025-11-06 18:37:24.002,309.84,0.199,0.35100000000000003,0.132,-0.40800000000000003,-0.903,0.233,4.09,-6.890000000000001,-44.22,0.5675,-0.778,-0.0241,-0.2682,0.0,0.004,0.004
2025-11-06 18:37:24.002,309.845,0.199,0.361,0.14,-0.41300000000000003,-0.903,0.23600000000000002,4.09,-6.890000000000001,-44.22,0.5669000000000001,-0.7781,-0.0244,-0.2691,0.003,0.004,0.001
2025-11-06 18:37:24.002,309.85,0.2,0.364,0.148,-0.417,-0.903,0.23800000000000002,4.09,-6.890000000000001,-44.22,0.5664,-0.7782,-0.024800000000000003,-0.27,0.006,0.005,0.0
2025-11-06 18:37:24.002,309.855,0.196,0.369,0.156,-0.419,-0.901,0.241,4.47,-7.24,-44.22,0.5659000000000001,-0.7782,-0.0251,-0.27090000000000003,0.007,0.003,-0.003
2025-11-06 18:37:24.002,309.86,0.191,0.373,0.167,-0.421,-0.898,0.244,4.47,-7.24,-44.22,0.5653,-0.7783,-0.025400000000000002,-0.2718,0.008,0.001,-0.005
2025-11-06 18:37:24.002,309.865,0.193,0.373,0.17300000000000001,-0.419,-0.896,0.246,4.82,-7.19,-44.25,0.5648000000000001,-0.7783,-0.0257,-0.2728,0.005,0.0,-0.008
2025-11-06 18:37:24.002,309.87,0.197,0.369,0.18,-0.419,-0.897,0.246,4.82,-7.19,-44.25,0.5643,-0.7784000000000001,-0.026000000000000002,-0.2737,0.003,0.001,-0.007
2025-11-06 18:37:24.002,309.875,0.201,0.364,0.183,-0.41600000000000004,-0.896,0.247,4.82,-7.19,-44.25,0.5637,-0.7784000000000001,-0.0263,-0.2747,0.0,0.001,-0.009000000000000001
2025-11-06 18:37:24.002,309.88,0.20700000000000002,0.36,0.184,-0.41300000000000003,-0.9,0.245,4.38,-6.84,-44.34,0.5631,-0.7785000000000001,-0.026500000000000003,-0.2756,-0.004,0.005,-0.006
2025-11-06 18:37:24.002,309.885,0.212,0.355,0.189,-0.41000000000000003,-0.902,0.246,4.38,-6.84,-44.34,0.5625,-0.7786000000000001,-0.0268,-0.2766,-0.008,0.008,-0.006
2025-11-06 18:37:24.002,309.89,0.227,0.34600000000000003,0.186,-0.406,-0.906,0.241,3.71,-7.04,-44.22,0.5619000000000001,-0.7787000000000001,-0.027100000000000003,-0.2775,-0.013000000000000001,0.012,-0.001
2025-11-06 18:37:24.002,309.895,0.233,0.339,0.183,-0.406,-0.908,0.242,3.71,-7.04,-44.22,0.5613,-0.7788,-0.0273,-0.27840000000000004,-0.014,0.015,-0.002
2025-11-06 18:37:24.002,309.9,0.23800000000000002,0.336,0.178,-0.406,-0.911,0.242,3.71,-7.04,-44.22,0.5607,-0.779,-0.027600000000000003,-0.2792,-0.015,0.018000000000000002,-0.001
2025-11-06 18:37:24.002,309.905,0.23800000000000002,0.329,0.17300000000000001,-0.40700000000000003,-0.912,0.243,3.24,-7.24,-43.29,0.56,-0.7791,-0.0279,-0.2801,-0.015,0.02,-0.001
2025-11-06 18:37:24.002,309.91,0.23600000000000002,0.319,0.164,-0.40700000000000003,-0.913,0.244,3.24,-7.24,-43.29,0.5594,-0.7792,-0.028200000000000003,-0.28090000000000004,-0.016,0.022,-0.002
2025-11-06 18:37:24.002,309.915,0.227,0.313,0.159,-0.404,-0.912,0.243,3.39,-6.8100000000000005,-43.61,0.5588000000000001,-0.7793,-0.0284,-0.2817,-0.021,0.022,-0.001
2025-11-06 18:37:24.002,309.92,0.218,0.293,0.148,-0.401,-0.912,0.246,3.39,-6.8100000000000005,-43.61,0.5583,-0.7795000000000001,-0.0287,-0.28250000000000003,-0.025,0.023,-0.003
2025-11-06 18:37:24.002,309.925,0.212,0.291,0.14200000000000002,-0.401,-0.913,0.247,3.39,-6.8100000000000005,-43.61,0.5577,-0.7796000000000001,-0.029,-0.2832,-0.025,0.023,-0.003
2025-11-06 18:37:24.002,309.93,0.21,0.281,0.139,-0.401,-0.908,0.247,4.18,-7.390000000000001,-43.9,0.5572,-0.7797000000000001,-0.0292,-0.28390000000000004,-0.027,0.02,-0.003
2025-11-06 18:37:24.002,309.935,0.20800000000000002,0.28500000000000003,0.134,-0.402,-0.904,0.249,4.18,-7.390000000000001,-43.9,0.5566,-0.7798,-0.029500000000000002,-0.2846,-0.026000000000000002,0.016,-0.005
2025-11-06 18:37:24.002,309.94,0.209,0.28700000000000003,0.132,-0.402,-0.902,0.249,3.18,-8.53,-43.52,0.5561,-0.7799,-0.0298,-0.2853,-0.027,0.014,-0.005
2025-11-06 18:37:24.002,309.945,0.202,0.28,0.128,-0.401,-0.899,0.249,3.18,-8.53,-43.52,0.5556,-0.78,-0.030000000000000002,-0.28600000000000003,-0.029,0.012,-0.005
2025-11-06 18:37:24.002,309.95,0.193,0.266,0.126,-0.401,-0.896,0.248,3.18,-8.53,-43.52,0.5551,-0.7801,-0.0303,-0.2867,-0.03,0.009000000000000001,-0.004
2025-11-06 18:37:24.002,309.955,0.189,0.264,0.125,-0.403,-0.893,0.248,3.15,-7.390000000000001,-42.64,0.5546,-0.7802,-0.030500000000000003,-0.2874,-0.03,0.007,-0.002
2025-11-06 18:37:24.002,309.96,0.191,0.259,0.124,-0.404,-0.889,0.248,3.15,-7.390000000000001,-42.64,0.5541,-0.7804,-0.0308,-0.28800000000000003,-0.029,0.003,-0.003
2025-11-06 18:37:24.002,309.965,0.192,0.262,0.126,-0.41000000000000003,-0.886,0.25,2.48,-8.65,-43.550000000000004,0.5536,-0.7805000000000001,-0.031,-0.2887,-0.024,0.001,-0.004
2025-11-06 18:37:24.002,309.97,0.194,0.259,0.132,-0.41400000000000003,-0.883,0.252,2.48,-8.65,-43.550000000000004,0.5531,-0.7806000000000001,-0.0313,-0.2893,-0.02,-0.001,-0.006
2025-11-06 18:37:24.002,309.975,0.194,0.256,0.137,-0.422,-0.882,0.256,2.48,-8.65,-43.550000000000004,0.5525,-0.7807000000000001,-0.0315,-0.29000000000000004,-0.014,-0.001,-0.01
2025-11-06 18:37:24.002,309.98,0.2,0.253,0.14400000000000002,-0.428,-0.881,0.259,2.63,-7.45,-43.43,0.552,-0.7808,-0.0317,-0.2907,-0.008,-0.002,-0.012
2025-11-06 18:37:24.002,309.985,0.21,0.245,0.154,-0.436,-0.88,0.264,2.63,-7.45,-43.43,0.5514,-0.7809,-0.0318,-0.2913,-0.001,-0.002,-0.017
2025-11-06 18:37:24.002,309.99,0.213,0.24,0.164,-0.442,-0.882,0.264,2.5100000000000002,-8.18,-42.85,0.5509000000000001,-0.7811,-0.032,-0.29200000000000004,0.002,0.0,-0.017
2025-11-06 18:37:24.002,309.995,0.218,0.23500000000000001,0.17500000000000002,-0.446,-0.881,0.265,2.5100000000000002,-8.18,-42.85,0.5503,-0.7813,-0.032100000000000004,-0.2927,0.005,0.0,-0.018000000000000002
2025-11-06 18:37:24.002,310.0,0.219,0.23800000000000002,0.183,-0.447,-0.88,0.265,2.5100000000000002,-8.18,-42.85,0.5497000000000001,-0.7814,-0.0322,-0.2934,0.005,0.0,-0.017
2025-11-06 18:37:24.002,310.005,0.223,0.23700000000000002,0.195,-0.45,-0.879,0.267,2.57,-7.57,-42.96,0.549,-0.7816000000000001,-0.0323,-0.29410000000000003,0.007,-0.001,-0.018000000000000002
2025-11-06 18:37:24.002,310.01,0.225,0.233,0.20500000000000002,-0.451,-0.879,0.269,2.57,-7.57,-42.96,0.5484,-0.7818,-0.0324,-0.2948,0.006,0.0,-0.02
2025-11-06 18:37:24.002,310.015,0.225,0.221,0.209,-0.45,-0.878,0.268,4.15,-6.8100000000000005,-43.14,0.5478000000000001,-0.7819,-0.0324,-0.29550000000000004,0.005,0.0,-0.018000000000000002
2025-11-06 18:37:24.002,310.02,0.226,0.22,0.213,-0.449,-0.877,0.269,4.15,-6.8100000000000005,-43.14,0.5471,-0.7821,-0.0325,-0.2962,0.003,0.0,-0.019
2025-11-06 18:37:24.002,310.025,0.223,0.211,0.214,-0.449,-0.879,0.268,4.15,-6.8100000000000005,-43.14,0.5465,-0.7823,-0.0325,-0.2968,0.001,0.002,-0.017
2025-11-06 18:37:24.002,310.03,0.218,0.202,0.212,-0.446,-0.88,0.267,2.6,-7.07,-42.32,0.5459,-0.7825000000000001,-0.0325,-0.2975,-0.002,0.003,-0.015
2025-11-06 18:37:24.002,310.035,0.214,0.201,0.20600000000000002,-0.445,-0.882,0.267,2.6,-7.07,-42.32,0.5453,-0.7827000000000001,-0.0325,-0.29810000000000003,-0.004,0.006,-0.014
2025-11-06 18:37:24.002,310.04,0.213,0.202,0.198,-0.444,-0.886,0.264,2.95,-7.07,-42.15,0.5447000000000001,-0.7829,-0.032600000000000004,-0.2988,-0.006,0.01,-0.011
2025-11-06 18:37:24.003,310.045,0.211,0.20500000000000002,0.193,-0.445,-0.89,0.261,2.95,-7.19,-42.15,0.5441,-0.783,-0.032600000000000004,-0.2994,-0.006,0.016,-0.007
2025-11-06 18:37:24.003,310.05,0.20800000000000002,0.209,0.185,-0.449,-0.894,0.258,2.95,-7.19,-42.15,0.5435,-0.7832,-0.0327,-0.3,-0.003,0.019,-0.003
2025-11-06 18:37:24.003,310.055,0.20800000000000002,0.21,0.181,-0.452,-0.896,0.254,2.89,-7.33,-42.03,0.5429,-0.7833,-0.0328,-0.3007,-0.001,0.022,0.0
2025-11-06 18:37:24.003,310.06,0.209,0.216,0.17400000000000002,-0.46,-0.897,0.251,2.89,-7.33,-42.03,0.5423,-0.7835000000000001,-0.0329,-0.3013,0.005,0.024,0.004
2025-11-06 18:37:24.003,310.065,0.203,0.225,0.17,-0.463,-0.9,0.251,2.89,-7.33,-42.03,0.5418000000000001,-0.7836000000000001,-0.033,-0.302,0.007,0.027,0.004
2025-11-06 18:37:24.003,310.07,0.199,0.23,0.164,-0.46900000000000003,-0.898,0.254,2.13,-7.04,-41.910000000000004,0.5412,-0.7837000000000001,-0.033100000000000004,-0.30260000000000004,0.011,0.026000000000000002,0.001
2025-11-06 18:37:24.003,310.075,0.202,0.23700000000000002,0.165,-0.47500000000000003,-0.897,0.255,2.13,-7.04,-41.910000000000004,0.5407000000000001,-0.7839,-0.0332,-0.3033,0.017,0.026000000000000002,0.001
2025-11-06 18:37:24.003,310.08,0.20600000000000002,0.247,0.168,-0.482,-0.896,0.256,1.87,-7.19,-41.97,0.5401,-0.784,-0.0334,-0.304,0.022,0.025,0.0
2025-11-06 18:37:24.003,310.085,0.21,0.258,0.17300000000000001,-0.491,-0.892,0.257,1.87,-7.19,-41.97,0.5395,-0.7841,-0.0335,-0.3047,0.031,0.022,0.0
2025-11-06 18:37:24.003,310.09,0.214,0.271,0.181,-0.496,-0.887,0.258,1.87,-7.19,-41.97,0.5389,-0.7842,-0.0337,-0.3054,0.035,0.017,0.0
2025-11-06 18:37:24.003,310.095,0.213,0.28400000000000003,0.191,-0.504,-0.877,0.258,2.16,-7.3,-41.39,0.5383,-0.7843,-0.033800000000000004,-0.3062,0.041,0.008,0.0
2025-11-06 18:37:24.003,310.1,0.212,0.294,0.20400000000000001,-0.505,-0.87,0.259,2.16,-7.3,-41.39,0.5377000000000001,-0.7844,-0.034,-0.307,0.041,0.002,-0.001
2025-11-06 18:37:24.003,310.105,0.211,0.303,0.214,-0.508,-0.864,0.259,2.0100000000000002,-6.46,-41.36,0.537,-0.7845000000000001,-0.0341,-0.3079,0.042,-0.002,-0.001
2025-11-06 18:37:24.003,310.11,0.211,0.298,0.225,-0.509,-0.857,0.259,2.0100000000000002,-6.46,-41.36,0.5364,-0.7846000000000001,-0.0342,-0.3088,0.042,-0.009000000000000001,-0.001
2025-11-06 18:37:24.003,310.115,0.21,0.298,0.23800000000000002,-0.51,-0.852,0.26,2.0100000000000002,-6.46,-41.36,0.5358,-0.7847000000000001,-0.034300000000000004,-0.30970000000000003,0.041,-0.013000000000000001,-0.002
2025-11-06 18:37:24.003,310.12,0.214,0.302,0.25,-0.509,-0.853,0.263,1.87,-6.92,-41.12,0.5351,-0.7848,-0.034300000000000004,-0.3106,0.04,-0.011,-0.004
2025-11-06 18:37:24.003,310.125,0.22,0.306,0.263,-0.507,-0.853,0.265,1.87,-6.92,-41.12,0.5344,-0.7849,-0.0344,-0.3115,0.036000000000000004,-0.01,-0.006
2025-11-06 18:37:24.003,310.13,0.232,0.317,0.279,-0.509,-0.854,0.266,1.57,-7.01,-40.63,0.5337000000000001,-0.785,-0.0344,-0.3125,0.036000000000000004,-0.008,-0.007
2025-11-06 18:37:24.003,310.135,0.23800000000000002,0.308,0.28600000000000003,-0.512,-0.855,0.266,1.57,-7.01,-40.63,0.5329,-0.7851,-0.0344,-0.3134,0.037,-0.006,-0.007
2025-11-06 18:37:24.003,310.14,0.23900000000000002,0.294,0.29,-0.519,-0.858,0.265,1.57,-7.01,-40.63,0.5322,-0.7852,-0.0344,-0.3144,0.043000000000000003,-0.002,-0.005
2025-11-06 18:37:24.003,310.145,0.23600000000000002,0.272,0.293,-0.523,-0.863,0.263,1.43,-6.86,-40.160000000000004,0.5314,-0.7854,-0.0344,-0.31520000000000004,0.045,0.003,-0.002
2025-11-06 18:37:24.003,310.15,0.23,0.253,0.292,-0.525,-0.871,0.262,1.43,-6.86,-40.160000000000004,0.5307000000000001,-0.7855000000000001,-0.034300000000000004,-0.3161,0.046,0.011,-0.001
2025-11-06 18:37:24.003,310.155,0.216,0.216,0.28600000000000003,-0.524,-0.882,0.263,1.69,-6.8100000000000005,-40.300000000000004,0.53,-0.7857000000000001,-0.0342,-0.3169,0.043000000000000003,0.024,-0.001
2025-11-06 18:37:24.003,310.16,0.20500000000000002,0.192,0.28200000000000003,-0.52,-0.89,0.264,1.69,-6.8100000000000005,-40.300000000000004,0.5294,-0.7859,-0.034,-0.3176,0.038,0.033,-0.002
2025-11-06 18:37:24.003,310.165,0.189,0.17,0.276,-0.515,-0.898,0.267,1.69,-6.8100000000000005,-40.300000000000004,0.5287000000000001,-0.786,-0.033800000000000004,-0.3183,0.032,0.041,-0.004
2025-11-06 18:37:24.003,310.17,0.171,0.158,0.269,-0.507,-0.904,0.27,1.43,-7.24,-40.13,0.5282,-0.7862,-0.033600000000000005,-0.3189,0.022,0.049,-0.006
2025-11-06 18:37:24.004,310.175,0.155,0.152,0.259,-0.5,-0.909,0.269,1.43,-7.24,-40.13,0.5276000000000001,-0.7863,-0.0334,-0.3195,0.014,0.054,-0.004
2025-11-06 18:37:24.004,310.18,0.14400000000000002,0.155,0.253,-0.495,-0.907,0.266,0.9,-7.65,-39.980000000000004,0.5271,-0.7864,-0.0332,-0.3201,0.008,0.053,-0.002
2025-11-06 18:37:24.004,310.185,0.126,0.165,0.23600000000000002,-0.485,-0.9,0.261,0.9,-7.65,-39.980000000000004,0.5266000000000001,-0.7864,-0.033100000000000004,-0.32080000000000003,-0.003,0.047,0.002
2025-11-06 18:37:24.004,310.19,0.114,0.17200000000000001,0.226,-0.47900000000000004,-0.892,0.256,0.9,-7.65,-39.980000000000004,0.5262,-0.7865000000000001,-0.0329,-0.3214,-0.01,0.039,0.008
2025-11-06 18:37:24.004,310.195,0.10300000000000001,0.176,0.215,-0.47300000000000003,-0.88,0.252,0.99,-7.22,-40.22,0.5258,-0.7865000000000001,-0.0328,-0.322,-0.017,0.029,0.011
2025-11-06 18:37:24.004,310.2,0.093,0.19,0.203,-0.47200000000000003,-0.87,0.245,0.99,-7.22,-40.22,0.5255000000000001,-0.7865000000000001,-0.0327,-0.3226,-0.019,0.019,0.018000000000000002
2025-11-06 18:37:24.004,310.205,0.084,0.20800000000000002,0.195,-0.47000000000000003,-0.86,0.242,0.46,-7.33,-40.07,0.5251,-0.7865000000000001,-0.0327,-0.32320000000000004,-0.022,0.009000000000000001,0.021
2025-11-06 18:37:24.004,310.21,0.078,0.227,0.184,-0.47000000000000003,-0.847,0.23700000000000002,0.46,-7.33,-40.07,0.5248,-0.7864,-0.0327,-0.3239,-0.023,-0.003,0.025
2025-11-06 18:37:24.004,310.215,0.081,0.256,0.17200000000000001,-0.47400000000000003,-0.8290000000000001,0.229,0.46,-7.33,-40.07,0.5245000000000001,-0.7863,-0.0327,-0.3246,-0.021,-0.02,0.032
2025-11-06 18:37:24.004,310.22,0.089,0.275,0.164,-0.47900000000000004,-0.8190000000000001,0.224,-0.23,-6.75,-40.6,0.5241,-0.7863,-0.0328,-0.3254,-0.017,-0.03,0.037
2025-11-06 18:37:24.004,310.225,0.1,0.28300000000000003,0.157,-0.487,-0.808,0.219,-0.23,-6.75,-40.6,0.5237,-0.7862,-0.0329,-0.3261,-0.01,-0.04,0.042
2025-11-06 18:37:24.004,310.23,0.111,0.293,0.149,-0.497,-0.798,0.215,0.38,-6.92,-39.84,0.5234,-0.7861,-0.033100000000000004,-0.3269,0.0,-0.05,0.045
2025-11-06 18:37:24.004,310.235,0.121,0.298,0.145,-0.506,-0.788,0.213,0.38,-6.92,-39.84,0.523,-0.786,-0.0333,-0.3277,0.006,-0.06,0.047
2025-11-06 18:37:24.004,310.24,0.126,0.294,0.138,-0.52,-0.779,0.21,0.38,-6.92,-39.84,0.5226000000000001,-0.786,-0.0335,-0.3284,0.019,-0.068,0.05
2025-11-06 18:37:24.004,310.245,0.131,0.296,0.127,-0.534,-0.773,0.21,1.11,-6.84,-39.72,0.5222,-0.7859,-0.0337,-0.3291,0.032,-0.074,0.05
2025-11-06 18:37:24.004,310.25,0.136,0.298,0.12,-0.544,-0.769,0.212,1.11,-6.84,-39.72,0.5218,-0.7859,-0.034,-0.3299,0.041,-0.078,0.047
2025-11-06 18:37:24.004,310.255,0.14200000000000002,0.299,0.115,-0.557,-0.767,0.219,0.7000000000000001,-8.24,-40.19,0.5213,-0.7859,-0.0342,-0.3306,0.053,-0.079,0.039
2025-11-06 18:37:24.005,310.26,0.154,0.3,0.112,-0.5680000000000001,-0.768,0.226,0.7000000000000001,-8.24,-40.19,0.5209,-0.7858,-0.0345,-0.33130000000000004,0.064,-0.078,0.032
2025-11-06 18:37:24.005,310.265,0.164,0.303,0.108,-0.58,-0.771,0.23500000000000001,0.7000000000000001,-8.24,-40.19,0.5204,-0.7858,-0.034800000000000005,-0.332,0.074,-0.074,0.024
2025-11-06 18:37:24.005,310.27,0.169,0.308,0.10400000000000001,-0.593,-0.778,0.247,0.4,-7.01,-40.51,0.52,-0.7858,-0.0351,-0.33280000000000004,0.08600000000000001,-0.066,0.012
2025-11-06 18:37:24.005,310.275,0.169,0.299,0.10200000000000001,-0.601,-0.787,0.255,0.4,-7.01,-40.51,0.5195000000000001,-0.7858,-0.0354,-0.3335,0.094,-0.057,0.004
2025-11-06 18:37:24.005,310.28,0.165,0.292,0.099,-0.607,-0.798,0.265,0.26,-6.75,-39.81,0.519,-0.7858,-0.0357,-0.3342,0.099,-0.045,-0.005
2025-11-06 18:37:24.005,310.285,0.167,0.281,0.1,-0.602,-0.81,0.271,0.26,-6.75,-39.81,0.5186000000000001,-0.7858,-0.036000000000000004,-0.33490000000000003,0.094,-0.032,-0.01
2025-11-06 18:37:24.005,310.29,0.17,0.268,0.1,-0.595,-0.8250000000000001,0.277,0.26,-6.75,-39.81,0.5181,-0.7858,-0.0363,-0.3355,0.08600000000000001,-0.017,-0.016
2025-11-06 18:37:24.005,310.295,0.17500000000000002,0.252,0.101,-0.588,-0.837,0.281,0.49,-6.72,-39.81,0.5176000000000001,-0.7859,-0.0366,-0.3361,0.078,-0.004,-0.02
2025-11-06 18:37:24.005,310.3,0.18,0.23500000000000001,0.106,-0.5740000000000001,-0.855,0.28700000000000003,0.49,-6.72,-39.81,0.5171,-0.7859,-0.0368,-0.3367,0.063,0.014,-0.024
2025-11-06 18:37:24.005,310.305,0.177,0.2,0.108,-0.56,-0.873,0.292,-0.17,-6.43,-40.1,0.5167,-0.786,-0.037000000000000005,-0.3372,0.048,0.032,-0.029
2025-11-06 18:37:24.005,310.31,0.178,0.176,0.11,-0.546,-0.885,0.294,-0.17,-6.43,-40.1,0.5162,-0.7861,-0.0371,-0.3377,0.035,0.045,-0.031
2025-11-06 18:37:24.005,310.315,0.177,0.156,0.114,-0.532,-0.893,0.295,-0.17,-6.43,-40.1,0.5157,-0.7862,-0.037200000000000004,-0.3381,0.02,0.054,-0.03
2025-11-06 18:37:24.005,310.32,0.171,0.138,0.115,-0.52,-0.9,0.295,0.11,-7.36,-39.28,0.5153,-0.7864,-0.0373,-0.3385,0.007,0.062,-0.03
2025-11-06 18:37:24.005,310.325,0.167,0.121,0.115,-0.507,-0.902,0.293,0.11,-7.36,-39.28,0.5148,-0.7865000000000001,-0.0374,-0.33890000000000003,-0.006,0.064,-0.027
2025-11-06 18:37:24.005,310.33,0.166,0.112,0.11800000000000001,-0.49,-0.901,0.289,0.11,-7.36,-39.28,0.5144000000000001,-0.7866000000000001,-0.0374,-0.3392,-0.023,0.064,-0.023
2025-11-06 18:37:24.005,310.335,0.163,0.108,0.12,-0.47500000000000003,-0.897,0.28700000000000003,0.2,-6.72,-39.160000000000004,0.5139,-0.7868,-0.0375,-0.3396,-0.038,0.06,-0.021
2025-11-06 18:37:24.005,310.34,0.164,0.10400000000000001,0.122,-0.466,-0.888,0.28600000000000003,0.2,-6.72,-39.160000000000004,0.5135000000000001,-0.7869,-0.0375,-0.33990000000000004,-0.048,0.052000000000000005,-0.02
2025-11-06 18:37:24.005,310.345,0.163,0.10300000000000001,0.125,-0.462,-0.877,0.28700000000000003,0.38,-6.6000000000000005,-39.81,0.513,-0.7871,-0.0375,-0.3402,-0.053,0.042,-0.02
2025-11-06 18:37:24.005,310.35,0.159,0.108,0.125,-0.459,-0.864,0.28200000000000003,0.38,-6.6000000000000005,-39.81,0.5126000000000001,-0.7872,-0.0376,-0.3406,-0.056,0.028,-0.015
2025-11-06 18:37:24.006,310.355,0.155,0.11800000000000001,0.122,-0.46,-0.85,0.281,0.38,-6.6000000000000005,-39.81,0.5122,-0.7873,-0.0376,-0.34090000000000004,-0.057,0.015,-0.014
2025-11-06 18:37:24.006,310.36,0.152,0.133,0.115,-0.464,-0.8290000000000001,0.278,-0.2,-6.54,-39.28,0.5117,-0.7874,-0.037700000000000004,-0.3413,-0.054,-0.005,-0.011
2025-11-06 18:37:24.006,310.365,0.151,0.147,0.109,-0.47000000000000003,-0.808,0.277,-0.2,-6.54,-39.28,0.5113,-0.7875000000000001,-0.0378,-0.3417,-0.048,-0.026000000000000002,-0.011
2025-11-06 18:37:24.006,310.37,0.15,0.153,0.10300000000000001,-0.48,-0.795,0.278,-0.05,-8.18,-39.050000000000004,0.5109,-0.7876000000000001,-0.0379,-0.3421,-0.039,-0.038,-0.011
2025-11-06 18:37:24.006,310.375,0.153,0.15,0.095,-0.492,-0.777,0.277,-0.05,-8.18,-39.050000000000004,0.5105000000000001,-0.7877000000000001,-0.038,-0.3425,-0.027,-0.056,-0.01
2025-11-06 18:37:24.006,310.38,0.156,0.138,0.088,-0.505,-0.764,0.277,-0.05,-8.18,-39.050000000000004,0.5101,-0.7878000000000001,-0.038200000000000005,-0.34290000000000004,-0.015,-0.068,-0.011
2025-11-06 18:37:24.006,310.385,0.163,0.123,0.082,-0.515,-0.751,0.278,-0.35000000000000003,-6.48,-38.78,0.5097,-0.7879,-0.0383,-0.3432,-0.006,-0.081,-0.011
2025-11-06 18:37:24.006,310.39,0.171,0.097,0.073,-0.53,-0.734,0.28,-0.35000000000000003,-6.48,-38.78,0.5092,-0.7881,-0.038400000000000004,-0.3435,0.008,-0.097,-0.013000000000000001
2025-11-06 18:37:24.006,310.395,0.184,0.074,0.067,-0.536,-0.728,0.28200000000000003,0.32,-6.86,-39.19,0.5088,-0.7883,-0.0385,-0.3437,0.013000000000000001,-0.10300000000000001,-0.015
2025-11-06 18:37:24.006,310.4,0.193,0.054,0.063,-0.54,-0.724,0.28400000000000003,0.32,-6.86,-39.19,0.5083,-0.7885000000000001,-0.0386,-0.3438,0.016,-0.107,-0.016
2025-11-06 18:37:24.006,310.405,0.20500000000000002,0.028,0.06,-0.542,-0.724,0.28300000000000003,0.32,-6.86,-39.19,0.5079,-0.7887000000000001,-0.038700000000000005,-0.34390000000000004,0.018000000000000002,-0.106,-0.014
2025-11-06 18:37:24.006,310.41,0.21,0.001,0.057,-0.543,-0.723,0.28700000000000003,-0.87,-8.21,-38.84,0.5074000000000001,-0.789,-0.0388,-0.34400000000000003,0.019,-0.107,-0.017
2025-11-06 18:37:24.006,310.415,0.216,-0.021,0.055,-0.538,-0.726,0.29,-0.87,-8.21,-38.84,0.5069,-0.7893,-0.0388,-0.34400000000000003,0.014,-0.10300000000000001,-0.019
2025-11-06 18:37:24.006,310.42,0.219,-0.04,0.055,-0.534,-0.732,0.292,-0.35000000000000003,-6.51,-38.29,0.5064000000000001,-0.7896000000000001,-0.038900000000000004,-0.34400000000000003,0.009000000000000001,-0.097,-0.02
2025-11-06 18:37:24.006,310.425,0.231,-0.068,0.052000000000000005,-0.526,-0.744,0.294,-0.35000000000000003,-6.51,-38.29,0.5059,-0.79,-0.038900000000000004,-0.34390000000000004,0.002,-0.084,-0.021
2025-11-06 18:37:24.006,310.43,0.241,-0.079,0.051000000000000004,-0.522,-0.753,0.298,-0.35000000000000003,-6.51,-38.29,0.5054000000000001,-0.7904,-0.038900000000000004,-0.3437,-0.002,-0.075,-0.024
2025-11-06 18:37:24.006,310.435,0.245,-0.082,0.052000000000000005,-0.521,-0.763,0.304,-0.9,-6.63,-38.32,0.5049,-0.7908000000000001,-0.038900000000000004,-0.3436,-0.002,-0.064,-0.028
2025-11-06 18:37:24.006,310.44,0.247,-0.089,0.049,-0.522,-0.772,0.306,-0.9,-6.63,-38.32,0.5043,-0.7912,-0.038900000000000004,-0.3435,-0.002,-0.055,-0.029
2025-11-06 18:37:24.006,310.445,0.246,-0.096,0.048,-0.524,-0.782,0.309,0.46,-6.6000000000000005,-38.78,0.5038,-0.7916000000000001,-0.038900000000000004,-0.3433,0.0,-0.044,-0.03
2025-11-06 18:37:24.006,310.45,0.244,-0.09,0.043000000000000003,-0.528,-0.797,0.315,0.46,-6.6000000000000005,-38.78,0.5032,-0.792,-0.038900000000000004,-0.3432,0.004,-0.029,-0.035
2025-11-06 18:37:24.006,310.455,0.244,-0.081,0.044,-0.532,-0.804,0.318,0.46,-6.6000000000000005,-38.78,0.5027,-0.7924,-0.039,-0.343,0.008,-0.021,-0.036000000000000004
2025-11-06 18:37:24.006,310.46,0.247,-0.058,0.046,-0.537,-0.812,0.318,-0.4,-7.54,-37.85,0.5022,-0.7928000000000001,-0.039,-0.34290000000000004,0.013000000000000001,-0.013000000000000001,-0.034
2025-11-06 18:37:24.006,310.465,0.247,-0.033,0.045,-0.542,-0.8140000000000001,0.318,-0.4,-7.54,-37.85,0.5016,-0.7932,-0.0391,-0.34290000000000004,0.017,-0.01,-0.034
2025-11-06 18:37:24.006,310.47,0.241,0.0,0.047,-0.546,-0.8140000000000001,0.317,-0.7000000000000001,-6.43,-38.32,0.5011,-0.7935,-0.0392,-0.34290000000000004,0.021,-0.01,-0.032
2025-11-06 18:37:24.006,310.475,0.23900000000000002,0.033,0.049,-0.552,-0.807,0.315,-0.7000000000000001,-6.43,-38.32,0.5005000000000001,-0.7938000000000001,-0.0393,-0.343,0.026000000000000002,-0.016,-0.029
2025-11-06 18:37:24.006,310.48,0.229,0.083,0.046,-0.559,-0.794,0.313,-0.7000000000000001,-6.43,-38.32,0.5,-0.794,-0.0395,-0.3432,0.033,-0.029,-0.026000000000000002
2025-11-06 18:37:24.006,310.485,0.224,0.11,0.046,-0.562,-0.782,0.31,-1.11,-7.45,-38.08,0.4994,-0.7943,-0.0397,-0.3435,0.036000000000000004,-0.041,-0.023
2025-11-06 18:37:24.006,310.49,0.223,0.132,0.048,-0.5670000000000001,-0.771,0.307,-1.11,-7.45,-38.08,0.4989,-0.7944,-0.04,-0.3438,0.041,-0.051000000000000004,-0.02
2025-11-06 18:37:24.006,310.495,0.229,0.151,0.052000000000000005,-0.5720000000000001,-0.757,0.304,-0.26,-6.75,-38.050000000000004,0.4984,-0.7946000000000001,-0.0403,-0.3441,0.045,-0.065,-0.016
2025-11-06 18:37:24.006,310.5,0.23600000000000002,0.162,0.057,-0.5720000000000001,-0.747,0.304,-0.26,-6.75,-38.050000000000004,0.4978,-0.7948000000000001,-0.040600000000000004,-0.34450000000000003,0.044,-0.074,-0.015
2025-11-06 18:37:24.006,310.505,0.248,0.169,0.059000000000000004,-0.577,-0.738,0.304,-0.26,-6.75,-38.050000000000004,0.49720000000000003,-0.795,-0.0409,-0.34490000000000004,0.049,-0.084,-0.015
2025-11-06 18:37:24.006,310.51,0.271,0.176,0.061,-0.584,-0.728,0.306,1.49,-7.390000000000001,-37.85,0.49660000000000004,-0.7952,-0.0412,-0.3453,0.055,-0.093,-0.017
2025-11-06 18:37:24.006,310.515,0.28600000000000003,0.17200000000000001,0.061,-0.592,-0.729,0.313,1.49,-7.390000000000001,-37.85,0.4959,-0.7954,-0.0415,-0.3457,0.062,-0.091,-0.023
2025-11-06 18:37:24.006,310.52,0.299,0.156,0.055,-0.597,-0.731,0.319,-0.11,-6.25,-38.11,0.49520000000000003,-0.7957000000000001,-0.041800000000000004,-0.34600000000000003,0.067,-0.089,-0.028
2025-11-06 18:37:24.006,310.525,0.307,0.14,0.048,-0.604,-0.737,0.322,-0.11,-6.25,-38.11,0.49450000000000005,-0.796,-0.0422,-0.3463,0.074,-0.082,-0.03
2025-11-06 18:37:24.006,310.53,0.313,0.12,0.037,-0.606,-0.749,0.32,-0.11,-6.25,-38.11,0.4938,-0.7963,-0.0425,-0.3466,0.076,-0.069,-0.027
2025-11-06 18:37:24.006,310.535,0.315,0.091,0.027,-0.609,-0.763,0.321,-0.32,-6.34,-38.32,0.49310000000000004,-0.7966000000000001,-0.042800000000000005,-0.3468,0.078,-0.054,-0.026000000000000002
2025-11-06 18:37:24.007,310.54,0.313,0.055,0.005,-0.604,-0.781,0.321,-0.32,-6.34,-38.32,0.4924,-0.797,-0.0431,-0.34690000000000004,0.074,-0.036000000000000004,-0.024
2025-11-06 18:37:24.007,310.545,0.31,0.03,-0.007,-0.596,-0.795,0.321,-0.35000000000000003,-6.98,-37.730000000000004,0.4918,-0.7973,-0.043500000000000004,-0.34690000000000004,0.065,-0.021,-0.023
2025-11-06 18:37:24.007,310.55,0.309,0.01,-0.026000000000000002,-0.59,-0.807,0.321,-0.35000000000000003,-6.98,-37.730000000000004,0.4912,-0.7977000000000001,-0.0438,-0.34690000000000004,0.06,-0.009000000000000001,-0.021
2025-11-06 18:37:24.007,310.555,0.303,-0.007,-0.044,-0.582,-0.8190000000000001,0.32,-0.35000000000000003,-6.98,-37.730000000000004,0.49060000000000004,-0.7981,-0.0441,-0.3468,0.052000000000000005,0.002,-0.019
2025-11-06 18:37:24.007,310.56,0.293,-0.025,-0.056,-0.5730000000000001,-0.8290000000000001,0.32,-0.73,-5.8100000000000005,-37.24,0.49000000000000005,-0.7985,-0.044500000000000005,-0.3466,0.043000000000000003,0.013000000000000001,-0.018000000000000002
2025-11-06 18:37:24.007,310.565,0.28300000000000003,-0.042,-0.067,-0.5630000000000001,-0.841,0.318,-0.73,-5.8100000000000005,-37.24,0.48950000000000005,-0.7989,-0.0448,-0.34640000000000004,0.034,0.025,-0.014
2025-11-06 18:37:24.007,310.57,0.272,-0.05,-0.07100000000000001,-0.557,-0.847,0.32,-0.49,-6.4,-37.44,0.48900000000000005,-0.7992,-0.0451,-0.3462,0.028,0.031,-0.014
2025-11-06 18:37:24.007,310.575,0.253,-0.052000000000000005,-0.07200000000000001,-0.551,-0.854,0.327,-0.49,-6.4,-37.44,0.48860000000000003,-0.7996000000000001,-0.0455,-0.34600000000000003,0.022,0.039,-0.021
2025-11-06 18:37:24.007,310.58,0.24,-0.046,-0.066,-0.551,-0.857,0.331,-0.49,-6.4,-37.44,0.48810000000000003,-0.7999,-0.045700000000000005,-0.3458,0.022,0.042,-0.023
2025-11-06 18:37:24.007,310.585,0.225,-0.034,-0.058,-0.551,-0.861,0.333,-0.61,-6.3100000000000005,-37.47,0.4877,-0.8002,-0.046,-0.3456,0.023,0.046,-0.024
2025-11-06 18:37:24.007,310.59,0.218,-0.032,-0.049,-0.55,-0.86,0.336,-0.61,-6.3100000000000005,-37.47,0.4873,-0.8005,-0.0463,-0.34550000000000003,0.023,0.045,-0.026000000000000002
2025-11-06 18:37:24.008,310.595,0.215,-0.029,-0.034,-0.55,-0.857,0.339,-0.61,-6.3100000000000005,-37.47,0.4869,-0.8008000000000001,-0.0465,-0.3453,0.022,0.042,-0.028
2025-11-06 18:37:24.008,310.6,0.214,-0.028,-0.023,-0.548,-0.852,0.34400000000000003,-0.49,-7.01,-36.59,0.48650000000000004,-0.8011,-0.046700000000000005,-0.3452,0.021,0.038,-0.032
2025-11-06 18:37:24.008,310.605,0.213,-0.024,-0.017,-0.551,-0.846,0.34600000000000003,-0.49,-7.01,-36.59,0.48610000000000003,-0.8014,-0.046900000000000004,-0.3451,0.024,0.033,-0.034
2025-11-06 18:37:24.008,310.61,0.20700000000000002,-0.028,-0.013000000000000001,-0.549,-0.843,0.34800000000000003,-0.81,-6.05,-36.74,0.4857,-0.8017000000000001,-0.0471,-0.34500000000000003,0.021,0.03,-0.034
2025-11-06 18:37:24.008,310.615,0.196,-0.041,-0.014,-0.548,-0.837,0.34900000000000003,-0.81,-6.05,-36.74,0.4853,-0.802,-0.0472,-0.34490000000000004,0.021,0.023,-0.035
2025-11-06 18:37:24.008,310.62,0.183,-0.055,-0.017,-0.546,-0.8320000000000001,0.35100000000000003,-0.81,-6.05,-36.74,0.4849,-0.8022,-0.047400000000000005,-0.3447,0.019,0.019,-0.036000000000000004
2025-11-06 18:37:24.008,310.625,0.167,-0.077,-0.021,-0.545,-0.8250000000000001,0.353,-0.52,-6.3100000000000005,-37.03,0.48460000000000003,-0.8025,-0.0475,-0.34450000000000003,0.018000000000000002,0.013000000000000001,-0.037
2025-11-06 18:37:24.008,310.63,0.156,-0.101,-0.031,-0.538,-0.8230000000000001,0.352,-0.52,-6.3100000000000005,-37.03,0.4843,-0.8028000000000001,-0.0475,-0.3443,0.011,0.011,-0.035
2025-11-06 18:37:24.008,310.635,0.147,-0.123,-0.04,-0.53,-0.8250000000000001,0.35100000000000003,0.67,-6.13,-36.65,0.48410000000000003,-0.8031,-0.0476,-0.34390000000000004,0.003,0.013000000000000001,-0.033
2025-11-06 18:37:24.008,310.64,0.131,-0.145,-0.053,-0.52,-0.8290000000000001,0.352,0.67,-6.13,-36.65,0.4839,-0.8034,-0.0477,-0.3436,-0.005,0.017,-0.033
2025-11-06 18:37:24.008,310.645,0.111,-0.171,-0.062,-0.507,-0.8320000000000001,0.35000000000000003,0.67,-6.13,-36.65,0.4837,-0.8036000000000001,-0.0477,-0.3431,-0.017,0.02,-0.03
2025-11-06 18:37:24.008,310.65,0.08600000000000001,-0.196,-0.075,-0.499,-0.838,0.34600000000000003,-0.49,-6.08,-36.45,0.48360000000000003,-0.8039000000000001,-0.0477,-0.3426,-0.024,0.026000000000000002,-0.025
2025-11-06 18:37:24.008,310.655,0.065,-0.212,-0.095,-0.491,-0.844,0.334,-0.49,-6.08,-36.45,0.48360000000000003,-0.8041,-0.0477,-0.3421,-0.032,0.032,-0.012
2025-11-06 18:37:24.008,310.66,0.049,-0.22,-0.11,-0.491,-0.851,0.328,-1.1400000000000001,-7.22,-36.83,0.4837,-0.8044,-0.0477,-0.3415,-0.031,0.038,-0.005
2025-11-06 18:37:24.008,310.665,0.037,-0.231,-0.115,-0.493,-0.856,0.326,-1.1400000000000001,-7.22,-36.83,0.4837,-0.8046000000000001,-0.0477,-0.34090000000000004,-0.028,0.043000000000000003,-0.002
2025-11-06 18:37:24.008,310.67,0.026000000000000002,-0.23700000000000002,-0.11900000000000001,-0.501,-0.86,0.324,-1.1400000000000001,-7.22,-36.83,0.4838,-0.8048000000000001,-0.0477,-0.3402,-0.019,0.046,0.0
2025-11-06 18:37:24.008,310.675,0.02,-0.23800000000000002,-0.121,-0.513,-0.862,0.323,-0.52,-6.54,-36.56,0.4839,-0.805,-0.0477,-0.3396,-0.006,0.048,0.001
2025-11-06 18:37:24.008,310.68,0.01,-0.23800000000000002,-0.11900000000000001,-0.525,-0.862,0.328,-0.52,-6.54,-36.56,0.48400000000000004,-0.8052,-0.0477,-0.339,0.006,0.048,-0.002
2025-11-06 18:37:24.008,310.685,-0.008,-0.23500000000000001,-0.113,-0.539,-0.859,0.331,0.05,-6.13,-36.12,0.4842,-0.8054,-0.0476,-0.33840000000000003,0.02,0.044,-0.005
2025-11-06 18:37:24.008,310.69,-0.022,-0.215,-0.107,-0.548,-0.854,0.336,0.05,-6.13,-36.12,0.4843,-0.8055,-0.0476,-0.3378,0.03,0.039,-0.01
2025-11-06 18:37:24.011,310.695,-0.035,-0.195,-0.1,-0.556,-0.845,0.342,0.05,-6.13,-36.12,0.48450000000000004,-0.8056000000000001,-0.0475,-0.3373,0.039,0.03,-0.015
2025-11-06 18:37:24.011,310.7,-0.05,-0.17,-0.093,-0.5630000000000001,-0.835,0.34900000000000003,0.2,-7.3,-36.68,0.4847,-0.8057000000000001,-0.0475,-0.33690000000000003,0.046,0.02,-0.022
2025-11-06 18:37:24.011,310.705,-0.066,-0.14,-0.083,-0.5640000000000001,-0.8230000000000001,0.352,0.2,-7.3,-36.68,0.48500000000000004,-0.8057000000000001,-0.047400000000000005,-0.3365,0.047,0.008,-0.026000000000000002
2025-11-06 18:37:24.011,310.71,-0.078,-0.099,-0.076,-0.5670000000000001,-0.807,0.357,-0.23,-6.1000000000000005,-36.910000000000004,0.4852,-0.8057000000000001,-0.047400000000000005,-0.3362,0.051000000000000004,-0.008,-0.031
2025-11-06 18:37:24.011,310.715,-0.091,-0.068,-0.069,-0.5630000000000001,-0.789,0.358,-0.23,-6.1000000000000005,-36.910000000000004,0.4854,-0.8056000000000001,-0.047400000000000005,-0.336,0.047,-0.026000000000000002,-0.032
2025-11-06 18:37:24.011,310.72,-0.114,0.0,-0.06,-0.558,-0.781,0.357,-0.23,-6.1000000000000005,-36.910000000000004,0.4857,-0.8055,-0.047400000000000005,-0.336,0.042,-0.035,-0.032
2025-11-06 18:37:24.011,310.725,-0.116,0.036000000000000004,-0.053,-0.556,-0.769,0.359,-0.05,-6.48,-37.06,0.4859,-0.8053,-0.047400000000000005,-0.3361,0.041,-0.046,-0.035
2025-11-06 18:37:24.011,310.73,-0.11900000000000001,0.062,-0.052000000000000005,-0.549,-0.767,0.343,-0.05,-6.48,-37.06,0.4862,-0.8051,-0.0475,-0.3361,0.033,-0.049,-0.02
2025-11-06 18:37:24.011,310.735,-0.124,0.068,-0.053,-0.54,-0.759,0.338,-0.55,-6.48,-37.410000000000004,0.4864,-0.8049000000000001,-0.0475,-0.3362,0.025,-0.058,-0.016
2025-11-06 18:37:24.011,310.74,-0.11900000000000001,0.077,-0.055,-0.531,-0.753,0.329,-0.55,-6.48,-37.410000000000004,0.4867,-0.8047000000000001,-0.0476,-0.33630000000000004,0.016,-0.064,-0.007
2025-11-06 18:37:24.011,310.745,-0.116,0.101,-0.058,-0.518,-0.743,0.312,-0.55,-6.48,-37.410000000000004,0.48700000000000004,-0.8045,-0.0478,-0.3365,0.003,-0.075,0.008
2025-11-06 18:37:24.011,310.75,-0.111,0.134,-0.065,-0.513,-0.737,0.302,-0.55,-5.93,-37.35,0.4873,-0.8042,-0.048,-0.3367,-0.002,-0.081,0.017
2025-11-06 18:37:24.011,310.755,-0.107,0.156,-0.074,-0.499,-0.734,0.289,-0.55,-5.93,-37.35,0.48750000000000004,-0.8039000000000001,-0.0482,-0.33690000000000003,-0.015,-0.085,0.029
2025-11-06 18:37:24.011,310.76,-0.114,0.147,-0.078,-0.495,-0.728,0.29,-0.35000000000000003,-6.1000000000000005,-37.03,0.4878,-0.8036000000000001,-0.0485,-0.3372,-0.02,-0.091,0.027
2025-11-06 18:37:24.011,310.765,-0.11800000000000001,0.145,-0.082,-0.489,-0.719,0.297,-0.35000000000000003,-6.1000000000000005,-37.03,0.48810000000000003,-0.8034,-0.0487,-0.33740000000000003,-0.026000000000000002,-0.1,0.019
2025-11-06 18:37:24.011,310.77,-0.122,0.128,-0.08,-0.485,-0.711,0.303,-0.35000000000000003,-6.1000000000000005,-37.03,0.4884,-0.8031,-0.0489,-0.3376,-0.03,-0.108,0.013000000000000001
2025-11-06 18:37:24.011,310.775,-0.126,0.092,-0.07,-0.47700000000000004,-0.7030000000000001,0.309,0.23,-6.19,-37.35,0.4887,-0.8028000000000001,-0.049,-0.3377,-0.038,-0.116,0.006
2025-11-06 18:37:24.011,310.78,-0.12,0.073,-0.06,-0.47400000000000003,-0.7020000000000001,0.314,0.23,-6.19,-37.35,0.48900000000000005,-0.8026000000000001,-0.0492,-0.3378,-0.041,-0.11800000000000001,0.0
2025-11-06 18:37:24.011,310.785,-0.108,0.051000000000000004,-0.049,-0.468,-0.707,0.324,0.08,-6.4,-37.410000000000004,0.4893,-0.8024,-0.0492,-0.3378,-0.046,-0.113,-0.01
2025-11-06 18:37:24.011,310.79,-0.089,0.033,-0.038,-0.468,-0.713,0.328,0.08,-6.4,-37.410000000000004,0.48950000000000005,-0.8023,-0.049300000000000004,-0.33790000000000003,-0.046,-0.106,-0.015
2025-11-06 18:37:24.011,310.795,-0.07100000000000001,0.014,-0.036000000000000004,-0.47000000000000003,-0.723,0.332,0.08,-6.4,-37.410000000000004,0.48960000000000004,-0.8022,-0.049300000000000004,-0.33790000000000003,-0.044,-0.097,-0.018000000000000002
2025-11-06 18:37:24.011,310.8,-0.05,-0.002,-0.034,-0.47700000000000004,-0.731,0.333,0.81,-6.3100000000000005,-37.47,0.4898,-0.8021,-0.049300000000000004,-0.3378,-0.036000000000000004,-0.089,-0.019
2025-11-06 18:37:24.013,310.805,-0.019,-0.041,-0.046,-0.487,-0.743,0.331,0.81,-6.3100000000000005,-37.47,0.4899,-0.8021,-0.049300000000000004,-0.3377,-0.026000000000000002,-0.077,-0.017
2025-11-06 18:37:24.013,310.81,0.002,-0.066,-0.059000000000000004,-0.493,-0.748,0.334,-0.17,-6.34,-37.64,0.4899,-0.8022,-0.0494,-0.3375,-0.02,-0.07200000000000001,-0.02
2025-11-06 18:37:24.013,310.815,0.018000000000000002,-0.08700000000000001,-0.074,-0.498,-0.75,0.338,-0.17,-6.34,-37.64,0.49000000000000005,-0.8023,-0.0495,-0.3372,-0.014,-0.07,-0.024
2025-11-06 18:37:24.013,310.82,0.026000000000000002,-0.113,-0.098,-0.502,-0.754,0.342,-0.17,-6.34,-37.64,0.49000000000000005,-0.8024,-0.0495,-0.33690000000000003,-0.009000000000000001,-0.066,-0.027
2025-11-06 18:37:24.013,310.825,0.028,-0.135,-0.116,-0.506,-0.756,0.34400000000000003,-0.14,-6.08,-37.12,0.49010000000000004,-0.8025,-0.049600000000000005,-0.3365,-0.005,-0.065,-0.029
2025-11-06 18:37:24.013,310.83,0.021,-0.161,-0.138,-0.514,-0.762,0.34600000000000003,-0.14,-6.08,-37.12,0.4902,-0.8026000000000001,-0.049800000000000004,-0.336,0.002,-0.059000000000000004,-0.03
2025-11-06 18:37:24.013,310.835,0.015,-0.198,-0.17,-0.516,-0.768,0.34700000000000003,0.52,-6.46,-37.47,0.4903,-0.8028000000000001,-0.0499,-0.33540000000000003,0.006,-0.054,-0.031
2025-11-06 18:37:24.013,310.84,0.011,-0.226,-0.185,-0.516,-0.773,0.34800000000000003,0.52,-6.46,-37.47,0.4904,-0.803,-0.05,-0.3347,0.007,-0.049,-0.031
2025-11-06 18:37:24.013,310.845,0.009000000000000001,-0.242,-0.195,-0.516,-0.776,0.34800000000000003,0.52,-6.46,-37.47,0.49060000000000004,-0.8032,-0.050100000000000006,-0.334,0.008,-0.046,-0.03
2025-11-06 18:37:24.013,310.85,0.008,-0.269,-0.202,-0.508,-0.776,0.34,0.2,-6.37,-37.59,0.4908,-0.8034,-0.0502,-0.3332,0.001,-0.047,-0.021
2025-11-06 18:37:24.013,310.855,0.001,-0.294,-0.20400000000000001,-0.503,-0.777,0.34500000000000003,0.2,-6.37,-37.59,0.49100000000000005,-0.8036000000000001,-0.050300000000000004,-0.33230000000000004,-0.002,-0.047,-0.025
2025-11-06 18:37:24.013,310.86,-0.004,-0.311,-0.202,-0.493,-0.774,0.339,0.2,-6.37,-37.59,0.4912,-0.8038000000000001,-0.050300000000000004,-0.3315,-0.011,-0.05,-0.02
2025-11-06 18:37:24.013,310.865,-0.019,-0.325,-0.198,-0.481,-0.769,0.334,-0.05,-6.8100000000000005,-37.910000000000004,0.49150000000000005,-0.804,-0.050300000000000004,-0.3306,-0.021,-0.056,-0.014
2025-11-06 18:37:24.013,310.87,-0.04,-0.333,-0.191,-0.462,-0.757,0.336,-0.05,-6.8100000000000005,-37.910000000000004,0.4918,-0.8042,-0.050300000000000004,-0.3297,-0.038,-0.068,-0.015
2025-11-06 18:37:24.013,310.875,-0.051000000000000004,-0.324,-0.184,-0.453,-0.746,0.336,1.19,-6.13,-37.21,0.49210000000000004,-0.8044,-0.0502,-0.32880000000000004,-0.047,-0.079,-0.014
2025-11-06 18:37:24.013,310.88,-0.056,-0.304,-0.171,-0.447,-0.733,0.337,1.19,-6.13,-37.21,0.4924,-0.8045,-0.0502,-0.328,-0.051000000000000004,-0.093,-0.016
2025-11-06 18:37:24.013,310.885,-0.055,-0.28800000000000003,-0.158,-0.445,-0.718,0.337,1.19,-6.13,-37.21,0.4927,-0.8047000000000001,-0.050100000000000006,-0.32730000000000004,-0.052000000000000005,-0.109,-0.016
2025-11-06 18:37:24.013,310.89,-0.048,-0.28500000000000003,-0.14,-0.444,-0.6970000000000001,0.332,0.78,-6.08,-37.82,0.49300000000000005,-0.8048000000000001,-0.05,-0.3265,-0.052000000000000005,-0.13,-0.01
2025-11-06 18:37:24.013,310.895,-0.031,-0.289,-0.127,-0.442,-0.684,0.326,0.78,-6.08,-37.82,0.4932,-0.805,-0.0499,-0.32580000000000003,-0.054,-0.14400000000000002,-0.004
2025-11-06 18:37:24.013,310.9,-0.003,-0.28500000000000003,-0.12,-0.442,-0.677,0.325,0.78,-5.93,-37.56,0.4933,-0.8052,-0.049800000000000004,-0.3251,-0.052000000000000005,-0.151,-0.003
2025-11-06 18:37:24.013,310.905,0.027,-0.273,-0.121,-0.446,-0.675,0.325,0.78,-5.93,-37.56,0.4934,-0.8054,-0.049800000000000004,-0.3244,-0.048,-0.153,-0.002
2025-11-06 18:37:24.014,310.91,0.054,-0.274,-0.122,-0.449,-0.678,0.327,0.78,-5.93,-37.56,0.4934,-0.8057000000000001,-0.0497,-0.32370000000000004,-0.044,-0.15,-0.003
2025-11-06 18:37:24.015,310.915,0.081,-0.291,-0.133,-0.45,-0.684,0.328,1.57,-6.46,-37.88,0.4934,-0.806,-0.0497,-0.3229,-0.042,-0.14400000000000002,-0.004
2025-11-06 18:37:24.015,310.92,0.112,-0.32,-0.158,-0.454,-0.6930000000000001,0.34600000000000003,1.57,-6.46,-37.88,0.4933,-0.8064,-0.049800000000000004,-0.3221,-0.037,-0.135,-0.019
2025-11-06 18:37:24.015,310.925,0.149,-0.34900000000000003,-0.184,-0.455,-0.7020000000000001,0.355,1.16,-6.13,-38.02,0.4932,-0.8068000000000001,-0.0499,-0.3211,-0.034,-0.126,-0.027
2025-11-06 18:37:24.015,310.93,0.166,-0.392,-0.20800000000000002,-0.45,-0.71,0.365,1.16,-6.13,-38.02,0.49310000000000004,-0.8073,-0.05,-0.32,-0.038,-0.11800000000000001,-0.036000000000000004
2025-11-06 18:37:24.015,310.935,0.171,-0.437,-0.23600000000000002,-0.449,-0.718,0.373,1.16,-6.13,-38.02,0.49300000000000005,-0.8078000000000001,-0.050100000000000006,-0.3189,-0.037,-0.11,-0.042
2025-11-06 18:37:24.015,310.94,0.165,-0.47700000000000004,-0.267,-0.442,-0.727,0.381,1.22,-6.22,-37.26,0.49300000000000005,-0.8084,-0.0502,-0.3175,-0.042,-0.10200000000000001,-0.048
2025-11-06 18:37:24.015,310.945,0.147,-0.521,-0.298,-0.437,-0.742,0.385,1.22,-6.22,-37.26,0.49300000000000005,-0.8089000000000001,-0.050300000000000004,-0.3161,-0.045,-0.08700000000000001,-0.049
2025-11-06 18:37:24.015,310.95,0.11900000000000001,-0.5660000000000001,-0.326,-0.424,-0.758,0.392,2.98,-6.92,-36.800000000000004,0.49310000000000004,-0.8095,-0.0504,-0.3146,-0.056,-0.07100000000000001,-0.054
2025-11-06 18:37:24.015,310.955,0.078,-0.597,-0.355,-0.417,-0.774,0.398,2.98,-6.92,-36.800000000000004,0.4933,-0.81,-0.0505,-0.3129,-0.06,-0.056,-0.058
2025-11-06 18:37:24.015,310.96,0.039,-0.614,-0.367,-0.41500000000000004,-0.784,0.397,2.98,-6.92,-36.800000000000004,0.49360000000000004,-0.8104,-0.0505,-0.31120000000000003,-0.06,-0.047,-0.055
2025-11-06 18:37:24.015,310.965,0.004,-0.64,-0.375,-0.404,-0.785,0.392,1.75,-5.93,-37.26,0.49400000000000005,-0.8109000000000001,-0.0505,-0.3095,-0.067,-0.046,-0.049
2025-11-06 18:37:24.015,310.97,-0.024,-0.654,-0.38,-0.396,-0.779,0.39,1.75,-5.93,-37.26,0.4944,-0.8113,-0.0505,-0.30770000000000003,-0.073,-0.053,-0.046
2025-11-06 18:37:24.015,310.975,-0.051000000000000004,-0.661,-0.377,-0.394,-0.774,0.391,1.78,-5.58,-37.09,0.4949,-0.8117000000000001,-0.0505,-0.3059,-0.073,-0.059000000000000004,-0.046
2025-11-06 18:37:24.015,310.98,-0.082,-0.655,-0.359,-0.391,-0.763,0.399,1.78,-5.58,-37.09,0.4954,-0.812,-0.0504,-0.3042,-0.073,-0.07100000000000001,-0.053
2025-11-06 18:37:24.015,310.985,-0.113,-0.645,-0.336,-0.398,-0.757,0.4,1.78,-5.58,-37.09,0.496,-0.8123,-0.0502,-0.3025,-0.064,-0.078,-0.053
2025-11-06 18:37:24.015,310.99,-0.131,-0.617,-0.313,-0.40800000000000003,-0.753,0.4,2.0100000000000002,-6.16,-37.67,0.49660000000000004,-0.8125,-0.05,-0.3008,-0.052000000000000005,-0.083,-0.052000000000000005
2025-11-06 18:37:24.015,310.995,-0.14100000000000001,-0.589,-0.289,-0.419,-0.75,0.395,2.0100000000000002,-6.16,-37.67,0.49720000000000003,-0.8127000000000001,-0.049800000000000004,-0.2993,-0.038,-0.08700000000000001,-0.047
2025-11-06 18:37:24.015,311.0,-0.14400000000000002,-0.5640000000000001,-0.262,-0.429,-0.742,0.386,3.09,-5.4,-37.410000000000004,0.4978,-0.8129000000000001,-0.049600000000000005,-0.2979,-0.026000000000000002,-0.096,-0.037
2025-11-06 18:37:24.015,311.005,-0.133,-0.532,-0.23900000000000002,-0.437,-0.734,0.381,3.09,-5.4,-37.410000000000004,0.4984,-0.8131,-0.049300000000000004,-0.29650000000000004,-0.016,-0.105,-0.032
2025-11-06 18:37:24.015,311.01,-0.12,-0.501,-0.215,-0.446,-0.718,0.387,3.09,-5.4,-37.410000000000004,0.4988,-0.8133,-0.049100000000000005,-0.2953,-0.006,-0.122,-0.038
2025-11-06 18:37:24.015,311.015,-0.085,-0.40700000000000003,-0.197,-0.457,-0.7030000000000001,0.389,2.86,-6.37,-37.85,0.49920000000000003,-0.8134,-0.0489,-0.2942,0.005,-0.138,-0.04
2025-11-06 18:37:24.016,311.02,-0.063,-0.364,-0.186,-0.462,-0.687,0.389,2.86,-6.37,-37.85,0.4995,-0.8136,-0.0488,-0.2932,0.012,-0.154,-0.04
2025-11-06 18:37:24.016,311.025,-0.034,-0.319,-0.176,-0.47200000000000003,-0.674,0.391,3.09,-6.28,-37.35,0.4998,-0.8137000000000001,-0.0488,-0.2924,0.024,-0.167,-0.042
2025-11-06 18:37:24.016,311.03,-0.009000000000000001,-0.276,-0.169,-0.47600000000000003,-0.664,0.393,3.09,-6.28,-37.35,0.5,-0.8139000000000001,-0.0488,-0.2916,0.028,-0.178,-0.043000000000000003
2025-11-06 18:37:24.016,311.035,0.011,-0.23700000000000002,-0.17,-0.481,-0.658,0.397,3.09,-6.28,-37.35,0.5001,-0.8141,-0.0489,-0.2909,0.035,-0.184,-0.047
2025-11-06 18:37:24.016,311.04,0.022,-0.195,-0.17300000000000001,-0.486,-0.654,0.393,3.33,-5.93,-37.76,0.5002,-0.8142,-0.049,-0.2903,0.041,-0.188,-0.042
2025-11-06 18:37:24.016,311.045,0.019,-0.153,-0.182,-0.485,-0.655,0.384,3.33,-5.93,-37.76,0.5003000000000001,-0.8143,-0.0492,-0.2898,0.041,-0.188,-0.033
2025-11-06 18:37:24.016,311.05,0.021,-0.138,-0.193,-0.489,-0.656,0.372,3.09,-6.4,-38.29,0.5004000000000001,-0.8144,-0.0495,-0.2893,0.045,-0.188,-0.021
2025-11-06 18:37:24.016,311.055,0.02,-0.133,-0.20700000000000002,-0.486,-0.653,0.362,3.09,-6.4,-38.29,0.5006,-0.8145,-0.0497,-0.2887,0.043000000000000003,-0.191,-0.01
2025-11-06 18:37:24.016,311.06,0.023,-0.127,-0.22,-0.47900000000000004,-0.647,0.354,3.09,-6.4,-38.29,0.5007,-0.8146,-0.050100000000000006,-0.2882,0.038,-0.198,-0.002
2025-11-06 18:37:24.016,311.065,0.028,-0.136,-0.23900000000000002,-0.47200000000000003,-0.644,0.34,3.47,-5.72,-38.17,0.5008,-0.8147000000000001,-0.0504,-0.2876,0.032,-0.201,0.011
2025-11-06 18:37:24.016,311.07,0.037,-0.151,-0.274,-0.47100000000000003,-0.646,0.332,3.47,-5.72,-38.17,0.501,-0.8148000000000001,-0.050800000000000005,-0.28700000000000003,0.032,-0.2,0.02
2025-11-06 18:37:24.016,311.075,0.043000000000000003,-0.148,-0.294,-0.47300000000000003,-0.651,0.333,4.03,-5.58,-37.85,0.5011,-0.8149000000000001,-0.051300000000000005,-0.2863,0.036000000000000004,-0.195,0.02
2025-11-06 18:37:24.016,311.08,0.055,-0.15,-0.302,-0.48,-0.654,0.336,4.03,-5.58,-37.85,0.5012,-0.8151,-0.051800000000000006,-0.2856,0.045,-0.193,0.017
2025-11-06 18:37:24.016,311.085,0.063,-0.154,-0.309,-0.484,-0.659,0.34,4.03,-5.58,-37.85,0.5014000000000001,-0.8152,-0.0523,-0.2849,0.05,-0.189,0.013000000000000001
2025-11-06 18:37:24.016,311.09,0.07,-0.165,-0.311,-0.47900000000000004,-0.669,0.358,3.65,-5.96,-38.26,0.5015000000000001,-0.8154,-0.0528,-0.2842,0.046,-0.179,-0.002
2025-11-06 18:37:24.016,311.095,0.061,-0.178,-0.307,-0.47500000000000003,-0.675,0.375,3.65,-5.96,-38.26,0.5016,-0.8155,-0.053200000000000004,-0.28350000000000003,0.045,-0.17300000000000001,-0.019
2025-11-06 18:37:24.016,311.1,0.034,-0.192,-0.303,-0.47500000000000003,-0.683,0.388,4.23,-5.58,-37.7,0.5018,-0.8156,-0.0536,-0.2827,0.046,-0.165,-0.032
2025-11-06 18:37:24.016,311.105,0.006,-0.198,-0.304,-0.47000000000000003,-0.687,0.391,4.23,-5.58,-37.7,0.502,-0.8157000000000001,-0.054,-0.28190000000000004,0.043000000000000003,-0.162,-0.034
2025-11-06 18:37:24.016,311.11,-0.033,-0.20700000000000002,-0.309,-0.456,-0.686,0.394,4.23,-5.58,-37.7,0.5023,-0.8158000000000001,-0.054400000000000004,-0.2811,0.03,-0.163,-0.036000000000000004
2025-11-06 18:37:24.016,311.115,-0.066,-0.199,-0.316,-0.434,-0.677,0.398,4.12,-5.72,-38.32,0.5027,-0.8158000000000001,-0.0548,-0.28040000000000004,0.01,-0.17300000000000001,-0.041
2025-11-06 18:37:24.016,311.12,-0.094,-0.185,-0.325,-0.42,-0.669,0.40900000000000003,4.12,-5.72,-38.32,0.5032,-0.8158000000000001,-0.055200000000000006,-0.2796,-0.001,-0.181,-0.051000000000000004
2025-11-06 18:37:24.016,311.125,-0.117,-0.161,-0.342,-0.402,-0.656,0.42,4.12,-5.72,-38.32,0.5037,-0.8157000000000001,-0.055600000000000004,-0.27890000000000004,-0.018000000000000002,-0.195,-0.062
2025-11-06 18:37:24.016,311.13,-0.145,-0.14300000000000002,-0.356,-0.389,-0.647,0.421,4.0,-5.46,-37.97,0.5042,-0.8155,-0.056100000000000004,-0.2782,-0.029,-0.20500000000000002,-0.064
2025-11-06 18:37:24.017,311.135,-0.183,-0.11800000000000001,-0.377,-0.38,-0.643,0.41600000000000004,4.0,-5.46,-37.97,0.5049,-0.8153,-0.056600000000000004,-0.2775,-0.037,-0.21,-0.059000000000000004
2025-11-06 18:37:24.017,311.14,-0.20400000000000001,-0.108,-0.388,-0.37,-0.637,0.404,3.65,-5.5200000000000005,-38.32,0.5056,-0.8150000000000001,-0.057100000000000005,-0.2768,-0.044,-0.217,-0.049
2025-11-06 18:37:24.017,311.145,-0.218,-0.096,-0.394,-0.366,-0.633,0.385,3.65,-5.5200000000000005,-38.32,0.5064000000000001,-0.8148000000000001,-0.057600000000000005,-0.2762,-0.047,-0.222,-0.031
2025-11-06 18:37:24.017,311.15,-0.224,-0.082,-0.403,-0.35100000000000003,-0.629,0.377,3.65,-5.5200000000000005,-38.32,0.5071,-0.8144,-0.0582,-0.2756,-0.06,-0.228,-0.024
2025-11-06 18:37:24.017,311.155,-0.23,-0.07200000000000001,-0.41400000000000003,-0.34600000000000003,-0.628,0.368,4.79,-5.46,-38.46,0.5079,-0.8141,-0.058800000000000005,-0.27490000000000003,-0.063,-0.231,-0.015
2025-11-06 18:37:24.017,311.16,-0.23700000000000002,-0.07100000000000001,-0.425,-0.341,-0.623,0.36,4.79,-5.46,-38.46,0.5087,-0.8138000000000001,-0.0594,-0.2743,-0.066,-0.23600000000000002,-0.008
2025-11-06 18:37:24.017,311.165,-0.241,-0.066,-0.443,-0.341,-0.618,0.354,5.0200000000000005,-5.0200000000000005,-38.81,0.5095000000000001,-0.8134,-0.0601,-0.2737,-0.064,-0.243,-0.004
2025-11-06 18:37:24.017,311.17,-0.23900000000000002,-0.068,-0.463,-0.338,-0.611,0.34600000000000003,5.0200000000000005,-5.0200000000000005,-38.81,0.5104000000000001,-0.8131,-0.0608,-0.273,-0.065,-0.251,0.002
2025-11-06 18:37:24.017,311.175,-0.234,-0.066,-0.482,-0.343,-0.605,0.34800000000000003,5.0200000000000005,-5.0200000000000005,-38.81,0.5112,-0.8128000000000001,-0.0616,-0.2723,-0.058,-0.259,0.0
2025-11-06 18:37:24.017,311.18,-0.23,-0.056,-0.505,-0.34400000000000003,-0.602,0.34900000000000003,5.5200000000000005,-6.54,-38.58,0.512,-0.8124,-0.062400000000000004,-0.2716,-0.055,-0.263,-0.002
2025-11-06 18:37:24.017,311.185,-0.23700000000000002,-0.044,-0.539,-0.356,-0.598,0.372,5.5200000000000005,-6.54,-38.58,0.5129,-0.812,-0.06330000000000001,-0.27090000000000003,-0.041,-0.268,-0.025
2025-11-06 18:37:24.017,311.19,-0.259,-0.027,-0.579,-0.375,-0.602,0.397,5.05,-5.08,-38.7,0.5139,-0.8116,-0.06430000000000001,-0.2702,-0.019,-0.265,-0.052000000000000005
2025-11-06 18:37:24.017,311.195,-0.289,-0.009000000000000001,-0.613,-0.393,-0.611,0.419,5.05,-5.08,-38.7,0.5149,-0.8111,-0.0653,-0.26940000000000003,0.0,-0.257,-0.075
2025-11-06 18:37:24.017,311.2,-0.332,0.006,-0.642,-0.405,-0.618,0.435,5.05,-5.08,-38.7,0.516,-0.8105,-0.0664,-0.2687,0.015,-0.252,-0.093
2025-11-06 18:37:24.017,311.205,-0.378,0.026000000000000002,-0.669,-0.41600000000000004,-0.622,0.442,5.9,-4.5,-38.76,0.5172,-0.8099000000000001,-0.06760000000000001,-0.268,0.029,-0.25,-0.101
2025-11-06 18:37:24.017,311.21,-0.41600000000000004,0.039,-0.6920000000000001,-0.418,-0.621,0.442,5.9,-4.5,-38.76,0.5186000000000001,-0.8092,-0.0688,-0.26730000000000004,0.034,-0.253,-0.10300000000000001
2025-11-06 18:37:24.017,311.215,-0.453,0.052000000000000005,-0.709,-0.41000000000000003,-0.614,0.424,5.8100000000000005,-4.79,-39.160000000000004,0.52,-0.8084,-0.07,-0.2666,0.029,-0.262,-0.08700000000000001
2025-11-06 18:37:24.017,311.22,-0.47600000000000003,0.06,-0.722,-0.394,-0.616,0.403,5.8100000000000005,-4.79,-39.160000000000004,0.5214,-0.8076,-0.0712,-0.2659,0.016,-0.263,-0.069
2025-11-06 18:37:24.017,311.225,-0.504,0.083,-0.727,-0.376,-0.602,0.361,5.8100000000000005,-4.79,-39.160000000000004,0.5229,-0.8067000000000001,-0.07250000000000001,-0.2652,0.001,-0.279,-0.029
2025-11-06 18:37:24.017,311.23,-0.535,0.109,-0.73,-0.362,-0.591,0.333,6.66,-4.38,-39.46,0.5245000000000001,-0.8058000000000001,-0.0737,-0.2646,-0.009000000000000001,-0.293,-0.004
2025-11-06 18:37:24.017,311.235,-0.589,0.134,-0.727,-0.338,-0.585,0.306,6.66,-4.38,-39.46,0.5262,-0.8047000000000001,-0.075,-0.2641,-0.03,-0.301,0.019
2025-11-06 18:37:24.017,311.24,-0.645,0.14300000000000002,-0.721,-0.32,-0.579,0.28,6.63,-4.61,-40.51,0.528,-0.8036000000000001,-0.0762,-0.2636,-0.045,-0.31,0.043000000000000003
2025-11-06 18:37:24.017,311.245,-0.672,0.10200000000000001,-0.717,-0.325,-0.59,0.187,6.63,-4.61,-40.51,0.5298,-0.8025,-0.07740000000000001,-0.263,-0.036000000000000004,-0.303,0.132
2025-11-06 18:37:24.017,311.25,-0.652,0.011,-0.708,-0.338,-0.621,0.139,6.63,-4.61,-40.51,0.5316000000000001,-0.8014,-0.0784,-0.26230000000000003,-0.02,-0.275,0.178
2025-11-06 18:37:24.017,311.255,-0.642,-0.074,-0.6940000000000001,-0.35100000000000003,-0.68,0.129,6.890000000000001,-4.67,-40.83,0.5334,-0.8004,-0.07930000000000001,-0.2614,-0.003,-0.219,0.186
2025-11-06 18:37:24.018,311.26,-0.683,-0.149,-0.677,-0.354,-0.769,0.17200000000000001,6.890000000000001,-4.67,-40.83,0.5353,-0.7995,-0.08,-0.26030000000000003,0.003,-0.131,0.14200000000000002
2025-11-06 18:37:24.018,311.265,-0.789,-0.20600000000000002,-0.661,-0.354,-0.873,0.26,7.24,-4.44,-41.04,0.5374,-0.7983,-0.0806,-0.2592,0.007,-0.027,0.054
2025-11-06 18:37:24.018,311.27,-0.937,-0.214,-0.652,-0.34900000000000003,-0.977,0.352,7.24,-4.44,-41.04,0.5398000000000001,-0.797,-0.081,-0.2582,0.006,0.075,-0.04
2025-11-06 18:37:24.018,311.275,-1.056,-0.201,-0.65,-0.327,-1.086,0.42,7.24,-4.44,-41.04,0.5424,-0.7956000000000001,-0.0814,-0.25720000000000004,-0.011,0.183,-0.11
2025-11-06 18:37:24.018,311.28,-1.274,-0.08700000000000001,-0.659,-0.279,-1.155,0.40800000000000003,7.65,-4.8500000000000005,-41.39,0.5454,-0.7937000000000001,-0.0818,-0.2564,-0.055,0.249,-0.101
2025-11-06 18:37:24.018,311.285,-1.339,0.019,-0.671,-0.23800000000000002,-1.176,0.357,7.65,-4.8500000000000005,-41.39,0.5486,-0.7916000000000001,-0.0823,-0.2558,-0.092,0.267,-0.056
2025-11-06 18:37:24.018,311.29,-1.353,0.13,-0.685,-0.20700000000000002,-1.184,0.28200000000000003,8.21,-5.9,-42.0,0.5517000000000001,-0.7895000000000001,-0.0829,-0.2555,-0.12,0.271,0.012
2025-11-06 18:37:24.018,311.295,-1.32,0.234,-0.6920000000000001,-0.188,-1.189,0.199,8.21,-5.9,-42.0,0.5548000000000001,-0.7873,-0.0838,-0.2553,-0.136,0.271,0.088
2025-11-06 18:37:24.018,311.3,-1.246,0.296,-0.6940000000000001,-0.184,-1.199,0.125,8.21,-5.9,-42.0,0.5577,-0.7852,-0.0848,-0.2553,-0.137,0.277,0.156
2025-11-06 18:37:24.018,311.305,-1.173,0.317,-0.681,-0.2,-1.22,0.065,8.76,-3.74,-42.82,0.5604,-0.7831,-0.0858,-0.25520000000000004,-0.11800000000000001,0.294,0.211
2025-11-06 18:37:24.018,311.31,-1.0,0.261,-0.649,-0.234,-1.242,0.051000000000000004,8.76,-3.74,-42.82,0.5628000000000001,-0.7814,-0.0868,-0.2551,-0.081,0.313,0.22
2025-11-06 18:37:24.018,311.315,-0.927,0.159,-0.617,-0.269,-1.254,0.081,9.03,-4.15,-44.160000000000004,0.5650000000000001,-0.7798,-0.0876,-0.2548,-0.044,0.323,0.185
2025-11-06 18:37:24.018,311.35,-1.06,-0.281,-0.34500000000000003,-0.37,-1.627,0.273,9.03,-4.12,-44.63,0.5812,-0.7701,-0.08660000000000001,-0.248,0.076,0.687,-0.029
2025-11-06 18:37:24.018,311.355,-1.091,-0.146,-0.319,-0.375,-1.692,0.248,10.23,-4.32,-44.92,0.5836,-0.7685000000000001,-0.0864,-0.24750000000000003,0.084,0.75,-0.007
2025-11-06 18:37:24.018,311.36,-1.117,-0.012,-0.296,-0.383,-1.749,0.22,10.23,-4.32,-44.92,0.5860000000000001,-0.7667,-0.0862,-0.24730000000000002,0.094,0.805,0.016
2025-11-06 18:37:24.018,311.365,-1.1380000000000001,0.10200000000000001,-0.263,-0.392,-1.826,0.209,9.700000000000001,-4.0,-45.480000000000004,0.5883,-0.7649,-0.0862,-0.2474,0.105,0.881,0.023
2025-11-06 18:37:24.018,311.37,-1.122,0.10200000000000001,-0.246,-0.386,-1.856,0.209,9.700000000000001,-4.0,-45.480000000000004,0.5907,-0.7631,-0.08610000000000001,-0.24750000000000003,0.1,0.909,0.018000000000000002
2025-11-06 18:37:24.018,311.375,-1.102,0.088,-0.246,-0.391,-1.8880000000000001,0.219,9.700000000000001,-4.0,-45.480000000000004,0.5929,-0.7613000000000001,-0.08600000000000001,-0.24760000000000001,0.106,0.9400000000000001,0.003
2025-11-06 18:37:24.018,311.38,-1.066,0.043000000000000003,-0.233,-0.402,-1.907,0.23600000000000002,10.69,-4.12,-46.36,0.5952000000000001,-0.7596,-0.0859,-0.24760000000000001,0.11800000000000001,0.9580000000000001,-0.018000000000000002
2025-11-06 18:37:24.018,311.385,-1.0230000000000001,0.033,-0.242,-0.41200000000000003,-1.923,0.25,10.69,-4.12,-46.36,0.5973,-0.7579,-0.0857,-0.24760000000000001,0.13,0.973,-0.037
2025-11-06 18:37:24.018,311.39,-0.96,0.037,-0.23600000000000002,-0.439,-1.92,0.256,10.69,-4.12,-46.36,0.5993,-0.7564000000000001,-0.08560000000000001,-0.24750000000000003,0.158,0.969,-0.048
2025-11-06 18:37:24.018,311.395,-0.8140000000000001,0.088,-0.255,-0.454,-1.868,0.262,9.700000000000001,-4.2,-46.44,0.601,-0.755,-0.0858,-0.24750000000000003,0.17300000000000001,0.915,-0.059000000000000004
2025-11-06 18:37:24.018,311.4,-0.715,0.153,-0.277,-0.481,-1.823,0.242,9.700000000000001,-4.2,-46.44,0.6025,-0.7537,-0.08610000000000001,-0.24750000000000003,0.201,0.869,-0.043000000000000003
2025-11-06 18:37:24.018,311.405,-0.605,0.248,-0.301,-0.48,-1.762,0.23900000000000002,10.52,-3.94,-46.82,0.6038,-0.7526,-0.08660000000000001,-0.2477,0.201,0.807,-0.046
2025-11-06 18:37:24.018,311.41,-0.502,0.369,-0.317,-0.47300000000000003,-1.703,0.226,10.52,-3.94,-46.82,0.6049,-0.7515000000000001,-0.08750000000000001,-0.24810000000000001,0.194,0.747,-0.037
2025-11-06 18:37:24.018,311.415,-0.40700000000000003,0.47300000000000003,-0.319,-0.47000000000000003,-1.637,0.21,10.52,-3.94,-46.82,0.6058,-0.7505000000000001,-0.08850000000000001,-0.24860000000000002,0.192,0.679,-0.025
2025-11-06 18:37:24.018,311.42,-0.301,0.542,-0.3,-0.47900000000000004,-1.553,0.203,9.55,-3.56,-46.71,0.6064,-0.7496,-0.0897,-0.2492,0.202,0.595,-0.022
2025-11-06 18:37:24.018,311.425,-0.181,0.582,-0.28300000000000003,-0.464,-1.485,0.202,9.55,-3.56,-46.71,0.6068,-0.7489,-0.091,-0.2499,0.187,0.527,-0.025
2025-11-06 18:37:24.018,311.43,0.003,0.631,-0.264,-0.441,-1.3960000000000001,0.20400000000000001,9.67,-3.8200000000000003,-46.71,0.6068,-0.7485,-0.09240000000000001,-0.25070000000000003,0.164,0.438,-0.03
2025-11-06 18:37:24.018,311.435,0.11900000000000001,0.658,-0.257,-0.41400000000000003,-1.33,0.191,9.67,-3.8200000000000003,-46.71,0.6066,-0.7482000000000001,-0.09390000000000001,-0.2516,0.137,0.371,-0.018000000000000002
2025-11-06 18:37:24.018,311.44,0.227,0.668,-0.253,-0.404,-1.2590000000000001,0.179,9.67,-3.8200000000000003,-46.71,0.6061000000000001,-0.7481,-0.0956,-0.2524,0.127,0.3,-0.008
2025-11-06 18:37:24.019,311.445,0.328,0.66,-0.253,-0.385,-1.193,0.157,10.17,-3.47,-46.27,0.6055,-0.7481,-0.09720000000000001,-0.25320000000000004,0.108,0.233,0.013000000000000001
2025-11-06 18:37:24.019,311.45,0.41100000000000003,0.619,-0.268,-0.373,-1.117,0.137,10.17,-3.47,-46.27,0.6047,-0.7483000000000001,-0.0989,-0.2538,0.096,0.157,0.032
2025-11-06 18:37:24.019,311.455,0.47500000000000003,0.552,-0.28700000000000003,-0.364,-1.055,0.12,9.96,-3.88,-45.89,0.6038,-0.7486,-0.10060000000000001,-0.2543,0.088,0.095,0.049
2025-11-06 18:37:24.019,311.46,0.561,0.445,-0.322,-0.34800000000000003,-0.987,0.10300000000000001,9.96,-3.88,-45.89,0.6028,-0.7491,-0.1022,-0.2545,0.07200000000000001,0.027,0.067
2025-11-06 18:37:24.019,311.465,0.607,0.376,-0.361,-0.332,-0.9390000000000001,0.099,9.96,-3.88,-45.89,0.6018,-0.7497,-0.1038,-0.2545,0.057,-0.021,0.07200000000000001
2025-11-06 18:37:24.019,311.585,-0.014,-0.232,-0.486,-0.226,-0.844,0.177,12.42,-3.06,-45.1,0.5971000000000001,-0.7536,-0.1322,-0.2409,0.002,-0.121,0.018000000000000002
2025-11-06 18:37:24.019,311.59,-0.036000000000000004,-0.276,-0.507,-0.23600000000000002,-0.84,0.195,12.42,-3.06,-45.1,0.5975,-0.7535000000000001,-0.1327,-0.2396,0.014,-0.125,0.0
2025-11-06 18:37:24.019,311.595,-0.059000000000000004,-0.303,-0.526,-0.241,-0.841,0.212,12.540000000000001,-2.74,-45.77,0.5981000000000001,-0.7534000000000001,-0.1332,-0.2383,0.022,-0.125,-0.016
2025-11-06 18:37:24.019,311.6,-0.077,-0.311,-0.546,-0.245,-0.843,0.231,12.540000000000001,-2.74,-45.77,0.5986,-0.7533000000000001,-0.1338,-0.2369,0.029,-0.124,-0.035
2025-11-06 18:37:24.020,311.605,-0.116,-0.292,-0.5670000000000001,-0.24,-0.847,0.244,12.83,-2.45,-44.43,0.5993,-0.7531,-0.13440000000000002,-0.2356,0.027,-0.12,-0.048
2025-11-06 18:37:24.020,311.61,-0.14300000000000002,-0.276,-0.577,-0.23600000000000002,-0.854,0.248,12.83,-2.45,-44.43,0.6,-0.7528,-0.135,-0.2343,0.026000000000000002,-0.113,-0.053
2025-11-06 18:37:24.020,311.615,-0.176,-0.265,-0.584,-0.226,-0.863,0.249,12.83,-2.45,-44.43,0.6008,-0.7525000000000001,-0.1356,-0.233,0.019,-0.105,-0.054
2025-11-06 18:37:24.020,311.62,-0.211,-0.261,-0.591,-0.215,-0.874,0.243,12.89,-3.5300000000000002,-44.89,0.6016,-0.7521,-0.1363,-0.23170000000000002,0.011,-0.094,-0.049
2025-11-06 18:37:24.020,311.625,-0.243,-0.248,-0.592,-0.199,-0.891,0.23700000000000002,12.89,-3.5300000000000002,-44.89,0.6025,-0.7516,-0.1369,-0.23040000000000002,-0.001,-0.078,-0.043000000000000003
2025-11-06 18:37:24.020,311.63,-0.289,-0.23600000000000002,-0.593,-0.178,-0.924,0.225,13.21,-2.04,-45.160000000000004,0.6035,-0.7511,-0.1375,-0.22920000000000001,-0.018000000000000002,-0.046,-0.032
2025-11-06 18:37:24.020,311.635,-0.312,-0.212,-0.585,-0.158,-0.9510000000000001,0.214,13.21,-2.04,-45.160000000000004,0.6045,-0.7505000000000001,-0.13820000000000002,-0.2281,-0.035,-0.02,-0.021
2025-11-06 18:37:24.021,311.64,-0.328,-0.199,-0.579,-0.137,-0.981,0.20500000000000002,13.21,-2.04,-45.160000000000004,0.6056,-0.7499,-0.1388,-0.227,-0.052000000000000005,0.008,-0.013000000000000001
2025-11-06 18:37:24.021,311.645,-0.339,-0.17400000000000002,-0.5700000000000001,-0.115,-1.012,0.198,13.32,-1.6,-45.68,0.6066,-0.7493000000000001,-0.1394,-0.22590000000000002,-0.07100000000000001,0.039,-0.007
2025-11-06 18:37:24.021,311.65,-0.342,-0.162,-0.554,-0.095,-1.044,0.189,13.32,-1.6,-45.68,0.6076,-0.7486,-0.1401,-0.22490000000000002,-0.088,0.069,0.0
2025-11-06 18:37:24.021,311.655,-0.336,-0.145,-0.538,-0.077,-1.075,0.18,13.32,-1.6,-45.6,0.6086,-0.748,-0.14070000000000002,-0.224,-0.10300000000000001,0.099,0.009000000000000001
2025-11-06 18:37:24.021,311.66,-0.307,-0.116,-0.519,-0.058,-1.117,0.17300000000000001,13.47,-1.78,-45.6,0.6096,-0.7473000000000001,-0.1413,-0.22310000000000002,-0.11900000000000001,0.14100000000000001,0.015
2025-11-06 18:37:24.021,311.665,-0.281,-0.085,-0.494,-0.057,-1.1440000000000001,0.18,13.47,-1.78,-45.6,0.6104,-0.7468,-0.14200000000000002,-0.2223,-0.117,0.168,0.008
2025-11-06 18:37:24.021,311.67,-0.256,-0.058,-0.468,-0.059000000000000004,-1.157,0.18,14.41,-1.25,-46.12,0.6112000000000001,-0.7462000000000001,-0.1427,-0.22160000000000002,-0.112,0.18,0.006
2025-11-06 18:37:24.021,311.675,-0.231,-0.043000000000000003,-0.435,-0.061,-1.163,0.181,14.41,-1.25,-46.12,0.6119,-0.7457,-0.1433,-0.2209,-0.108,0.186,0.004
2025-11-06 18:37:24.021,311.68,-0.216,-0.033,-0.41400000000000003,-0.066,-1.166,0.17,14.41,-1.25,-46.12,0.6125,-0.7452000000000001,-0.1439,-0.22030000000000002,-0.101,0.188,0.014
2025-11-06 18:37:24.021,311.685,-0.196,-0.047,-0.386,-0.08,-1.156,0.16,13.91,-1.16,-45.980000000000004,0.6131,-0.7448,-0.14450000000000002,-0.21980000000000002,-0.085,0.177,0.023
2025-11-06 18:37:24.021,311.69,-0.149,-0.078,-0.34800000000000003,-0.098,-1.1320000000000001,0.149,13.91,-1.16,-45.980000000000004,0.6136,-0.7445,-0.1449,-0.21910000000000002,-0.066,0.152,0.033
2025-11-06 18:37:24.021,311.695,-0.113,-0.10300000000000001,-0.328,-0.106,-1.112,0.147,13.88,-1.16,-46.36,0.6141,-0.7442000000000001,-0.1453,-0.2185,-0.056,0.132,0.034
2025-11-06 18:37:24.021,311.7,-0.07,-0.117,-0.312,-0.11800000000000001,-1.092,0.152,13.88,-1.16,-46.36,0.6144000000000001,-0.7441,-0.1457,-0.21780000000000002,-0.042,0.111,0.028
2025-11-06 18:37:24.021,311.705,-0.031,-0.138,-0.305,-0.133,-1.076,0.161,13.88,-1.16,-46.36,0.6147,-0.744,-0.1461,-0.21710000000000002,-0.026000000000000002,0.095,0.018000000000000002
2025-11-06 18:37:24.021,311.71,0.002,-0.146,-0.303,-0.151,-1.066,0.17400000000000002,14.26,-1.02,-46.300000000000004,0.6149,-0.7439,-0.1464,-0.2164,-0.007,0.085,0.006
2025-11-06 18:37:24.021,311.715,0.026000000000000002,-0.155,-0.305,-0.176,-1.056,0.198,14.26,-1.02,-46.300000000000004,0.6151,-0.7439,-0.1468,-0.2156,0.019,0.075,-0.018000000000000002
2025-11-06 18:37:24.021,311.72,0.044,-0.154,-0.313,-0.188,-1.051,0.216,14.67,-0.67,-46.21,0.6152000000000001,-0.744,-0.1472,-0.2149,0.033,0.07,-0.036000000000000004
2025-11-06 18:37:24.021,311.725,0.069,-0.139,-0.327,-0.198,-1.045,0.23900000000000002,14.67,-0.67,-46.21,0.6153000000000001,-0.744,-0.1476,-0.2141,0.044,0.065,-0.058
2025-11-06 18:37:24.021,311.73,0.073,-0.123,-0.337,-0.196,-1.037,0.258,14.67,-0.67,-46.21,0.6154000000000001,-0.7441,-0.1481,-0.21330000000000002,0.044,0.057,-0.077
2025-11-06 18:37:24.021,311.735,0.063,-0.099,-0.35100000000000003,-0.195,-1.028,0.268,14.93,-0.61,-46.18,0.6155,-0.7441,-0.1487,-0.2126,0.044,0.048,-0.08700000000000001
2025-11-06 18:37:24.021,311.74,0.045,-0.074,-0.366,-0.192,-1.018,0.27,14.93,-0.61,-46.18,0.6157,-0.744,-0.14930000000000002,-0.2119,0.043000000000000003,0.038,-0.089
2025-11-06 18:37:24.021,311.745,0.02,-0.057,-0.382,-0.184,-1.0,0.26,14.73,-0.64,-46.09,0.6158,-0.744,-0.1499,-0.2112,0.036000000000000004,0.019,-0.08
2025-11-06 18:37:24.021,311.75,-0.003,-0.047,-0.393,-0.17500000000000002,-0.985,0.248,14.73,-0.64,-46.09,0.6161,-0.7438,-0.1506,-0.21050000000000002,0.029,0.004,-0.067
2025-11-06 18:37:24.021,311.755,-0.044,-0.048,-0.404,-0.165,-0.969,0.23500000000000001,14.73,-0.64,-46.09,0.6164000000000001,-0.7437,-0.15130000000000002,-0.20980000000000001,0.021,-0.012,-0.055
2025-11-06 18:37:24.021,311.76,-0.07200000000000001,-0.058,-0.40800000000000003,-0.157,-0.9580000000000001,0.222,14.82,0.52,-46.53,0.6167,-0.7434000000000001,-0.1519,-0.2091,0.015,-0.023,-0.043000000000000003
2025-11-06 18:37:24.021,311.765,-0.099,-0.081,-0.40900000000000003,-0.151,-0.9500000000000001,0.203,14.82,0.52,-46.53,0.6172000000000001,-0.7431,-0.1525,-0.2084,0.011,-0.032,-0.024
2025-11-06 18:37:24.021,311.77,-0.112,-0.109,-0.40700000000000003,-0.14,-0.9480000000000001,0.184,15.370000000000001,-0.05,-45.74,0.6176,-0.7428,-0.1531,-0.2076,0.003,-0.035,-0.005
2025-11-06 18:37:24.021,311.775,-0.114,-0.154,-0.402,-0.129,-0.9460000000000001,0.164,15.370000000000001,-0.05,-45.74,0.6181,-0.7426,-0.15360000000000001,-0.2068,-0.006,-0.037,0.013000000000000001
2025-11-06 18:37:24.021,311.78,-0.107,-0.209,-0.398,-0.113,-0.9450000000000001,0.157,15.370000000000001,-0.05,-45.74,0.6186,-0.7424000000000001,-0.1539,-0.2058,-0.019,-0.038,0.02
2025-11-06 18:37:24.021,311.785,-0.10200000000000001,-0.234,-0.394,-0.105,-0.9400000000000001,0.156,15.11,-0.35000000000000003,-46.38,0.6191,-0.7421,-0.15430000000000002,-0.2048,-0.025,-0.043000000000000003,0.02
2025-11-06 18:37:24.021,311.79,-0.092,-0.243,-0.392,-0.1,-0.936,0.153,15.11,-0.35000000000000003,-46.38,0.6196,-0.742,-0.15460000000000002,-0.2038,-0.028,-0.048,0.022
2025-11-06 18:37:24.021,311.795,-0.084,-0.23600000000000002,-0.386,-0.095,-0.93,0.14300000000000002,15.6,0.08,-46.27,0.62,-0.7418,-0.1549,-0.2028,-0.031,-0.054,0.032
2025-11-06 18:37:24.021,311.8,-0.078,-0.231,-0.381,-0.095,-0.919,0.13,15.6,0.08,-46.27,0.6205,-0.7416,-0.1553,-0.2019,-0.029,-0.066,0.045
2025-11-06 18:37:24.021,311.805,-0.075,-0.233,-0.366,-0.109,-0.901,0.12,15.6,0.08,-46.27,0.6209,-0.7415,-0.15560000000000002,-0.20090000000000002,-0.013000000000000001,-0.084,0.054
2025-11-06 18:37:24.021,311.81,-0.075,-0.241,-0.34800000000000003,-0.123,-0.883,0.113,15.72,0.14,-46.71,0.6213000000000001,-0.7413000000000001,-0.1558,-0.2,0.002,-0.10300000000000001,0.06
2025-11-06 18:37:24.021,311.815,-0.077,-0.256,-0.335,-0.136,-0.872,0.105,15.72,0.14,-46.71,0.6217,-0.7412000000000001,-0.15610000000000002,-0.199,0.017,-0.114,0.068
2025-11-06 18:37:24.021,311.82,-0.079,-0.278,-0.325,-0.149,-0.867,0.10300000000000001,15.81,-0.05,-46.21,0.6221,-0.741,-0.1562,-0.198,0.031,-0.12,0.07
2025-11-06 18:37:24.021,311.825,-0.08,-0.297,-0.315,-0.16,-0.864,0.105,15.81,-0.05,-46.21,0.6226,-0.7409,-0.1563,-0.197,0.044,-0.123,0.067
2025-11-06 18:37:24.021,311.83,-0.08,-0.305,-0.309,-0.17200000000000001,-0.864,0.111,15.81,-0.05,-46.21,0.623,-0.7408,-0.1564,-0.196,0.058,-0.123,0.061
2025-11-06 18:37:24.021,311.835,-0.079,-0.305,-0.308,-0.184,-0.868,0.122,16.45,1.02,-46.97,0.6234000000000001,-0.7407,-0.1565,-0.195,0.07100000000000001,-0.11900000000000001,0.05
2025-11-06 18:37:24.021,311.84,-0.088,-0.295,-0.31,-0.186,-0.877,0.126,16.45,1.02,-46.97,0.6239,-0.7406,-0.15660000000000002,-0.194,0.075,-0.111,0.046
2025-11-06 18:37:24.021,311.845,-0.098,-0.281,-0.309,-0.186,-0.883,0.132,16.48,1.02,-46.44,0.6243000000000001,-0.7404000000000001,-0.1567,-0.19310000000000002,0.077,-0.10400000000000001,0.039
2025-11-06 18:37:24.021,311.85,-0.107,-0.268,-0.305,-0.181,-0.89,0.138,16.48,1.02,-46.44,0.6248,-0.7402000000000001,-0.1568,-0.1922,0.074,-0.098,0.033
2025-11-06 18:37:24.021,311.855,-0.11,-0.252,-0.297,-0.171,-0.894,0.139,16.48,1.02,-46.44,0.6252,-0.7401,-0.1569,-0.1913,0.066,-0.094,0.031
2025-11-06 18:37:24.021,311.86,-0.1,-0.242,-0.29,-0.154,-0.894,0.14100000000000001,16.19,0.9,-46.97,0.6257,-0.7399,-0.15710000000000002,-0.1904,0.051000000000000004,-0.094,0.029
2025-11-06 18:37:24.021,311.865,-0.091,-0.231,-0.28500000000000003,-0.131,-0.892,0.139,16.19,0.9,-46.97,0.6261,-0.7397,-0.1572,-0.18960000000000002,0.029,-0.096,0.031
2025-11-06 18:37:24.021,311.87,-0.067,-0.217,-0.279,-0.10200000000000001,-0.887,0.128,17.12,0.61,-47.0,0.6264000000000001,-0.7396,-0.1574,-0.1888,0.002,-0.101,0.041
2025-11-06 18:37:24.021,311.875,-0.058,-0.226,-0.276,-0.078,-0.888,0.11900000000000001,17.12,0.61,-47.0,0.6267,-0.7395,-0.1575,-0.188,-0.02,-0.1,0.05
2025-11-06 18:37:24.021,311.88,-0.059000000000000004,-0.24,-0.276,-0.056,-0.895,0.109,17.12,0.61,-47.0,0.6271,-0.7394000000000001,-0.1577,-0.18710000000000002,-0.041,-0.093,0.061
2025-11-06 18:37:24.021,311.885,-0.063,-0.255,-0.275,-0.031,-0.911,0.099,16.77,0.93,-46.59,0.6274000000000001,-0.7393000000000001,-0.1578,-0.18630000000000002,-0.064,-0.078,0.07
2025-11-06 18:37:24.021,311.89,-0.073,-0.275,-0.273,-0.01,-0.93,0.09,16.77,0.93,-46.59,0.6278,-0.7392000000000001,-0.1578,-0.1854,-0.082,-0.059000000000000004,0.08
2025-11-06 18:37:24.021,311.895,-0.084,-0.295,-0.265,0.009000000000000001,-0.963,0.07200000000000001,16.77,0.93,-46.59,0.6282,-0.7391000000000001,-0.1578,-0.1844,-0.1,-0.026000000000000002,0.098
2025-11-06 18:37:24.021,311.9,-0.109,-0.308,-0.249,0.022,-0.999,0.046,16.86,0.93,-47.32,0.6287,-0.7389,-0.1578,-0.1835,-0.112,0.008,0.125
2025-11-06 18:37:24.021,311.905,-0.116,-0.306,-0.234,0.05,-1.024,0.031,16.86,0.93,-47.32,0.6292,-0.7387,-0.1577,-0.1826,-0.138,0.033,0.14
2025-11-06 18:37:24.021,311.91,-0.124,-0.28,-0.221,0.055,-1.048,0.015,16.830000000000002,1.19,-47.550000000000004,0.6297,-0.7385,-0.1577,-0.18180000000000002,-0.14100000000000001,0.056,0.156
2025-11-06 18:37:24.024,311.915,-0.124,-0.259,-0.201,0.054,-1.065,0.008,16.830000000000002,1.19,-47.550000000000004,0.6301,-0.7384000000000001,-0.15760000000000002,-0.1811,-0.139,0.074,0.163
2025-11-06 18:37:24.024,311.92,-0.11900000000000001,-0.234,-0.177,0.044,-1.073,0.012,16.830000000000002,1.19,-47.5,0.6305000000000001,-0.7382000000000001,-0.1575,-0.1804,-0.128,0.081,0.158
2025-11-06 18:37:24.024,311.925,-0.113,-0.193,-0.145,0.022,-1.088,0.028,16.740000000000002,0.43,-47.5,0.6309,-0.738,-0.1575,-0.1799,-0.105,0.096,0.14200000000000002
2025-11-06 18:37:24.024,311.93,-0.105,-0.159,-0.122,-0.005,-1.091,0.042,16.740000000000002,0.43,-47.5,0.6312,-0.7379,-0.1574,-0.1794,-0.076,0.099,0.127
2025-11-06 18:37:24.024,311.935,-0.085,-0.13,-0.10200000000000001,-0.037,-1.095,0.057,17.150000000000002,1.05,-47.93,0.6314000000000001,-0.7378,-0.1574,-0.1791,-0.043000000000000003,0.10300000000000001,0.112
2025-11-06 18:37:24.024,311.94,-0.061,-0.10200000000000001,-0.085,-0.069,-1.098,0.077,17.150000000000002,1.05,-47.93,0.6316,-0.7377,-0.1573,-0.17880000000000001,-0.011,0.106,0.091
2025-11-06 18:37:24.024,311.945,-0.036000000000000004,-0.079,-0.069,-0.1,-1.097,0.10300000000000001,17.150000000000002,1.05,-47.93,0.6318,-0.7376,-0.1573,-0.17850000000000002,0.019,0.106,0.065
2025-11-06 18:37:24.024,311.95,-0.01,-0.052000000000000005,-0.047,-0.14400000000000002,-1.107,0.159,17.39,1.34,-47.550000000000004,0.6318,-0.7376,-0.1573,-0.1784,0.064,0.116,0.009000000000000001
2025-11-06 18:37:24.024,312.005,0.034,-0.124,-0.057,-0.099,-1.03,0.17,16.66,0.73,-47.44,0.6307,-0.7385,-0.1572,-0.1791,0.016,0.04,0.0
2025-11-06 18:37:24.024,312.01,0.007,-0.14400000000000002,-0.092,-0.07100000000000001,-1.04,0.154,17.07,0.93,-47.32,0.6307,-0.7385,-0.15710000000000002,-0.1787,-0.011,0.05,0.015
2025-11-06 18:37:24.025,312.015,-0.019,-0.156,-0.124,-0.046,-1.044,0.14100000000000001,17.07,0.93,-47.32,0.6309,-0.7385,-0.15710000000000002,-0.1782,-0.035,0.054,0.029
2025-11-06 18:37:24.025,312.02,-0.059000000000000004,-0.16,-0.161,-0.015,-1.051,0.124,17.07,0.93,-47.32,0.6311,-0.7384000000000001,-0.1572,-0.1777,-0.064,0.061,0.045
2025-11-06 18:37:24.025,312.025,-0.081,-0.146,-0.176,0.002,-1.048,0.106,17.97,1.22,-46.97,0.6314000000000001,-0.7382000000000001,-0.1572,-0.1772,-0.081,0.057,0.063
2025-11-06 18:37:24.025,312.03,-0.107,-0.13,-0.182,0.015,-1.041,0.085,17.97,1.22,-46.97,0.6318,-0.738,-0.1573,-0.1767,-0.094,0.05,0.084
2025-11-06 18:37:24.025,312.035,-0.127,-0.116,-0.177,0.022,-1.033,0.061,17.39,1.34,-48.02,0.6322,-0.7378,-0.1574,-0.1762,-0.1,0.042,0.107
2025-11-06 18:37:24.025,312.04,-0.138,-0.115,-0.162,0.023,-1.0230000000000001,0.034,17.39,1.34,-48.02,0.6326,-0.7375,-0.1575,-0.1758,-0.1,0.031,0.133
2025-11-06 18:37:24.025,312.045,-0.136,-0.135,-0.145,0.019,-1.014,0.022,17.39,1.34,-48.02,0.633,-0.7373000000000001,-0.1575,-0.1754,-0.095,0.021,0.14400000000000002
2025-11-06 18:37:24.025,312.05,-0.124,-0.17500000000000002,-0.12,0.011,-1.0050000000000001,0.022,18.67,0.96,-47.79,0.6335000000000001,-0.737,-0.1575,-0.1749,-0.08600000000000001,0.011,0.14300000000000002
2025-11-06 18:37:24.025,312.055,-0.11,-0.20600000000000002,-0.10200000000000001,-0.001,-1.0010000000000001,0.034,18.67,0.96,-47.79,0.6339,-0.7368,-0.1573,-0.1744,-0.07200000000000001,0.008,0.13
2025-11-06 18:37:24.025,312.06,-0.1,-0.231,-0.08,-0.014,-1.0030000000000001,0.05,17.56,0.64,-48.17,0.6342,-0.7367,-0.15710000000000002,-0.1739,-0.058,0.01,0.114
2025-11-06 18:37:24.025,312.065,-0.089,-0.23700000000000002,-0.058,-0.028,-1.006,0.062,17.56,0.64,-48.17,0.6346,-0.7365,-0.1568,-0.1734,-0.044,0.013000000000000001,0.101
2025-11-06 18:37:24.026,312.07,-0.073,-0.23900000000000002,-0.034,-0.053,-1.0030000000000001,0.082,17.56,0.64,-48.17,0.6349,-0.7365,-0.1565,-0.1729,-0.019,0.01,0.08
2025-11-06 18:37:24.026,312.075,-0.064,-0.23800000000000002,-0.012,-0.079,-1.0030000000000001,0.095,17.5,0.35000000000000003,-47.79,0.6352,-0.7364,-0.15610000000000002,-0.17250000000000001,0.006,0.011,0.067
2025-11-06 18:37:24.026,312.08,-0.058,-0.23900000000000002,0.001,-0.097,-0.999,0.105,17.5,0.35000000000000003,-47.79,0.6354000000000001,-0.7364,-0.1557,-0.1721,0.025,0.006,0.056
2025-11-06 18:37:24.026,312.085,-0.056,-0.24,0.013000000000000001,-0.112,-0.993,0.112,17.56,1.46,-48.08,0.6356,-0.7364,-0.1552,-0.17170000000000002,0.039,0.0,0.048
2025-11-06 18:37:24.026,312.09,-0.055,-0.23800000000000002,0.021,-0.125,-0.987,0.11800000000000001,17.56,1.46,-48.08,0.6358,-0.7364,-0.15480000000000002,-0.1714,0.052000000000000005,-0.005,0.042
2025-11-06 18:37:24.026,312.095,-0.064,-0.23,0.024,-0.136,-0.98,0.11900000000000001,17.56,1.46,-48.08,0.636,-0.7364,-0.15430000000000002,-0.1711,0.063,-0.012,0.041
2025-11-06 18:37:24.026,312.1,-0.084,-0.221,0.022,-0.145,-0.972,0.111,17.330000000000002,0.93,-47.88,0.6363,-0.7363000000000001,-0.1539,-0.17070000000000002,0.07200000000000001,-0.02,0.048
2025-11-06 18:37:24.026,312.105,-0.107,-0.22,0.014,-0.146,-0.965,0.097,17.330000000000002,0.93,-47.88,0.6366,-0.7362000000000001,-0.1535,-0.1704,0.073,-0.028,0.061
2025-11-06 18:37:24.026,312.11,-0.125,-0.227,0.003,-0.147,-0.96,0.083,17.330000000000002,0.9,-48.550000000000004,0.6369,-0.7361000000000001,-0.153,-0.1701,0.074,-0.033,0.075
2025-11-06 18:37:24.026,312.115,-0.14300000000000002,-0.231,-0.01,-0.147,-0.9570000000000001,0.074,17.330000000000002,0.9,-48.550000000000004,0.6373,-0.736,-0.1526,-0.16970000000000002,0.075,-0.036000000000000004,0.084
2025-11-06 18:37:24.026,312.12,-0.159,-0.23500000000000001,-0.027,-0.15,-0.9540000000000001,0.07200000000000001,17.330000000000002,0.9,-48.550000000000004,0.6377,-0.7358,-0.15230000000000002,-0.1693,0.077,-0.039,0.084
2025-11-06 18:37:24.026,312.125,-0.176,-0.226,-0.044,-0.149,-0.9590000000000001,0.07,17.150000000000002,1.25,-48.43,0.6381,-0.7356,-0.1519,-0.1689,0.077,-0.035,0.08600000000000001
2025-11-06 18:37:24.026,312.13,-0.193,-0.20500000000000002,-0.063,-0.14300000000000002,-0.974,0.063,17.150000000000002,1.25,-48.43,0.6386000000000001,-0.7353000000000001,-0.1516,-0.1685,0.07200000000000001,-0.02,0.092
2025-11-06 18:37:24.026,312.135,-0.215,-0.18,-0.077,-0.14300000000000002,-0.989,0.062,18.64,1.31,-48.230000000000004,0.6391,-0.7349,-0.1514,-0.16820000000000002,0.07200000000000001,-0.006,0.093
2025-11-06 18:37:24.026,312.14,-0.234,-0.152,-0.084,-0.147,-1.002,0.064,18.64,1.31,-48.230000000000004,0.6397,-0.7346,-0.1512,-0.16790000000000002,0.077,0.007,0.09
2025-11-06 18:37:24.026,312.145,-0.251,-0.126,-0.08700000000000001,-0.151,-1.0130000000000001,0.066,18.64,1.31,-48.230000000000004,0.6403,-0.7342000000000001,-0.151,-0.1676,0.081,0.018000000000000002,0.08600000000000001
2025-11-06 18:37:24.026,312.15,-0.267,-0.095,-0.081,-0.148,-1.0210000000000001,0.062,18.44,0.76,-48.02,0.6408,-0.7337,-0.1509,-0.16740000000000002,0.079,0.025,0.089
2025-11-06 18:37:24.026,312.155,-0.274,-0.055,-0.07200000000000001,-0.145,-1.0230000000000001,0.053,18.44,0.76,-48.02,0.6414000000000001,-0.7332000000000001,-0.15080000000000002,-0.16740000000000002,0.076,0.027,0.096
2025-11-06 18:37:24.026,312.16,-0.278,-0.028,-0.058,-0.145,-1.0170000000000001,0.049,18.44,0.76,-48.02,0.642,-0.7328,-0.15080000000000002,-0.1673,0.077,0.021,0.099
2025-11-06 18:37:24.026,312.165,-0.278,0.024,-0.021,-0.14200000000000002,-1.0010000000000001,0.048,17.62,1.4000000000000001,-48.050000000000004,0.6426000000000001,-0.7322000000000001,-0.1507,-0.1675,0.074,0.005,0.099
2025-11-06 18:37:24.026,312.17,-0.272,0.05,0.004,-0.133,-0.986,0.045,17.62,1.4000000000000001,-48.050000000000004,0.6431,-0.7317,-0.1506,-0.1678,0.064,-0.01,0.099
2025-11-06 18:37:24.026,312.175,-0.265,0.067,0.032,-0.124,-0.972,0.045,17.68,1.05,-48.64,0.6435000000000001,-0.7313000000000001,-0.1506,-0.1681,0.055,-0.024,0.098
2025-11-06 18:37:24.026,312.18,-0.263,0.07,0.061,-0.122,-0.96,0.05,17.68,1.05,-48.64,0.644,-0.7308,-0.1504,-0.16840000000000002,0.052000000000000005,-0.036000000000000004,0.091
2025-11-06 18:37:24.026,312.185,-0.262,0.066,0.088,-0.117,-0.9510000000000001,0.06,17.36,1.05,-48.93,0.6444000000000001,-0.7304,-0.15030000000000002,-0.1688,0.047,-0.044,0.079
2025-11-06 18:37:24.026,312.19,-0.262,0.063,0.12,-0.106,-0.9530000000000001,0.074,17.36,1.22,-48.93,0.6448,-0.73,-0.15,-0.16920000000000002,0.036000000000000004,-0.043000000000000003,0.064
2025-11-06 18:37:24.026,312.195,-0.271,0.051000000000000004,0.145,-0.093,-0.9580000000000001,0.081,17.36,1.22,-48.93,0.6453,-0.7296,-0.1497,-0.1696,0.022,-0.038,0.056
2025-11-06 18:37:24.026,312.2,-0.271,0.043000000000000003,0.159,-0.081,-0.968,0.082,17.1,0.67,-48.69,0.6457,-0.7292000000000001,-0.1494,-0.1701,0.009000000000000001,-0.027,0.054
2025-11-06 18:37:24.026,312.205,-0.266,0.043000000000000003,0.169,-0.07200000000000001,-0.98,0.084,17.1,0.67,-48.69,0.6461,-0.7288,-0.149,-0.1705,0.0,-0.016,0.051000000000000004
2025-11-06 18:37:24.026,312.21,-0.262,0.04,0.176,-0.064,-0.991,0.08700000000000001,17.1,0.67,-48.69,0.6465000000000001,-0.7284,-0.1486,-0.171,-0.009000000000000001,-0.004,0.047
2025-11-06 18:37:24.026,312.215,-0.262,0.041,0.179,-0.049,-1.004,0.08600000000000001,16.98,1.02,-49.13,0.6469,-0.728,-0.1482,-0.1714,-0.024,0.008,0.047
2025-11-06 18:37:24.026,312.24,-0.392,0.059000000000000004,0.154,0.008,-1.073,0.073,17.21,0.93,-49.19,0.6497,-0.7253000000000001,-0.1464,-0.1739,-0.085,0.076,0.053
2025-11-06 18:37:24.026,312.245,-0.41000000000000003,0.054,0.153,0.012,-1.079,0.061,17.21,0.93,-49.19,0.6503,-0.7247,-0.14600000000000002,-0.1744,-0.091,0.082,0.063
2025-11-06 18:37:24.026,312.25,-0.422,0.043000000000000003,0.16,0.013000000000000001,-1.09,0.053,17.330000000000002,0.61,-49.31,0.651,-0.7240000000000001,-0.1456,-0.1749,-0.092,0.093,0.069
2025-11-06 18:37:24.026,312.255,-0.431,0.041,0.165,0.017,-1.1,0.048,17.330000000000002,0.61,-49.31,0.6517000000000001,-0.7233,-0.1452,-0.1754,-0.097,0.10300000000000001,0.07200000000000001
2025-11-06 18:37:24.026,312.26,-0.436,0.034,0.178,0.016,-1.11,0.046,17.330000000000002,0.61,-49.31,0.6525000000000001,-0.7227,-0.1447,-0.1759,-0.096,0.112,0.07200000000000001
2025-11-06 18:37:24.026,312.265,-0.441,0.038,0.189,0.018000000000000002,-1.115,0.039,17.1,0.05,-49.160000000000004,0.6532,-0.7220000000000001,-0.1442,-0.1764,-0.099,0.117,0.077
2025-11-06 18:37:24.026,312.27,-0.441,0.037,0.203,0.017,-1.12,0.033,17.1,0.05,-49.160000000000004,0.6539,-0.7213,-0.1437,-0.17700000000000002,-0.1,0.122,0.081
2025-11-06 18:37:24.026,312.275,-0.433,0.035,0.213,0.01,-1.12,0.035,17.97,-0.11,-49.69,0.6546000000000001,-0.7206,-0.1432,-0.1776,-0.094,0.122,0.076
2025-11-06 18:37:24.026,312.28,-0.41300000000000003,0.014,0.224,0.002,-1.117,0.047,17.97,-0.11,-49.69,0.6553,-0.7200000000000001,-0.1426,-0.1781,-0.08600000000000001,0.11800000000000001,0.062
2025-11-06 18:37:24.026,312.285,-0.405,-0.002,0.228,-0.015,-1.119,0.061,17.97,-0.11,-49.69,0.6559,-0.7194,-0.14200000000000002,-0.1786,-0.07,0.121,0.047
2025-11-06 18:37:24.026,312.29,-0.392,-0.033,0.233,-0.027,-1.129,0.079,16.95,-1.34,-49.6,0.6565000000000001,-0.7189,-0.1413,-0.1791,-0.059000000000000004,0.131,0.026000000000000002
2025-11-06 18:37:24.026,312.295,-0.382,-0.053,0.23500000000000001,-0.029,-1.129,0.091,16.95,-1.34,-49.6,0.6571,-0.7183,-0.1406,-0.17950000000000002,-0.058,0.131,0.013000000000000001
2025-11-06 18:37:24.026,312.3,-0.376,-0.07200000000000001,0.234,-0.034,-1.131,0.10300000000000001,16.98,-0.32,-49.75,0.6578,-0.7178,-0.1399,-0.1799,-0.054,0.134,0.0
2025-11-06 18:37:24.026,312.305,-0.376,-0.078,0.23,-0.046,-1.127,0.117,16.98,-0.32,-49.75,0.6584,-0.7173,-0.13920000000000002,-0.18030000000000002,-0.044,0.13,-0.017
2025-11-06 18:37:24.027,312.31,-0.384,-0.075,0.22,-0.053,-1.119,0.131,16.98,-0.32,-49.75,0.659,-0.7167,-0.1385,-0.1806,-0.038,0.121,-0.033
2025-11-06 18:37:24.027,312.315,-0.387,-0.058,0.202,-0.059000000000000004,-1.104,0.147,17.240000000000002,-1.31,-50.68,0.6597000000000001,-0.7162000000000001,-0.1379,-0.18100000000000002,-0.033,0.107,-0.051000000000000004
2025-11-06 18:37:24.027,312.32,-0.386,-0.049,0.188,-0.063,-1.091,0.159,17.240000000000002,-1.31,-50.68,0.6603,-0.7156,-0.1373,-0.1814,-0.03,0.094,-0.065
2025-11-06 18:37:24.027,312.325,-0.387,-0.047,0.171,-0.073,-1.075,0.167,17.1,-1.43,-50.92,0.6609,-0.7150000000000001,-0.13670000000000002,-0.1817,-0.021,0.078,-0.076
2025-11-06 18:37:24.027,312.33,-0.389,-0.036000000000000004,0.154,-0.073,-1.056,0.171,17.1,-1.43,-50.92,0.6616000000000001,-0.7145,-0.13620000000000002,-0.182,-0.022,0.059000000000000004,-0.082
2025-11-06 18:37:24.027,312.335,-0.398,-0.032,0.13,-0.07100000000000001,-1.032,0.166,17.1,-1.43,-50.92,0.6623,-0.7138,-0.13570000000000002,-0.18230000000000002,-0.025,0.035,-0.08
2025-11-06 18:37:24.027,312.34,-0.405,-0.028,0.115,-0.067,-1.01,0.157,16.66,-0.38,-50.74,0.663,-0.7132000000000001,-0.1353,-0.1826,-0.03,0.013000000000000001,-0.073
2025-11-06 18:37:24.027,312.345,-0.40900000000000003,-0.021,0.10400000000000001,-0.058,-0.977,0.136,16.66,-0.38,-50.74,0.6637000000000001,-0.7126,-0.13490000000000002,-0.18280000000000002,-0.04,-0.02,-0.055
2025-11-06 18:37:24.027,312.35,-0.405,-0.023,0.096,-0.052000000000000005,-0.9500000000000001,0.11800000000000001,16.63,0.2,-50.89,0.6644,-0.7119000000000001,-0.1345,-0.1831,-0.046,-0.048,-0.039
2025-11-06 18:37:24.027,312.355,-0.394,-0.032,0.098,-0.046,-0.921,0.1,16.63,0.2,-50.89,0.6651,-0.7113,-0.1341,-0.18330000000000002,-0.053,-0.076,-0.024
2025-11-06 18:37:24.027,312.36,-0.381,-0.05,0.101,-0.039,-0.895,0.085,16.63,0.2,-50.89,0.6657000000000001,-0.7107,-0.1336,-0.1836,-0.06,-0.10200000000000001,-0.012
2025-11-06 18:37:24.027,312.365,-0.362,-0.07100000000000001,0.11,-0.032,-0.87,0.065,16.22,0.55,-51.300000000000004,0.6664,-0.7102,-0.1331,-0.1837,-0.068,-0.128,0.005
2025-11-06 18:37:24.027,312.37,-0.34500000000000003,-0.11,0.117,-0.017,-0.851,0.057,16.22,0.55,-51.300000000000004,0.667,-0.7097,-0.1326,-0.18380000000000002,-0.084,-0.148,0.011
2025-11-06 18:37:24.027,312.375,-0.323,-0.126,0.11800000000000001,-0.007,-0.839,0.046,15.98,0.9,-51.47,0.6675,-0.7092,-0.132,-0.1839,-0.095,-0.159,0.02
2025-11-06 18:37:24.027,312.38,-0.302,-0.134,0.12,-0.002,-0.839,0.038,15.98,0.9,-51.47,0.6681,-0.7088,-0.13140000000000002,-0.184,-0.1,-0.16,0.026000000000000002
2025-11-06 18:37:24.027,312.385,-0.273,-0.132,0.122,0.004,-0.835,0.042,15.98,0.9,-51.47,0.6686000000000001,-0.7084,-0.13090000000000002,-0.1841,-0.108,-0.163,0.021
2025-11-06 18:37:24.027,312.39,-0.243,-0.129,0.123,0.001,-0.843,0.047,15.780000000000001,0.32,-50.83,0.669,-0.7081000000000001,-0.1303,-0.1841,-0.105,-0.155,0.015
2025-11-06 18:37:24.027,312.395,-0.21,-0.124,0.126,0.006,-0.856,0.062,15.780000000000001,0.32,-50.83,0.6694,-0.7078,-0.1298,-0.1842,-0.11,-0.14200000000000002,0.0
2025-11-06 18:37:24.027,312.4,-0.185,-0.126,0.128,0.004,-0.877,0.066,16.13,0.73,-51.27,0.6697000000000001,-0.7076,-0.1293,-0.1842,-0.109,-0.121,-0.004
2025-11-06 18:37:24.027,312.405,-0.17200000000000001,-0.12,0.129,0.002,-0.898,0.077,16.13,0.73,-51.27,0.67,-0.7074,-0.1287,-0.18430000000000002,-0.108,-0.1,-0.016
2025-11-06 18:37:24.027,312.41,-0.169,-0.108,0.132,-0.004,-0.917,0.096,16.13,0.73,-51.27,0.6703,-0.7072,-0.1283,-0.18430000000000002,-0.101,-0.08,-0.035
2025-11-06 18:37:24.027,312.415,-0.162,-0.095,0.133,-0.015,-0.932,0.116,16.77,0.38,-51.15,0.6705,-0.7070000000000001,-0.1278,-0.1845,-0.09,-0.065,-0.056
2025-11-06 18:37:24.027,312.42,-0.158,-0.08600000000000001,0.137,-0.026000000000000002,-0.9520000000000001,0.133,16.77,0.38,-51.15,0.6708000000000001,-0.7068,-0.1273,-0.18460000000000001,-0.08,-0.045,-0.07200000000000001
2025-11-06 18:37:24.027,312.425,-0.149,-0.082,0.14400000000000002,-0.041,-0.98,0.153,15.84,0.64,-51.59,0.671,-0.7067,-0.1269,-0.1847,-0.065,-0.017,-0.093
2025-11-06 18:37:24.027,312.43,-0.14100000000000001,-0.082,0.15,-0.051000000000000004,-0.991,0.159,15.84,0.64,-51.59,0.6712,-0.7066,-0.1264,-0.18480000000000002,-0.056,-0.005,-0.099
2025-11-06 18:37:24.027,312.435,-0.136,-0.09,0.156,-0.06,-1.002,0.167,15.84,0.64,-51.59,0.6713,-0.7065,-0.126,-0.1849,-0.048,0.005,-0.108
2025-11-06 18:37:24.027,312.44,-0.129,-0.101,0.161,-0.07200000000000001,-1.0110000000000001,0.17400000000000002,16.01,0.61,-51.97,0.6715,-0.7063,-0.1254,-0.185,-0.036000000000000004,0.014,-0.115
2025-11-06 18:37:24.027,312.445,-0.123,-0.117,0.169,-0.075,-1.018,0.179,16.01,0.61,-51.97,0.6717000000000001,-0.7063,-0.12490000000000001,-0.18510000000000001,-0.034,0.021,-0.12
2025-11-06 18:37:24.027,312.45,-0.114,-0.137,0.177,-0.079,-1.02,0.178,16.36,-1.08,-51.88,0.6719,-0.7062,-0.12430000000000001,-0.1852,-0.031,0.024,-0.12
2025-11-06 18:37:24.027,312.455,-0.10200000000000001,-0.148,0.186,-0.083,-1.022,0.166,16.36,-1.08,-51.88,0.672,-0.7061000000000001,-0.1237,-0.18530000000000002,-0.028,0.025,-0.108
2025-11-06 18:37:24.027,312.46,-0.058,-0.159,0.2,-0.083,-1.0190000000000001,0.157,16.36,-1.08,-51.88,0.672,-0.7062,-0.12300000000000001,-0.18530000000000002,-0.029,0.022,-0.1
2025-11-06 18:37:24.027,312.465,-0.036000000000000004,-0.16,0.211,-0.083,-1.014,0.146,15.55,0.81,-52.52,0.6721,-0.7063,-0.12240000000000001,-0.1854,-0.03,0.016,-0.089
2025-11-06 18:37:24.027,312.47,-0.017,-0.165,0.22,-0.083,-1.0110000000000001,0.135,15.55,0.81,-52.52,0.672,-0.7064,-0.1217,-0.1854,-0.031,0.014,-0.078
2025-11-06 18:37:24.027,312.475,0.001,-0.162,0.231,-0.084,-1.004,0.122,15.55,0.81,-52.52,0.6719,-0.7066,-0.12100000000000001,-0.1855,-0.031,0.007,-0.065
2025-11-06 18:37:24.027,312.48,0.024,-0.159,0.241,-0.083,-0.998,0.108,15.52,0.02,-51.5,0.6718000000000001,-0.7068,-0.12040000000000001,-0.18560000000000001,-0.034,0.001,-0.051000000000000004
2025-11-06 18:37:24.027,312.485,0.04,-0.15,0.257,-0.085,-0.984,0.094,15.52,0.02,-51.5,0.6717000000000001,-0.7070000000000001,-0.1197,-0.1857,-0.032,-0.013000000000000001,-0.037
2025-11-06 18:37:24.027,312.49,0.083,-0.132,0.27,-0.08600000000000001,-0.97,0.084,16.830000000000002,0.43,-51.71,0.6714,-0.7073,-0.11900000000000001,-0.1859,-0.033,-0.027,-0.027
2025-11-06 18:37:24.027,312.495,0.108,-0.124,0.28,-0.08700000000000001,-0.961,0.082,16.830000000000002,0.43,-51.71,0.6711,-0.7076,-0.1184,-0.18610000000000002,-0.034,-0.035,-0.024
2025-11-06 18:37:24.027,312.5,0.136,-0.123,0.28800000000000003,-0.091,-0.9520000000000001,0.08600000000000001,16.830000000000002,0.43,-51.71,0.6708000000000001,-0.7080000000000001,-0.1177,-0.18630000000000002,-0.031,-0.045,-0.028
2025-11-06 18:37:24.027,312.505,0.166,-0.126,0.294,-0.098,-0.9510000000000001,0.093,15.93,0.32,-51.15,0.6704,-0.7085,-0.117,-0.1865,-0.026000000000000002,-0.045,-0.034
2025-11-06 18:37:24.027,312.51,0.196,-0.122,0.304,-0.101,-0.9480000000000001,0.105,15.93,0.32,-51.15,0.6699,-0.7089000000000001,-0.1164,-0.1867,-0.023,-0.048,-0.045
2025-11-06 18:37:24.027,312.515,0.232,-0.122,0.311,-0.114,-0.9480000000000001,0.11800000000000001,15.46,-0.17,-51.85,0.6694,-0.7095,-0.11570000000000001,-0.187,-0.013000000000000001,-0.047,-0.057
2025-11-06 18:37:24.027,312.52,0.255,-0.121,0.318,-0.121,-0.9530000000000001,0.125,15.46,-0.17,-51.85,0.6688000000000001,-0.7101000000000001,-0.11510000000000001,-0.1872,-0.007,-0.042,-0.062
2025-11-06 18:37:24.027,312.525,0.28,-0.11900000000000001,0.32,-0.129,-0.962,0.131,15.46,-0.17,-51.85,0.6682,-0.7107,-0.1144,-0.1874,0.0,-0.033,-0.067
2025-11-06 18:37:24.027,312.53,0.309,-0.116,0.323,-0.138,-0.972,0.136,15.02,-0.08,-52.11,0.6675,-0.7114,-0.11380000000000001,-0.18760000000000002,0.007,-0.023,-0.07
2025-11-06 18:37:24.027,312.535,0.335,-0.109,0.324,-0.146,-0.982,0.14300000000000002,15.02,-0.08,-52.11,0.6667000000000001,-0.7122,-0.11320000000000001,-0.1879,0.012,-0.012,-0.075
2025-11-06 18:37:24.027,312.54,0.356,-0.10200000000000001,0.325,-0.16,-0.992,0.148,15.22,-0.81,-51.79,0.6659,-0.7129000000000001,-0.1126,-0.18810000000000002,0.025,-0.002,-0.077
2025-11-06 18:37:24.028,312.545,0.373,-0.09,0.327,-0.169,-1.006,0.148,15.22,-0.81,-51.79,0.6651,-0.7137,-0.112,-0.1884,0.032,0.011,-0.075
2025-11-06 18:37:24.028,312.55,0.374,-0.08,0.327,-0.176,-1.012,0.146,15.22,-0.81,-51.79,0.6643,-0.7145,-0.1115,-0.18860000000000002,0.038,0.018000000000000002,-0.07200000000000001
2025-11-06 18:37:24.028,312.555,0.368,-0.069,0.327,-0.182,-1.02,0.14200000000000002,14.9,-0.99,-52.11,0.6635,-0.7153,-0.1109,-0.1889,0.043000000000000003,0.025,-0.065
2025-11-06 18:37:24.028,312.56,0.36,-0.058,0.326,-0.185,-1.024,0.137,14.9,-0.99,-52.11,0.6627000000000001,-0.7160000000000001,-0.11040000000000001,-0.1892,0.044,0.03,-0.059000000000000004
2025-11-06 18:37:24.028,312.565,0.353,-0.049,0.324,-0.188,-1.026,0.134,14.49,-1.02,-51.410000000000004,0.6619,-0.7167,-0.10990000000000001,-0.18960000000000002,0.045,0.032,-0.053
2025-11-06 18:37:24.028,312.57,0.343,-0.046,0.325,-0.186,-1.022,0.132,14.49,-1.02,-51.410000000000004,0.6611,-0.7174,-0.10940000000000001,-0.1899,0.042,0.028,-0.05
2025-11-06 18:37:24.028,312.575,0.321,-0.054,0.324,-0.179,-1.014,0.13,14.49,-1.02,-51.410000000000004,0.6604,-0.7181000000000001,-0.10890000000000001,-0.1903,0.033,0.021,-0.047
2025-11-06 18:37:24.028,312.58,0.305,-0.064,0.326,-0.171,-1.008,0.128,14.200000000000001,-0.84,-51.03,0.6597000000000001,-0.7188,-0.10830000000000001,-0.19060000000000002,0.023,0.015,-0.042
2025-11-06 18:37:24.028,312.585,0.28800000000000003,-0.075,0.329,-0.159,-1.0,0.11900000000000001,14.200000000000001,-0.84,-51.03,0.659,-0.7194,-0.1077,-0.19090000000000001,0.01,0.007,-0.033
2025-11-06 18:37:24.028,312.59,0.278,-0.076,0.333,-0.147,-0.989,0.109,14.23,-1.22,-51.15,0.6583,-0.7200000000000001,-0.1071,-0.1912,-0.003,-0.003,-0.021
2025-11-06 18:37:24.028,312.595,0.272,-0.081,0.336,-0.136,-0.978,0.099,14.23,-1.22,-51.15,0.6577000000000001,-0.7206,-0.10650000000000001,-0.1915,-0.015,-0.014,-0.01
2025-11-06 18:37:24.028,312.6,0.268,-0.09,0.339,-0.11900000000000001,-0.967,0.083,14.23,-1.22,-51.15,0.6571,-0.7212000000000001,-0.10590000000000001,-0.1918,-0.034,-0.024,0.006
2025-11-06 18:37:24.028,312.605,0.272,-0.096,0.343,-0.108,-0.96,0.07100000000000001,14.06,-1.87,-51.18,0.6564,-0.7218,-0.1052,-0.19210000000000002,-0.047,-0.031,0.02
2025-11-06 18:37:24.028,312.61,0.279,-0.11,0.35100000000000003,-0.095,-0.9530000000000001,0.059000000000000004,14.06,-1.87,-51.18,0.6558,-0.7224,-0.10450000000000001,-0.19240000000000002,-0.061,-0.038,0.033
2025-11-06 18:37:24.028,312.615,0.28500000000000003,-0.131,0.355,-0.088,-0.9490000000000001,0.047,14.0,-1.08,-51.03,0.6551,-0.7230000000000001,-0.1038,-0.19260000000000002,-0.07,-0.042,0.047
2025-11-06 18:37:24.028,312.62,0.291,-0.153,0.358,-0.083,-0.9450000000000001,0.037,14.0,-1.08,-51.03,0.6544,-0.7237,-0.10300000000000001,-0.19290000000000002,-0.077,-0.046,0.058
2025-11-06 18:37:24.028,312.625,0.297,-0.171,0.36,-0.08,-0.9420000000000001,0.032,14.0,-1.08,-51.03,0.6538,-0.7244,-0.1022,-0.193,-0.081,-0.048,0.065
2025-11-06 18:37:24.028,312.63,0.303,-0.185,0.362,-0.083,-0.9410000000000001,0.027,14.0,-1.81,-50.51,0.6531,-0.7251000000000001,-0.1014,-0.1932,-0.081,-0.049,0.07100000000000001
2025-11-06 18:37:24.028,312.635,0.306,-0.196,0.366,-0.08700000000000001,-0.9400000000000001,0.027,14.0,-1.81,-50.51,0.6524,-0.7258,-0.10060000000000001,-0.1933,-0.078,-0.05,0.073
2025-11-06 18:37:24.028,312.64,0.316,-0.203,0.37,-0.095,-0.9410000000000001,0.025,14.0,-1.54,-50.45,0.6517000000000001,-0.7265,-0.09970000000000001,-0.1935,-0.07100000000000001,-0.049,0.077
2025-11-06 18:37:24.028,312.645,0.324,-0.209,0.374,-0.10300000000000001,-0.9430000000000001,0.028,14.0,-1.54,-50.45,0.6509,-0.7272000000000001,-0.0988,-0.19360000000000002,-0.066,-0.046,0.076
2025-11-06 18:37:24.028,312.65,0.337,-0.216,0.376,-0.113,-0.9450000000000001,0.032,14.0,-1.54,-50.45,0.6502,-0.728,-0.098,-0.1937,-0.057,-0.044,0.073
2025-11-06 18:37:24.031,312.655,0.34600000000000003,-0.232,0.38,-0.123,-0.9510000000000001,0.038,13.32,-1.81,-50.57,0.6494,-0.7288,-0.0971,-0.1938,-0.049,-0.037,0.069
2025-11-06 18:37:24.031,312.66,0.361,-0.245,0.385,-0.138,-0.9570000000000001,0.046,13.32,-1.81,-50.57,0.6486000000000001,-0.7296,-0.0961,-0.19390000000000002,-0.036000000000000004,-0.031,0.063
2025-11-06 18:37:24.031,312.665,0.381,-0.26,0.387,-0.152,-0.961,0.051000000000000004,13.15,-1.78,-50.77,0.6478,-0.7304,-0.0952,-0.19390000000000002,-0.024,-0.026000000000000002,0.061
2025-11-06 18:37:24.031,312.67,0.397,-0.267,0.387,-0.163,-0.965,0.056,13.15,-1.78,-50.77,0.6469,-0.7313000000000001,-0.0942,-0.19390000000000002,-0.015,-0.022,0.058
2025-11-06 18:37:24.031,312.675,0.41600000000000004,-0.265,0.388,-0.17500000000000002,-0.969,0.063,13.15,-1.78,-50.77,0.646,-0.7322000000000001,-0.09330000000000001,-0.19390000000000002,-0.004,-0.018000000000000002,0.053
2025-11-06 18:37:24.031,312.68,0.435,-0.259,0.39,-0.186,-0.975,0.07100000000000001,13.3,-3.3000000000000003,-50.65,0.6451,-0.7332000000000001,-0.09240000000000001,-0.194,0.004,-0.011,0.048
2025-11-06 18:37:24.031,312.685,0.45,-0.253,0.388,-0.197,-0.977,0.082,13.3,-3.3000000000000003,-50.65,0.6441,-0.7341000000000001,-0.0915,-0.194,0.013000000000000001,-0.008,0.04
