System_Time,Timestamp,Gyro_X,Gyro_Y,Gyro_Z,Acc_X,Acc_Y,Acc_Z,Mag_X,Mag_Y,Mag_Z,Quat_W,Quat_X,Quat_Y,Quat_Z,Linear_Acc_X,Linear_Acc_Y,Linear_Acc_Z
2025-11-06 18:37:24.010,295.3,-0.004,0.002,-0.006,-0.121,-0.9560000000000001,-0.232,25.72,-20.05,-77.60000000000001,-0.7854,0.6147,-0.0693,0.0172,-0.001,-0.007,-0.003
2025-11-06 18:37:24.010,295.305,-0.004,-0.003,-0.005,-0.123,-0.9560000000000001,-0.234,25.72,-20.05,-77.60000000000001,-0.7855000000000001,0.6147,-0.0693,0.0172,0.0,-0.007,-0.001
2025-11-06 18:37:24.010,295.31,-0.006,-0.009000000000000001,-0.004,-0.124,-0.9590000000000001,-0.233,25.310000000000002,-20.11,-77.57000000000001,-0.7855000000000001,0.6147,-0.0694,0.0172,0.001,-0.005,-0.001
2025-11-06 18:37:24.010,295.315,-0.009000000000000001,-0.011,-0.003,-0.124,-0.9590000000000001,-0.234,25.310000000000002,-20.11,-77.57000000000001,-0.7855000000000001,0.6146,-0.0695,0.0172,0.0,-0.004,0.0
2025-11-06 18:37:24.010,295.32,-0.012,-0.016,-0.001,-0.123,-0.9570000000000001,-0.23500000000000001,25.310000000000002,-20.11,-77.57000000000001,-0.7856000000000001,0.6145,-0.0695,0.0172,0.0,-0.007,0.0
2025-11-06 18:37:24.010,295.325,-0.017,-0.022,-0.002,-0.122,-0.9570000000000001,-0.234,26.01,-20.02,-77.19,-0.7856000000000001,0.6145,-0.06960000000000001,0.0172,0.0,-0.006,-0.001
2025-11-06 18:37:24.010,295.33,-0.015,-0.022,-0.004,-0.121,-0.9560000000000001,-0.232,26.01,-20.02,-77.19,-0.7856000000000001,0.6145,-0.06960000000000001,0.0171,-0.001,-0.008,-0.002
2025-11-06 18:37:24.010,295.335,-0.015,-0.016,-0.004,-0.121,-0.9560000000000001,-0.232,25.75,-19.96,-78.01,-0.7856000000000001,0.6145,-0.06960000000000001,0.017,-0.002,-0.007,-0.003
2025-11-06 18:37:24.010,295.34,-0.013000000000000001,-0.002,-0.006,-0.121,-0.9530000000000001,-0.229,25.75,-19.96,-78.01,-0.7855000000000001,0.6146,-0.06960000000000001,0.017,-0.001,-0.011,-0.005
2025-11-06 18:37:24.010,295.345,-0.009000000000000001,0.001,-0.008,-0.121,-0.9520000000000001,-0.231,25.75,-19.96,-78.01,-0.7855000000000001,0.6146,-0.0695,0.017,-0.001,-0.011,-0.004
2025-11-06 18:37:24.010,295.35,-0.004,0.002,-0.007,-0.122,-0.9550000000000001,-0.23,25.57,-20.6,-77.52,-0.7854,0.6147,-0.06960000000000001,0.017,0.0,-0.009000000000000001,-0.004
2025-11-06 18:37:24.011,295.355,-0.002,0.0,-0.007,-0.12,-0.9550000000000001,-0.23,25.57,-20.6,-77.52,-0.7854,0.6147,-0.0695,0.017,-0.002,-0.008,-0.004
2025-11-06 18:37:24.011,295.36,-0.004,-0.004,-0.005,-0.122,-0.9560000000000001,-0.23,25.78,-20.57,-77.31,-0.7853,0.6148,-0.0695,0.016900000000000002,0.0,-0.007,-0.004
2025-11-06 18:37:24.011,295.365,-0.008,-0.004,-0.004,-0.11900000000000001,-0.9560000000000001,-0.231,25.78,-20.57,-77.31,-0.7853,0.6149,-0.0695,0.016900000000000002,-0.003,-0.008,-0.003
2025-11-06 18:37:24.011,295.37,-0.009000000000000001,-0.008,-0.007,-0.11800000000000001,-0.9550000000000001,-0.231,25.78,-20.57,-77.31,-0.7853,0.6149,-0.0694,0.016800000000000002,-0.003,-0.008,-0.003
2025-11-06 18:37:24.011,295.375,-0.01,-0.009000000000000001,-0.008,-0.117,-0.9540000000000001,-0.229,25.63,-20.14,-77.05,-0.7852,0.615,-0.0693,0.0166,-0.004,-0.01,-0.004
2025-11-06 18:37:24.011,295.38,-0.01,-0.01,-0.007,-0.116,-0.9550000000000001,-0.228,25.63,-20.14,-77.05,-0.7852,0.6151,-0.06910000000000001,0.0165,-0.005,-0.009000000000000001,-0.005
2025-11-06 18:37:24.011,295.385,-0.008,-0.01,-0.007,-0.116,-0.9550000000000001,-0.229,25.92,-20.34,-76.81,-0.7851,0.6152000000000001,-0.069,0.016300000000000002,-0.004,-0.009000000000000001,-0.004
2025-11-06 18:37:24.011,295.39,-0.009000000000000001,-0.011,-0.007,-0.117,-0.9560000000000001,-0.229,25.92,-20.34,-76.81,-0.785,0.6153000000000001,-0.0689,0.0162,-0.004,-0.008,-0.004
2025-11-06 18:37:24.011,295.395,-0.01,-0.01,-0.006,-0.117,-0.9570000000000001,-0.23,25.95,-21.25,-77.57000000000001,-0.785,0.6153000000000001,-0.0688,0.0161,-0.003,-0.007,-0.003
2025-11-06 18:37:24.011,295.4,-0.011,-0.011,-0.006,-0.116,-0.9580000000000001,-0.23,25.95,-21.25,-77.57000000000001,-0.785,0.6154000000000001,-0.0688,0.016,-0.003,-0.006,-0.003
2025-11-06 18:37:24.014,295.405,-0.01,-0.015,-0.005,-0.117,-0.9580000000000001,-0.229,25.95,-21.25,-77.57000000000001,-0.7849,0.6154000000000001,-0.0687,0.0159,-0.002,-0.006,-0.004
2025-11-06 18:37:24.014,295.41,-0.012,-0.019,-0.004,-0.11900000000000001,-0.9580000000000001,-0.229,25.89,-20.37,-77.75,-0.7849,0.6155,-0.0688,0.0159,0.0,-0.006,-0.003
2025-11-06 18:37:24.014,295.415,-0.013000000000000001,-0.023,-0.006,-0.117,-0.9580000000000001,-0.23,25.89,-20.37,-77.75,-0.7849,0.6155,-0.0687,0.0158,-0.002,-0.006,-0.002
2025-11-06 18:37:24.014,295.42,-0.016,-0.021,-0.006,-0.11800000000000001,-0.9560000000000001,-0.232,26.71,-21.42,-77.95,-0.7849,0.6154000000000001,-0.0687,0.015700000000000002,-0.002,-0.009000000000000001,0.0
2025-11-06 18:37:24.014,295.425,-0.017,-0.021,-0.006,-0.116,-0.9550000000000001,-0.233,26.71,-21.42,-77.95,-0.785,0.6153000000000001,-0.0687,0.015600000000000001,-0.003,-0.009000000000000001,0.0
2025-11-06 18:37:24.014,295.43,-0.013000000000000001,-0.015,-0.007,-0.117,-0.9530000000000001,-0.231,26.71,-21.42,-77.95,-0.7851,0.6153000000000001,-0.0687,0.0155,-0.002,-0.011,-0.002
2025-11-06 18:37:24.014,295.435,-0.009000000000000001,-0.018000000000000002,-0.006,-0.116,-0.9520000000000001,-0.231,25.72,-20.31,-78.16,-0.7851,0.6152000000000001,-0.06860000000000001,0.0154,-0.003,-0.012,-0.002
2025-11-06 18:37:24.014,295.44,-0.004,-0.018000000000000002,-0.006,-0.116,-0.9530000000000001,-0.232,25.72,-20.31,-78.16,-0.7851,0.6152000000000001,-0.06860000000000001,0.015300000000000001,-0.003,-0.012,-0.001
2025-11-06 18:37:24.014,295.445,-0.003,-0.014,-0.006,-0.116,-0.9530000000000001,-0.229,26.13,-20.87,-77.57000000000001,-0.7851,0.6152000000000001,-0.0685,0.0152,-0.003,-0.011,-0.004
2025-11-06 18:37:24.014,295.45,0.001,-0.013000000000000001,-0.006,-0.115,-0.9540000000000001,-0.23,26.13,-20.87,-77.57000000000001,-0.7851,0.6153000000000001,-0.0685,0.0151,-0.003,-0.01,-0.003
2025-11-06 18:37:24.014,295.455,-0.001,-0.013000000000000001,-0.006,-0.116,-0.9590000000000001,-0.228,26.13,-20.87,-77.57000000000001,-0.785,0.6154000000000001,-0.0684,0.015000000000000001,-0.002,-0.006,-0.005
2025-11-06 18:37:24.014,295.46,-0.006,-0.011,-0.004,-0.116,-0.9580000000000001,-0.226,25.84,-21.36,-77.84,-0.7849,0.6156,-0.0684,0.015000000000000001,-0.002,-0.006,-0.006
2025-11-06 18:37:24.014,295.465,-0.008,-0.008,0.0,-0.11900000000000001,-0.9590000000000001,-0.225,25.84,-21.36,-77.84,-0.7847000000000001,0.6158,-0.0685,0.015000000000000001,0.0,-0.005,-0.007
2025-11-06 18:37:24.014,295.47,-0.011,-0.006,-0.002,-0.12,-0.96,-0.224,25.84,-20.66,-78.19,-0.7845000000000001,0.616,-0.06860000000000001,0.0151,0.001,-0.005,-0.007
2025-11-06 18:37:24.014,295.475,-0.013000000000000001,-0.004,-0.001,-0.121,-0.96,-0.223,25.84,-20.66,-78.19,-0.7843,0.6162000000000001,-0.0687,0.0152,0.002,-0.004,-0.008
2025-11-06 18:37:24.014,295.48,-0.014,-0.01,-0.001,-0.122,-0.9590000000000001,-0.224,25.98,-20.490000000000002,-78.31,-0.7842,0.6164000000000001,-0.0688,0.015300000000000001,0.002,-0.006,-0.007
2025-11-06 18:37:24.014,295.485,-0.015,-0.013000000000000001,-0.001,-0.11900000000000001,-0.9590000000000001,-0.225,25.98,-20.490000000000002,-78.31,-0.7841,0.6165,-0.0689,0.015300000000000001,0.0,-0.006,-0.005
2025-11-06 18:37:24.014,295.49,-0.018000000000000002,-0.016,-0.002,-0.11900000000000001,-0.9570000000000001,-0.225,25.98,-20.490000000000002,-78.31,-0.7841,0.6165,-0.069,0.0152,0.0,-0.008,-0.004
2025-11-06 18:37:24.014,295.495,-0.018000000000000002,-0.019,-0.001,-0.11800000000000001,-0.9580000000000001,-0.228,26.62,-22.59,-77.93,-0.7841,0.6165,-0.069,0.0152,-0.001,-0.007,-0.002
2025-11-06 18:37:24.014,295.5,-0.013000000000000001,-0.02,-0.004,-0.117,-0.9580000000000001,-0.226,26.62,-22.59,-77.93,-0.784,0.6166,-0.069,0.0151,-0.002,-0.007,-0.004
2025-11-06 18:37:24.014,295.505,-0.01,-0.022,-0.002,-0.11800000000000001,-0.9570000000000001,-0.226,26.22,-21.04,-77.37,-0.7839,0.6167,-0.069,0.0151,0.0,-0.008,-0.004
2025-11-06 18:37:24.014,295.51,-0.01,-0.021,-0.001,-0.117,-0.9560000000000001,-0.224,26.22,-21.04,-77.37,-0.7839,0.6168,-0.069,0.015000000000000001,-0.002,-0.009000000000000001,-0.006
2025-11-06 18:37:24.014,295.515,-0.013000000000000001,-0.018000000000000002,-0.001,-0.11800000000000001,-0.9560000000000001,-0.22,26.22,-21.04,-77.37,-0.7837000000000001,0.617,-0.06910000000000001,0.015000000000000001,-0.001,-0.009000000000000001,-0.008
2025-11-06 18:37:24.014,295.52,-0.016,-0.011,-0.001,-0.11900000000000001,-0.9570000000000001,-0.217,26.62,-20.22,-77.87,-0.7834,0.6173000000000001,-0.0692,0.015000000000000001,0.0,-0.008,-0.011
2025-11-06 18:37:24.014,295.525,-0.02,-0.007,-0.001,-0.121,-0.9560000000000001,-0.213,26.62,-20.22,-77.87,-0.7831,0.6177,-0.0693,0.0151,0.001,-0.009000000000000001,-0.014
2025-11-06 18:37:24.014,295.53,-0.021,-0.002,-0.001,-0.124,-0.9570000000000001,-0.213,25.75,-20.46,-77.34,-0.7828,0.618,-0.0695,0.0152,0.003,-0.008,-0.013000000000000001
2025-11-06 18:37:24.014,295.535,-0.021,0.001,-0.001,-0.125,-0.9570000000000001,-0.214,25.75,-20.46,-77.34,-0.7826000000000001,0.6183000000000001,-0.0697,0.0154,0.004,-0.009000000000000001,-0.011
2025-11-06 18:37:24.014,295.54,-0.022,0.003,-0.002,-0.127,-0.9590000000000001,-0.217,25.75,-20.46,-77.34,-0.7824,0.6185,-0.0699,0.015600000000000001,0.005,-0.006,-0.008
2025-11-06 18:37:24.014,295.545,-0.025,-0.001,-0.002,-0.127,-0.96,-0.221,26.16,-20.66,-77.63,-0.7824,0.6185,-0.07010000000000001,0.0158,0.005,-0.006,-0.004
2025-11-06 18:37:24.014,295.55,-0.028,-0.009000000000000001,-0.002,-0.127,-0.9580000000000001,-0.223,26.16,-20.66,-77.63,-0.7824,0.6185,-0.0703,0.016,0.004,-0.008,-0.001
2025-11-06 18:37:24.014,295.555,-0.029,-0.008,-0.003,-0.125,-0.9560000000000001,-0.226,26.830000000000002,-20.43,-78.01,-0.7825000000000001,0.6183000000000001,-0.0704,0.0161,0.002,-0.01,0.0
2025-11-06 18:37:24.014,295.56,-0.026000000000000002,-0.008,-0.003,-0.124,-0.9540000000000001,-0.227,26.830000000000002,-20.43,-78.01,-0.7827000000000001,0.6181,-0.07050000000000001,0.0162,0.001,-0.012,0.0
2025-11-06 18:37:24.014,295.565,-0.023,-0.005,-0.005,-0.125,-0.9530000000000001,-0.224,26.830000000000002,-20.43,-78.01,-0.7827000000000001,0.618,-0.07060000000000001,0.016300000000000002,0.001,-0.013000000000000001,-0.002
2025-11-06 18:37:24.014,295.57,-0.022,0.0,-0.005,-0.123,-0.9530000000000001,-0.221,26.16,-20.37,-77.81,-0.7827000000000001,0.6181,-0.07060000000000001,0.016300000000000002,0.0,-0.012,-0.004
2025-11-06 18:37:24.014,295.575,-0.015,0.009000000000000001,-0.004,-0.122,-0.9550000000000001,-0.22,26.16,-20.37,-77.81,-0.7826000000000001,0.6182000000000001,-0.07060000000000001,0.016300000000000002,-0.001,-0.011,-0.006
2025-11-06 18:37:24.014,295.58,-0.015,0.016,-0.001,-0.122,-0.9570000000000001,-0.213,26.77,-22.06,-78.07000000000001,-0.7824,0.6185,-0.0707,0.016300000000000002,0.0,-0.009000000000000001,-0.011
2025-11-06 18:37:24.014,295.585,-0.016,0.028,0.0,-0.124,-0.9590000000000001,-0.211,26.77,-22.06,-78.07000000000001,-0.7821,0.6188,-0.0707,0.0164,0.0,-0.006,-0.013000000000000001
2025-11-06 18:37:24.014,295.59,-0.016,0.035,0.002,-0.129,-0.961,-0.20600000000000002,26.22,-20.66,-77.87,-0.7816000000000001,0.6193000000000001,-0.0709,0.0166,0.005,-0.005,-0.016
2025-11-06 18:37:24.014,295.595,-0.023,0.038,0.001,-0.133,-0.962,-0.20500000000000002,26.22,-20.66,-77.87,-0.7812,0.6198,-0.0712,0.017,0.008,-0.004,-0.016
2025-11-06 18:37:24.014,295.6,-0.026000000000000002,0.035,0.002,-0.136,-0.962,-0.20700000000000002,26.22,-20.66,-77.87,-0.7809,0.6201,-0.0716,0.017400000000000002,0.01,-0.004,-0.013000000000000001
2025-11-06 18:37:24.014,295.605,-0.033,0.034,0.003,-0.136,-0.962,-0.21,25.92,-22.94,-78.16,-0.7807000000000001,0.6204000000000001,-0.0718,0.0178,0.009000000000000001,-0.004,-0.009000000000000001
2025-11-06 18:37:24.014,295.61,-0.035,0.033,0.004,-0.135,-0.962,-0.213,25.92,-22.94,-78.16,-0.7806000000000001,0.6205,-0.07200000000000001,0.0181,0.007,-0.004,-0.006
2025-11-06 18:37:24.014,295.615,-0.041,0.035,0.002,-0.131,-0.9570000000000001,-0.217,26.240000000000002,-20.080000000000002,-77.81,-0.7807000000000001,0.6204000000000001,-0.0721,0.0183,0.002,-0.009000000000000001,-0.003
2025-11-06 18:37:24.014,295.62,-0.041,0.037,0.003,-0.131,-0.9560000000000001,-0.219,26.240000000000002,-20.080000000000002,-77.81,-0.7808,0.6203000000000001,-0.0721,0.018500000000000003,0.002,-0.01,-0.001
2025-11-06 18:37:24.014,295.625,-0.036000000000000004,0.039,0.001,-0.127,-0.9560000000000001,-0.221,26.240000000000002,-20.080000000000002,-77.81,-0.7809,0.6201,-0.0721,0.018600000000000002,0.0,-0.01,0.0
2025-11-06 18:37:24.014,295.63,-0.027,0.034,-0.001,-0.126,-0.9530000000000001,-0.222,25.86,-20.52,-77.93,-0.7811,0.6199,-0.07200000000000001,0.0187,-0.001,-0.013000000000000001,0.001
2025-11-06 18:37:24.014,295.635,-0.021,0.038,0.0,-0.127,-0.9530000000000001,-0.221,25.86,-20.52,-77.93,-0.7812,0.6197,-0.0719,0.0188,-0.001,-0.013000000000000001,0.0
2025-11-06 18:37:24.015,295.64,-0.014,0.035,0.001,-0.13,-0.9540000000000001,-0.222,25.84,-21.98,-77.9,-0.7813,0.6196,-0.0719,0.019,0.001,-0.012,0.0
2025-11-06 18:37:24.015,295.645,-0.01,0.036000000000000004,0.002,-0.133,-0.9580000000000001,-0.224,25.84,-21.98,-77.9,-0.7814,0.6194000000000001,-0.07200000000000001,0.0193,0.004,-0.007,0.001
2025-11-06 18:37:24.015,295.65,-0.012,0.035,0.006,-0.134,-0.961,-0.224,25.84,-21.98,-77.9,-0.7815000000000001,0.6193000000000001,-0.0721,0.0195,0.004,-0.004,0.001
2025-11-06 18:37:24.015,295.655,-0.018000000000000002,0.036000000000000004,0.008,-0.132,-0.9590000000000001,-0.221,25.92,-20.490000000000002,-78.19,-0.7815000000000001,0.6193000000000001,-0.0721,0.019700000000000002,0.002,-0.006,-0.002
2025-11-06 18:37:24.015,295.66,-0.025,0.04,0.01,-0.128,-0.9580000000000001,-0.219,25.92,-20.490000000000002,-78.19,-0.7815000000000001,0.6193000000000001,-0.0721,0.0198,-0.001,-0.008,-0.003
2025-11-06 18:37:24.015,295.665,-0.028,0.057,0.01,-0.125,-0.9580000000000001,-0.221,26.240000000000002,-20.57,-77.87,-0.7816000000000001,0.6192000000000001,-0.0719,0.0198,-0.004,-0.008,-0.002
2025-11-06 18:37:24.015,295.67,-0.033,0.065,0.011,-0.124,-0.9560000000000001,-0.223,26.240000000000002,-20.57,-77.87,-0.7817000000000001,0.6191,-0.0716,0.0198,-0.005,-0.01,0.0
2025-11-06 18:37:24.015,295.675,-0.03,0.07200000000000001,0.011,-0.124,-0.9550000000000001,-0.223,26.39,-20.400000000000002,-78.22,-0.7818,0.619,-0.0714,0.0198,-0.005,-0.011,0.0
2025-11-06 18:37:24.015,295.68,-0.028,0.08,0.01,-0.124,-0.9530000000000001,-0.221,26.39,-20.400000000000002,-78.22,-0.7819,0.6189,-0.0711,0.0199,-0.004,-0.012,-0.002
2025-11-06 18:37:24.015,295.685,-0.019,0.094,0.011,-0.121,-0.9530000000000001,-0.222,26.39,-20.400000000000002,-78.22,-0.782,0.6188,-0.0708,0.0198,-0.007,-0.012,-0.002
2025-11-06 18:37:24.015,295.69,-0.015,0.109,0.01,-0.12,-0.9570000000000001,-0.223,26.68,-21.86,-78.22,-0.7821,0.6188,-0.0704,0.0198,-0.007,-0.008,0.0
2025-11-06 18:37:24.015,295.695,-0.011,0.112,0.008,-0.123,-0.963,-0.224,26.68,-21.86,-78.22,-0.7821,0.6187,-0.07010000000000001,0.0199,-0.003,-0.003,0.0
2025-11-06 18:37:24.015,295.7,-0.008,0.111,0.007,-0.126,-0.964,-0.227,26.22,-19.490000000000002,-78.48,-0.7822,0.6186,-0.0698,0.0201,0.0,-0.001,0.002
2025-11-06 18:37:24.015,295.705,-0.006,0.108,0.008,-0.13,-0.965,-0.231,26.22,-19.490000000000002,-78.48,-0.7824,0.6184000000000001,-0.0697,0.0204,0.003,0.0,0.005
2025-11-06 18:37:24.015,295.71,-0.008,0.098,0.007,-0.129,-0.9580000000000001,-0.234,26.22,-19.490000000000002,-78.48,-0.7827000000000001,0.618,-0.06960000000000001,0.0207,0.001,-0.007,0.007
2025-11-06 18:37:24.015,295.715,-0.009000000000000001,0.088,0.01,-0.126,-0.96,-0.23600000000000002,25.98,-20.22,-77.98,-0.783,0.6177,-0.0694,0.020900000000000002,-0.001,-0.005,0.008
2025-11-06 18:37:24.015,295.72,-0.011,0.08700000000000001,0.008,-0.11900000000000001,-0.96,-0.23900000000000002,25.98,-20.22,-77.98,-0.7834,0.6172000000000001,-0.0689,0.020900000000000002,-0.007,-0.005,0.01
2025-11-06 18:37:24.015,295.725,-0.014,0.079,0.009000000000000001,-0.115,-0.961,-0.23700000000000002,25.89,-20.19,-78.04,-0.7837000000000001,0.6169,-0.0684,0.0207,-0.01,-0.003,0.007
2025-11-06 18:37:24.015,295.73,-0.018000000000000002,0.079,0.012,-0.115,-0.96,-0.23700000000000002,25.89,-20.19,-78.04,-0.7839,0.6167,-0.0679,0.0206,-0.009000000000000001,-0.004,0.006
2025-11-06 18:37:24.016,295.735,-0.029,0.083,0.015,-0.113,-0.962,-0.233,25.89,-20.19,-78.04,-0.7841,0.6165,-0.0673,0.0205,-0.01,-0.003,0.002
2025-11-06 18:37:24.018,295.74,-0.033,0.08600000000000001,0.019,-0.114,-0.962,-0.229,26.240000000000002,-20.25,-77.78,-0.7841,0.6165,-0.0669,0.0205,-0.009000000000000001,-0.002,-0.001
2025-11-06 18:37:24.018,295.745,-0.035,0.091,0.02,-0.113,-0.9570000000000001,-0.223,26.240000000000002,-20.25,-77.78,-0.784,0.6167,-0.0664,0.0204,-0.009000000000000001,-0.007,-0.007
2025-11-06 18:37:24.018,295.75,-0.03,0.101,0.023,-0.112,-0.9540000000000001,-0.218,26.07,-20.57,-78.33,-0.7838,0.617,-0.066,0.0204,-0.009000000000000001,-0.01,-0.012
2025-11-06 18:37:24.018,295.755,-0.017,0.109,0.026000000000000002,-0.115,-0.9490000000000001,-0.21,26.07,-20.57,-78.33,-0.7835000000000001,0.6175,-0.06570000000000001,0.0206,-0.006,-0.015,-0.018000000000000002
2025-11-06 18:37:24.018,295.76,0.0,0.12,0.031,-0.115,-0.9510000000000001,-0.20700000000000002,26.27,-20.63,-78.45,-0.783,0.6181,-0.0653,0.0207,-0.006,-0.015,-0.02
2025-11-06 18:37:24.018,295.765,0.006,0.127,0.032,-0.125,-0.9520000000000001,-0.20800000000000002,26.27,-20.63,-78.45,-0.7826000000000001,0.6186,-0.0654,0.0212,0.004,-0.013000000000000001,-0.018000000000000002
2025-11-06 18:37:24.018,295.77,0.01,0.133,0.035,-0.127,-0.9510000000000001,-0.214,26.27,-20.63,-78.45,-0.7823,0.6189,-0.0654,0.0218,0.005,-0.014,-0.011
2025-11-06 18:37:24.018,295.775,0.009000000000000001,0.126,0.038,-0.127,-0.9520000000000001,-0.221,26.27,-20.22,-78.19,-0.7823,0.6189,-0.0654,0.0223,0.004,-0.014,-0.004
2025-11-06 18:37:24.018,295.78,0.001,0.112,0.041,-0.121,-0.9540000000000001,-0.227,26.27,-20.22,-78.19,-0.7824,0.6188,-0.0653,0.022500000000000003,-0.001,-0.012,0.001
2025-11-06 18:37:24.018,295.785,-0.009000000000000001,0.101,0.047,-0.11900000000000001,-0.9570000000000001,-0.229,25.89,-20.31,-77.84,-0.7826000000000001,0.6186,-0.065,0.0227,-0.003,-0.008,0.002
2025-11-06 18:37:24.018,295.79,-0.017,0.10400000000000001,0.05,-0.11900000000000001,-0.9560000000000001,-0.224,25.89,-20.31,-77.84,-0.7827000000000001,0.6185,-0.0649,0.0229,-0.003,-0.01,-0.002
2025-11-06 18:37:24.018,295.795,-0.023,0.112,0.047,-0.11900000000000001,-0.9540000000000001,-0.216,25.89,-20.31,-77.84,-0.7825000000000001,0.6187,-0.06470000000000001,0.023100000000000002,-0.003,-0.011,-0.009000000000000001
2025-11-06 18:37:24.018,295.8,-0.025,0.11800000000000001,0.048,-0.116,-0.9540000000000001,-0.211,26.3,-20.14,-77.81,-0.7822,0.6191,-0.0644,0.023200000000000002,-0.006,-0.011,-0.014
2025-11-06 18:37:24.018,295.805,-0.027,0.131,0.048,-0.116,-0.9580000000000001,-0.209,26.3,-20.14,-77.81,-0.7819,0.6195,-0.0641,0.0234,-0.006,-0.007,-0.015
2025-11-06 18:37:24.018,295.81,-0.027,0.14,0.048,-0.117,-0.964,-0.212,26.01,-21.95,-77.4,-0.7817000000000001,0.6198,-0.06380000000000001,0.0236,-0.004,-0.002,-0.011
2025-11-06 18:37:24.018,295.845,-0.023,0.179,0.048,-0.121,-0.965,-0.23500000000000001,25.86,-20.490000000000002,-77.19,-0.7825000000000001,0.619,-0.061900000000000004,0.025900000000000003,0.0,-0.001,0.009000000000000001
2025-11-06 18:37:24.018,295.85,-0.023,0.179,0.05,-0.123,-0.965,-0.23800000000000002,26.45,-20.78,-77.19,-0.7828,0.6185,-0.061700000000000005,0.0263,0.001,-0.001,0.01
2025-11-06 18:37:24.018,295.855,-0.023,0.179,0.05,-0.121,-0.965,-0.233,26.45,-20.78,-77.19,-0.783,0.6182000000000001,-0.0614,0.0267,0.0,-0.001,0.005
2025-11-06 18:37:24.018,295.86,-0.026000000000000002,0.191,0.053,-0.117,-0.963,-0.23,25.95,-20.6,-77.28,-0.7832,0.6181,-0.0609,0.027,-0.004,-0.002,0.001
2025-11-06 18:37:24.018,295.865,-0.023,0.196,0.052000000000000005,-0.10300000000000001,-0.961,-0.226,25.95,-20.6,-77.28,-0.7832,0.6181,-0.0601,0.0269,-0.016,-0.004,-0.002
2025-11-06 18:37:24.019,295.87,-0.02,0.199,0.055,-0.107,-0.96,-0.222,25.84,-20.900000000000002,-77.55,-0.7832,0.6183000000000001,-0.0594,0.027,-0.012,-0.005,-0.006
2025-11-06 18:37:24.019,295.875,-0.019,0.20700000000000002,0.056,-0.113,-0.961,-0.223,25.84,-20.900000000000002,-77.55,-0.7831,0.6184000000000001,-0.0589,0.0273,-0.005,-0.004,-0.005
2025-11-06 18:37:24.019,295.88,-0.014,0.218,0.05,-0.12,-0.96,-0.224,25.84,-20.900000000000002,-77.55,-0.7831,0.6184000000000001,-0.058600000000000006,0.027800000000000002,0.001,-0.006,-0.004
2025-11-06 18:37:24.019,295.885,-0.014,0.22,0.05,-0.12,-0.9550000000000001,-0.222,25.810000000000002,-20.69,-77.49,-0.783,0.6185,-0.058300000000000005,0.028300000000000002,0.001,-0.01,-0.006
2025-11-06 18:37:24.019,295.89,-0.018000000000000002,0.222,0.05,-0.11800000000000001,-0.9510000000000001,-0.223,25.810000000000002,-20.69,-77.49,-0.783,0.6185,-0.058,0.028800000000000003,-0.001,-0.015,-0.005
2025-11-06 18:37:24.019,295.895,-0.025,0.218,0.055,-0.112,-0.9520000000000001,-0.221,25.98,-22.56,-77.46000000000001,-0.783,0.6186,-0.0575,0.0291,-0.006,-0.013000000000000001,-0.007
2025-11-06 18:37:24.019,295.9,-0.028,0.2,0.062,-0.113,-0.9550000000000001,-0.222,25.98,-22.56,-77.46000000000001,-0.7829,0.6187,-0.057100000000000005,0.029400000000000003,-0.005,-0.01,-0.006
2025-11-06 18:37:24.019,295.905,-0.024,0.19,0.067,-0.109,-0.9580000000000001,-0.224,25.98,-22.56,-77.46000000000001,-0.783,0.6187,-0.0565,0.0296,-0.008,-0.008,-0.004
2025-11-06 18:37:24.019,295.91,-0.025,0.18,0.073,-0.107,-0.961,-0.223,26.16,-21.36,-77.37,-0.7829,0.6188,-0.056,0.0297,-0.01,-0.005,-0.005
2025-11-06 18:37:24.019,295.915,-0.02,0.17,0.078,-0.10400000000000001,-0.963,-0.223,26.16,-21.36,-77.37,-0.7829,0.6189,-0.055400000000000005,0.0298,-0.012,-0.003,-0.004
2025-11-06 18:37:24.019,295.92,-0.018000000000000002,0.168,0.081,-0.109,-0.966,-0.218,25.63,-20.92,-77.34,-0.7827000000000001,0.6191,-0.054900000000000004,0.030000000000000002,-0.006,0.0,-0.009000000000000001
2025-11-06 18:37:24.019,295.925,-0.014,0.183,0.084,-0.106,-0.967,-0.221,25.63,-20.92,-77.34,-0.7826000000000001,0.6193000000000001,-0.054400000000000004,0.0302,-0.009000000000000001,0.0,-0.005
2025-11-06 18:37:24.019,295.93,-0.013000000000000001,0.193,0.08700000000000001,-0.114,-0.969,-0.223,25.63,-20.92,-77.34,-0.7825000000000001,0.6194000000000001,-0.0541,0.030600000000000002,-0.001,0.001,-0.003
2025-11-06 18:37:24.019,295.935,-0.015,0.20700000000000002,0.08700000000000001,-0.112,-0.968,-0.229,25.75,-20.6,-77.49,-0.7826000000000001,0.6193000000000001,-0.053700000000000005,0.031,-0.002,0.001,0.001
2025-11-06 18:37:24.019,295.94,-0.013000000000000001,0.217,0.08700000000000001,-0.115,-0.969,-0.232,25.75,-20.6,-77.49,-0.7828,0.6191,-0.0534,0.0315,0.0,0.002,0.004
2025-11-06 18:37:24.019,295.945,-0.017,0.23,0.083,-0.116,-0.972,-0.23700000000000002,25.54,-20.87,-77.25,-0.783,0.6188,-0.053200000000000004,0.032,0.001,0.005,0.008
2025-11-06 18:37:24.019,295.95,-0.023,0.23500000000000001,0.081,-0.113,-0.976,-0.244,25.54,-20.87,-77.25,-0.7834,0.6183000000000001,-0.052700000000000004,0.0323,-0.002,0.009000000000000001,0.014
2025-11-06 18:37:24.019,295.955,-0.025,0.23500000000000001,0.083,-0.112,-0.976,-0.245,26.01,-21.01,-77.28,-0.7838,0.6178,-0.0523,0.0327,-0.002,0.01,0.014
2025-11-06 18:37:24.019,295.96,-0.023,0.23600000000000002,0.08,-0.111,-0.977,-0.245,26.01,-21.01,-77.28,-0.7842,0.6174000000000001,-0.051800000000000006,0.033,-0.003,0.011,0.013000000000000001
2025-11-06 18:37:24.019,295.965,-0.023,0.247,0.077,-0.106,-0.973,-0.242,26.01,-21.01,-77.28,-0.7844,0.6171,-0.0511,0.0332,-0.007,0.008,0.008
2025-11-06 18:37:24.019,295.97,-0.019,0.262,0.07100000000000001,-0.1,-0.964,-0.23800000000000002,25.810000000000002,-21.01,-77.17,-0.7847000000000001,0.6169,-0.050300000000000004,0.0334,-0.013000000000000001,-0.001,0.004
2025-11-06 18:37:24.019,295.975,-0.019,0.27,0.069,-0.097,-0.96,-0.23500000000000001,25.810000000000002,-21.01,-77.17,-0.7848,0.6167,-0.049300000000000004,0.0335,-0.014,-0.005,0.001
2025-11-06 18:37:24.021,295.98,-0.017,0.265,0.068,-0.099,-0.9550000000000001,-0.23800000000000002,25.72,-20.31,-76.76,-0.785,0.6165,-0.0485,0.033800000000000004,-0.011,-0.01,0.003
2025-11-06 18:37:24.021,295.985,-0.019,0.255,0.067,-0.101,-0.9540000000000001,-0.242,25.72,-20.31,-76.76,-0.7854,0.6161,-0.047900000000000005,0.034,-0.009000000000000001,-0.011,0.005
2025-11-06 18:37:24.021,295.99,-0.019,0.23900000000000002,0.069,-0.106,-0.9540000000000001,-0.245,25.72,-20.31,-76.76,-0.7857000000000001,0.6157,-0.0475,0.0344,-0.003,-0.01,0.008
2025-11-06 18:37:24.021,295.995,-0.022,0.22,0.073,-0.113,-0.9540000000000001,-0.247,26.48,-20.75,-76.58,-0.7861,0.6152000000000001,-0.047400000000000005,0.0349,0.003,-0.011,0.008
2025-11-06 18:37:24.021,296.0,-0.025,0.20600000000000002,0.078,-0.116,-0.9520000000000001,-0.246,26.48,-20.75,-76.58,-0.7864,0.6147,-0.0475,0.0354,0.005,-0.011,0.006
2025-11-06 18:37:24.021,296.005,-0.027,0.188,0.081,-0.111,-0.9500000000000001,-0.246,25.63,-21.01,-76.79,-0.7867000000000001,0.6143000000000001,-0.0473,0.0359,0.0,-0.013000000000000001,0.005
2025-11-06 18:37:24.021,296.01,-0.026000000000000002,0.178,0.08700000000000001,-0.10400000000000001,-0.9500000000000001,-0.247,25.63,-21.01,-76.79,-0.787,0.6139,-0.047,0.0361,-0.006,-0.013000000000000001,0.005
2025-11-06 18:37:24.021,296.015,-0.025,0.159,0.10200000000000001,-0.105,-0.9530000000000001,-0.248,25.63,-21.01,-76.79,-0.7873,0.6136,-0.0466,0.0364,-0.005,-0.01,0.005
2025-11-06 18:37:24.021,296.02,-0.026000000000000002,0.148,0.115,-0.11,-0.9520000000000001,-0.248,26.830000000000002,-22.42,-77.14,-0.7876000000000001,0.6132000000000001,-0.0466,0.0368,0.0,-0.011,0.004
2025-11-06 18:37:24.021,296.025,-0.028,0.14400000000000002,0.12,-0.107,-0.9490000000000001,-0.251,26.830000000000002,-22.42,-77.14,-0.7879,0.6128,-0.046400000000000004,0.037200000000000004,-0.003,-0.014,0.006
2025-11-06 18:37:24.021,296.03,-0.036000000000000004,0.147,0.122,-0.106,-0.9460000000000001,-0.249,25.98,-24.55,-76.81,-0.7882,0.6124,-0.046200000000000005,0.0376,-0.005,-0.016,0.003
2025-11-06 18:37:24.021,296.035,-0.035,0.151,0.126,-0.115,-0.9440000000000001,-0.23700000000000002,25.98,-24.55,-76.81,-0.7881,0.6124,-0.0463,0.038200000000000005,0.002,-0.018000000000000002,-0.008
2025-11-06 18:37:24.021,296.04,-0.023,0.178,0.125,-0.124,-0.9400000000000001,-0.221,25.28,-21.28,-77.63,-0.7876000000000001,0.613,-0.046700000000000005,0.0391,0.01,-0.022,-0.023
2025-11-06 18:37:24.021,296.045,-0.02,0.20800000000000002,0.124,-0.124,-0.9420000000000001,-0.217,25.28,-21.28,-77.63,-0.7871,0.6136,-0.046900000000000004,0.039900000000000005,0.008,-0.02,-0.025
2025-11-06 18:37:24.021,296.05,-0.013000000000000001,0.225,0.124,-0.13,-0.9470000000000001,-0.221,25.28,-21.28,-77.63,-0.7866000000000001,0.6141,-0.0473,0.041,0.013000000000000001,-0.016,-0.02
2025-11-06 18:37:24.021,296.055,-0.014,0.233,0.125,-0.132,-0.9490000000000001,-0.225,26.42,-21.36,-76.99,-0.7863,0.6145,-0.0476,0.042,0.013000000000000001,-0.013000000000000001,-0.015
2025-11-06 18:37:24.021,296.06,-0.013000000000000001,0.23900000000000002,0.127,-0.127,-0.9510000000000001,-0.231,26.42,-21.36,-76.99,-0.7861,0.6146,-0.0477,0.042800000000000005,0.006,-0.011,-0.008
2025-11-06 18:37:24.021,296.065,-0.019,0.23900000000000002,0.136,-0.134,-0.9580000000000001,-0.23900000000000002,25.6,-23.85,-77.11,-0.7861,0.6145,-0.047900000000000005,0.0439,0.013000000000000001,-0.005,-0.001
2025-11-06 18:37:24.021,296.07,-0.017,0.24,0.139,-0.14300000000000002,-0.9570000000000001,-0.24,25.6,-23.85,-77.11,-0.7862,0.6144000000000001,-0.048400000000000006,0.0451,0.019,-0.005,0.0
2025-11-06 18:37:24.021,296.075,-0.014,0.23700000000000002,0.134,-0.14,-0.9540000000000001,-0.243,25.6,-23.85,-77.11,-0.7863,0.6141,-0.048600000000000004,0.046200000000000005,0.014,-0.008,0.002
2025-11-06 18:37:24.021,296.08,-0.01,0.23700000000000002,0.133,-0.135,-0.9530000000000001,-0.247,25.51,-21.86,-77.37,-0.7865000000000001,0.6138,-0.0487,0.0471,0.008,-0.009000000000000001,0.005
2025-11-06 18:37:24.021,296.085,-0.007,0.233,0.133,-0.133,-0.9490000000000001,-0.249,25.51,-21.86,-77.37,-0.7867000000000001,0.6134000000000001,-0.048600000000000004,0.048,0.005,-0.011,0.005
2025-11-06 18:37:24.021,296.09,-0.001,0.229,0.134,-0.12,-0.9520000000000001,-0.251,25.310000000000002,-21.22,-76.79,-0.787,0.613,-0.048100000000000004,0.048600000000000004,-0.007,-0.008,0.007
2025-11-06 18:37:24.021,296.095,-0.003,0.218,0.14,-0.115,-0.9590000000000001,-0.256,25.310000000000002,-21.22,-76.79,-0.7874,0.6126,-0.0473,0.0489,-0.012,-0.001,0.01
2025-11-06 18:37:24.021,296.1,-0.004,0.20600000000000002,0.14400000000000002,-0.122,-0.962,-0.257,25.310000000000002,-21.22,-76.79,-0.7877000000000001,0.6122000000000001,-0.046900000000000004,0.0495,-0.004,0.001,0.01
2025-11-06 18:37:24.021,296.105,-0.009000000000000001,0.197,0.146,-0.128,-0.9570000000000001,-0.253,25.16,-21.07,-77.02,-0.7879,0.6118,-0.046700000000000005,0.050100000000000006,0.0,-0.003,0.006
2025-11-06 18:37:24.021,296.11,-0.015,0.192,0.145,-0.128,-0.9550000000000001,-0.254,25.16,-21.07,-77.02,-0.7882,0.6115,-0.0466,0.050800000000000005,0.0,-0.005,0.006
2025-11-06 18:37:24.021,296.115,-0.019,0.184,0.146,-0.134,-0.9520000000000001,-0.25,24.810000000000002,-21.13,-76.96000000000001,-0.7883,0.6113000000000001,-0.046700000000000005,0.051500000000000004,0.004,-0.008,0.001
2025-11-06 18:37:24.021,296.12,-0.022,0.182,0.147,-0.131,-0.9520000000000001,-0.243,24.810000000000002,-21.13,-76.96000000000001,-0.7882,0.6113000000000001,-0.046700000000000005,0.0521,0.001,-0.007,-0.005
2025-11-06 18:37:24.021,296.125,-0.028,0.176,0.154,-0.134,-0.9550000000000001,-0.232,24.72,-21.45,-76.73,-0.7879,0.6117,-0.0468,0.052700000000000004,0.003,-0.004,-0.015
2025-11-06 18:37:24.021,296.13,-0.042,0.17200000000000001,0.161,-0.147,-0.9490000000000001,-0.223,24.72,-21.45,-76.73,-0.7873,0.6123000000000001,-0.0475,0.053500000000000006,0.014,-0.01,-0.022
2025-11-06 18:37:24.021,296.135,-0.049,0.16,0.166,-0.157,-0.936,-0.229,24.72,-21.45,-76.73,-0.787,0.6124,-0.048400000000000006,0.054700000000000006,0.022,-0.023,-0.015
2025-11-06 18:37:24.021,296.14,-0.053,0.152,0.165,-0.17200000000000001,-0.926,-0.233,24.7,-20.87,-76.81,-0.7869,0.6124,-0.0499,0.0563,0.032,-0.033,-0.012
2025-11-06 18:37:24.021,296.145,-0.047,0.153,0.161,-0.17400000000000002,-0.92,-0.242,24.7,-20.87,-76.81,-0.787,0.612,-0.0511,0.058,0.03,-0.038,-0.003
2025-11-06 18:37:24.021,296.15,-0.042,0.154,0.157,-0.181,-0.921,-0.249,24.55,-21.68,-76.87,-0.7872,0.6114,-0.0524,0.0599,0.033,-0.036000000000000004,0.001
2025-11-06 18:37:24.021,296.155,-0.042,0.166,0.15,-0.178,-0.926,-0.252,24.55,-21.68,-76.87,-0.7875000000000001,0.6107,-0.0533,0.061500000000000006,0.027,-0.03,0.004
2025-11-06 18:37:24.021,296.16,-0.036000000000000004,0.17500000000000002,0.151,-0.167,-0.9410000000000001,-0.259,24.55,-21.68,-76.87,-0.7879,0.6101,-0.0536,0.06280000000000001,0.014,-0.014,0.009000000000000001
2025-11-06 18:37:24.021,296.165,-0.033,0.182,0.155,-0.169,-0.9510000000000001,-0.257,24.75,-21.42,-77.4,-0.7881,0.6098,-0.0539,0.0639,0.014,-0.004,0.006
2025-11-06 18:37:24.021,296.17,-0.027,0.191,0.155,-0.17,-0.961,-0.255,24.75,-21.42,-77.4,-0.7881,0.6096,-0.0543,0.0648,0.013000000000000001,0.006,0.003
2025-11-06 18:37:24.021,296.175,-0.012,0.20600000000000002,0.155,-0.181,-0.97,-0.252,24.900000000000002,-21.28,-76.41,-0.788,0.6095,-0.054900000000000004,0.0658,0.022,0.015,0.0
2025-11-06 18:37:24.021,296.18,-0.011,0.219,0.155,-0.153,-0.964,-0.261,24.900000000000002,-21.28,-76.41,-0.7882,0.6093000000000001,-0.0543,0.0665,-0.005,0.009000000000000001,0.009000000000000001
2025-11-06 18:37:24.021,296.185,-0.009000000000000001,0.22,0.168,-0.14200000000000002,-0.966,-0.266,24.900000000000002,-21.28,-76.41,-0.7885000000000001,0.6089,-0.0533,0.0669,-0.015,0.011,0.013000000000000001
2025-11-06 18:37:24.021,296.19,-0.016,0.212,0.177,-0.136,-0.968,-0.269,24.64,-21.8,-76.52,-0.7889,0.6084,-0.052000000000000005,0.0673,-0.02,0.013000000000000001,0.014
2025-11-06 18:37:24.021,296.195,-0.026000000000000002,0.20500000000000002,0.18,-0.133,-0.962,-0.276,24.64,-21.8,-76.52,-0.7895000000000001,0.6077,-0.0507,0.0678,-0.021,0.008,0.02
2025-11-06 18:37:24.021,296.2,-0.028,0.198,0.177,-0.127,-0.9570000000000001,-0.279,24.61,-21.330000000000002,-76.52,-0.7902,0.607,-0.0492,0.0682,-0.026000000000000002,0.003,0.021
2025-11-06 18:37:24.021,296.205,-0.023,0.20600000000000002,0.169,-0.128,-0.9500000000000001,-0.273,24.61,-21.330000000000002,-76.52,-0.7906000000000001,0.6064,-0.047900000000000005,0.06860000000000001,-0.023,-0.003,0.012
2025-11-06 18:37:24.024,296.21,-0.011,0.23,0.168,-0.14100000000000001,-0.9510000000000001,-0.274,24.61,-21.330000000000002,-76.52,-0.791,0.6059,-0.0472,0.0692,-0.009000000000000001,-0.002,0.012
2025-11-06 18:37:24.024,296.215,-0.003,0.249,0.171,-0.163,-0.9530000000000001,-0.274,24.490000000000002,-23.94,-75.85000000000001,-0.7913,0.6054,-0.047400000000000005,0.0702,0.011,0.0,0.011
2025-11-06 18:37:24.024,296.22,0.005,0.26,0.17400000000000002,-0.159,-0.9550000000000001,-0.272,24.490000000000002,-23.94,-75.85000000000001,-0.7915000000000001,0.605,-0.047400000000000005,0.0711,0.006,0.002,0.009000000000000001
2025-11-06 18:37:24.024,296.225,0.005,0.267,0.182,-0.171,-0.96,-0.277,24.29,-21.66,-77.08,-0.7917000000000001,0.6046,-0.0477,0.0722,0.016,0.008,0.013000000000000001
2025-11-06 18:37:24.024,296.23,-0.003,0.269,0.192,-0.164,-0.962,-0.28800000000000003,24.29,-21.66,-77.08,-0.7922,0.6039,-0.0476,0.0733,0.007,0.011,0.021
2025-11-06 18:37:24.024,296.235,-0.015,0.255,0.20400000000000001,-0.17200000000000001,-0.968,-0.28700000000000003,24.14,-21.07,-76.14,-0.7926000000000001,0.6032000000000001,-0.0478,0.07440000000000001,0.015,0.017,0.019
2025-11-06 18:37:24.024,296.24,-0.023,0.234,0.212,-0.165,-0.97,-0.291,24.14,-21.07,-76.14,-0.793,0.6025,-0.0477,0.0753,0.006,0.02,0.022
2025-11-06 18:37:24.024,296.245,-0.026000000000000002,0.211,0.224,-0.181,-0.969,-0.28700000000000003,24.14,-21.07,-76.14,-0.7932,0.602,-0.0483,0.07640000000000001,0.02,0.019,0.016
2025-11-06 18:37:24.024,296.25,-0.018000000000000002,0.20800000000000002,0.23,-0.181,-0.965,-0.281,24.23,-23.5,-76.32000000000001,-0.7933,0.6017,-0.049,0.07740000000000001,0.018000000000000002,0.016,0.009000000000000001
2025-11-06 18:37:24.024,296.255,-0.001,0.20600000000000002,0.241,-0.186,-0.961,-0.272,24.23,-23.5,-76.32000000000001,-0.7932,0.6017,-0.0499,0.0784,0.021,0.012,0.0
2025-11-06 18:37:24.024,296.26,0.03,0.20800000000000002,0.257,-0.185,-0.96,-0.255,24.23,-22.12,-76.38,-0.7926000000000001,0.6023000000000001,-0.050800000000000005,0.0791,0.017,0.012,-0.015
2025-11-06 18:37:24.024,296.265,0.048,0.212,0.27,-0.202,-0.963,-0.241,24.23,-22.12,-76.38,-0.7916000000000001,0.6033000000000001,-0.0524,0.0799,0.031,0.014,-0.026000000000000002
2025-11-06 18:37:24.024,296.285,0.065,0.17500000000000002,0.293,-0.193,-0.9420000000000001,-0.229,24.080000000000002,-22.5,-76.67,-0.7879,0.6075,-0.056400000000000006,0.0824,0.012,-0.006,-0.026000000000000002
2025-11-06 18:37:24.024,296.29,0.067,0.181,0.29,-0.193,-0.93,-0.233,24.080000000000002,-22.5,-76.67,-0.7873,0.6081,-0.0572,0.0834,0.009000000000000001,-0.019,-0.021
2025-11-06 18:37:24.024,296.295,0.07,0.193,0.28700000000000003,-0.188,-0.915,-0.247,24.080000000000002,-22.5,-76.67,-0.7871,0.6081,-0.0575,0.08460000000000001,0.002,-0.033,-0.006
2025-11-06 18:37:24.024,296.3,0.07,0.177,0.28500000000000003,-0.193,-0.904,-0.278,23.7,-23.150000000000002,-76.38,-0.7878000000000001,0.607,-0.0575,0.0867,0.005,-0.044,0.022
2025-11-06 18:37:24.024,296.305,0.07100000000000001,0.149,0.289,-0.197,-0.905,-0.28200000000000003,23.7,-23.150000000000002,-76.38,-0.7885000000000001,0.6058,-0.0575,0.0887,0.006,-0.042,0.023
2025-11-06 18:37:24.024,296.31,0.083,0.146,0.293,-0.198,-0.902,-0.264,23.76,-22.77,-76.61,-0.7887000000000001,0.6053000000000001,-0.0579,0.0903,0.005,-0.044,0.003
2025-11-06 18:37:24.024,296.315,0.114,0.183,0.299,-0.203,-0.898,-0.245,23.76,-22.77,-76.61,-0.7883,0.6055,-0.058800000000000005,0.0915,0.007,-0.046,-0.015
2025-11-06 18:37:24.024,296.32,0.138,0.244,0.309,-0.228,-0.897,-0.217,23.41,-22.85,-76.0,-0.7872,0.6066,-0.0609,0.09280000000000001,0.028,-0.048,-0.04
2025-11-06 18:37:24.028,296.325,0.153,0.325,0.326,-0.241,-0.894,-0.20400000000000001,23.41,-22.85,-76.0,-0.7857000000000001,0.6079,-0.06330000000000001,0.0942,0.035,-0.05,-0.049
2025-11-06 18:37:24.030,296.33,0.162,0.352,0.339,-0.261,-0.888,-0.201,23.41,-22.85,-76.0,-0.7842,0.6092000000000001,-0.0661,0.0964,0.048,-0.056,-0.048
2025-11-06 18:37:24.030,296.335,0.163,0.386,0.34400000000000003,-0.271,-0.878,-0.202,23.44,-22.12,-75.88,-0.7829,0.6102000000000001,-0.0689,0.09910000000000001,0.051000000000000004,-0.065,-0.044
2025-11-06 18:37:24.030,296.34,0.171,0.432,0.34400000000000003,-0.272,-0.868,-0.2,23.44,-22.12,-75.88,-0.7816000000000001,0.6112000000000001,-0.0713,0.1018,0.044,-0.074,-0.043000000000000003
2025-11-06 18:37:24.030,296.345,0.18,0.47600000000000003,0.34400000000000003,-0.274,-0.855,-0.20400000000000001,24.02,-23.44,-75.38,-0.7805000000000001,0.6118,-0.0733,0.1051,0.039,-0.08600000000000001,-0.037
2025-11-06 18:37:24.030,296.35,0.197,0.547,0.35100000000000003,-0.266,-0.842,-0.211,24.02,-23.44,-75.38,-0.7797000000000001,0.612,-0.0743,0.1086,0.025,-0.098,-0.028
2025-11-06 18:37:24.030,296.355,0.221,0.558,0.363,-0.245,-0.838,-0.227,24.02,-23.44,-75.38,-0.7795000000000001,0.6117,-0.07390000000000001,0.1121,0.0,-0.1,-0.013000000000000001
2025-11-06 18:37:24.030,296.36,0.234,0.578,0.376,-0.23,-0.841,-0.23,22.36,-22.21,-75.91,-0.7793,0.6115,-0.07300000000000001,0.115,-0.016,-0.096,-0.011
2025-11-06 18:37:24.030,296.365,0.252,0.603,0.392,-0.217,-0.849,-0.223,22.36,-22.21,-75.91,-0.7791,0.6116,-0.0719,0.11670000000000001,-0.03,-0.088,-0.018000000000000002
2025-11-06 18:37:24.030,296.37,0.292,0.618,0.428,-0.214,-0.871,-0.20500000000000002,22.71,-22.5,-74.42,-0.7783,0.6125,-0.07150000000000001,0.117,-0.033,-0.066,-0.035
2025-11-06 18:37:24.030,296.375,0.327,0.619,0.47100000000000003,-0.211,-0.899,-0.198,22.71,-22.5,-74.42,-0.7773,0.6139,-0.0713,0.11660000000000001,-0.035,-0.04,-0.038
2025-11-06 18:37:24.030,296.38,0.328,0.599,0.51,-0.216,-0.922,-0.199,22.71,-22.5,-74.42,-0.7763,0.6153000000000001,-0.0711,0.1163,-0.03,-0.017,-0.034
2025-11-06 18:37:24.030,296.385,0.304,0.561,0.547,-0.20700000000000002,-0.9510000000000001,-0.211,22.56,-22.56,-75.24,-0.7756000000000001,0.6164000000000001,-0.0704,0.1158,-0.037,0.009000000000000001,-0.019
2025-11-06 18:37:24.030,296.48,0.621,0.185,0.553,-0.241,-0.913,-0.146,20.34,-24.810000000000002,-72.96000000000001,-0.7499,0.6458,-0.0577,0.1307,-0.006,-0.041,-0.013000000000000001
2025-11-06 18:37:24.030,296.485,0.631,0.178,0.558,-0.23600000000000002,-0.902,-0.168,20.34,-24.810000000000002,-72.96000000000001,-0.7494000000000001,0.6461,-0.058300000000000005,0.13190000000000002,-0.014,-0.052000000000000005,0.01
2025-11-06 18:37:24.030,296.49,0.622,0.076,0.587,-0.295,-0.887,-0.129,19.84,-24.810000000000002,-72.52,-0.7469,0.6478,-0.058800000000000005,0.1373,0.037,-0.065,-0.024
2025-11-06 18:37:24.030,296.495,0.627,0.079,0.594,-0.243,-0.878,-0.156,19.84,-23.91,-72.52,-0.7462000000000001,0.6483,-0.059500000000000004,0.1388,-0.017,-0.073,0.003
2025-11-06 18:37:24.030,296.5,0.624,0.058,0.597,-0.258,-0.889,-0.148,19.84,-23.91,-72.52,-0.745,0.6491,-0.060200000000000004,0.1409,-0.006,-0.062,-0.003
2025-11-06 18:37:24.030,296.505,0.654,0.109,0.585,-0.269,-0.895,-0.181,19.7,-25.51,-71.9,-0.7448,0.6487,-0.0609,0.1433,0.0,-0.055,0.031
2025-11-06 18:37:24.030,296.51,0.652,0.171,0.584,-0.28800000000000003,-0.904,-0.218,19.7,-25.51,-71.9,-0.7454000000000001,0.6472,-0.0616,0.14650000000000002,0.014,-0.045,0.064
2025-11-06 18:37:24.030,296.515,0.603,0.093,0.607,-0.28700000000000003,-0.913,-0.20700000000000002,19.78,-24.080000000000002,-72.02,-0.7457,0.6463,-0.062400000000000004,0.1491,0.01,-0.034,0.049
2025-11-06 18:37:24.030,296.52,0.581,0.021,0.626,-0.277,-0.921,-0.182,19.78,-24.080000000000002,-72.02,-0.7453000000000001,0.6462,-0.0631,0.15080000000000002,-0.003,-0.024,0.024
2025-11-06 18:37:24.030,296.525,0.582,-0.01,0.635,-0.274,-0.931,-0.169,19.78,-24.080000000000002,-72.02,-0.7446,0.6467,-0.0637,0.152,-0.009000000000000001,-0.013000000000000001,0.013000000000000001
2025-11-06 18:37:24.030,296.53,0.603,-0.02,0.633,-0.28200000000000003,-0.932,-0.17300000000000001,19.26,-25.310000000000002,-71.32000000000001,-0.744,0.647,-0.0644,0.1534,-0.004,-0.012,0.018000000000000002
2025-11-06 18:37:24.030,296.535,0.628,-0.013000000000000001,0.624,-0.293,-0.929,-0.186,19.26,-25.310000000000002,-71.32000000000001,-0.7437,0.6469,-0.0653,0.15510000000000002,0.003,-0.014,0.031
2025-11-06 18:37:24.030,296.54,0.639,0.007,0.611,-0.293,-0.924,-0.192,18.85,-23.96,-71.87,-0.7435,0.6466000000000001,-0.066,0.1569,0.0,-0.018000000000000002,0.036000000000000004
2025-11-06 18:37:24.030,296.545,0.651,0.018000000000000002,0.606,-0.302,-0.922,-0.19,18.85,-23.96,-71.87,-0.7432000000000001,0.6464000000000001,-0.067,0.1588,0.006,-0.018000000000000002,0.034
2025-11-06 18:37:24.030,296.55,0.667,0.024,0.604,-0.303,-0.915,-0.189,18.85,-23.96,-71.87,-0.7429,0.6461,-0.0678,0.1607,0.002,-0.024,0.033
2025-11-06 18:37:24.030,296.555,0.672,0.043000000000000003,0.602,-0.296,-0.908,-0.192,18.94,-23.94,-71.06,-0.7428,0.6458,-0.0683,0.1625,-0.006,-0.031,0.036000000000000004
2025-11-06 18:37:24.030,296.56,0.646,0.08600000000000001,0.595,-0.299,-0.925,-0.197,18.94,-23.94,-71.06,-0.7427,0.6454000000000001,-0.0684,0.1642,-0.006,-0.013000000000000001,0.04
2025-11-06 18:37:24.031,296.565,0.631,0.098,0.6,-0.29,-0.9450000000000001,-0.191,18.44,-24.37,-70.0,-0.7424000000000001,0.6454000000000001,-0.0678,0.16570000000000001,-0.016,0.007,0.033
2025-11-06 18:37:24.031,296.57,0.631,0.089,0.607,-0.316,-0.9540000000000001,-0.184,18.44,-24.37,-70.0,-0.7418,0.6457,-0.0683,0.1673,0.006,0.017,0.026000000000000002
2025-11-06 18:37:24.031,296.575,0.629,0.083,0.61,-0.322,-0.9540000000000001,-0.178,18.44,-24.37,-70.0,-0.7411,0.646,-0.0689,0.1688,0.009000000000000001,0.017,0.021
2025-11-06 18:37:24.031,296.58,0.608,0.094,0.604,-0.312,-0.9410000000000001,-0.155,17.650000000000002,-24.32,-70.38,-0.7399,0.647,-0.0693,0.17020000000000002,-0.002,0.005,0.0
2025-11-06 18:37:24.031,296.585,0.5740000000000001,0.146,0.581,-0.298,-0.925,-0.136,17.650000000000002,-24.32,-70.38,-0.7384000000000001,0.6484,-0.069,0.1713,-0.017,-0.009000000000000001,-0.014
2025-11-06 18:37:24.031,296.59,0.5710000000000001,0.17300000000000001,0.5640000000000001,-0.31,-0.917,-0.134,17.48,-24.080000000000002,-70.12,-0.737,0.6497,-0.0693,0.17270000000000002,-0.008,-0.017,-0.012
2025-11-06 18:37:24.031,296.625,0.5640000000000001,0.316,0.428,-0.3,-0.9410000000000001,-0.123,17.3,-24.080000000000002,-69.21000000000001,-0.7257,0.6613,-0.0649,0.1779,-0.022,0.003,0.005
2025-11-06 18:37:24.031,296.63,0.533,0.336,0.421,-0.312,-0.9460000000000001,-0.139,17.3,-24.080000000000002,-69.21000000000001,-0.7255,0.6613,-0.0645,0.17880000000000001,-0.01,0.008,0.022
2025-11-06 18:37:24.031,296.635,0.455,0.368,0.402,-0.321,-0.934,-0.148,17.3,-24.080000000000002,-69.21000000000001,-0.7256,0.6609,-0.0645,0.18000000000000002,-0.003,-0.003,0.03
2025-11-06 18:37:24.031,296.64,0.434,0.364,0.389,-0.34,-0.919,-0.145,16.54,-24.34,-68.75,-0.7256,0.6603,-0.06520000000000001,0.1817,0.013000000000000001,-0.017,0.026000000000000002
2025-11-06 18:37:24.031,296.645,0.434,0.361,0.374,-0.34400000000000003,-0.911,-0.146,16.54,-24.34,-68.75,-0.7256,0.6598,-0.066,0.1835,0.014,-0.023,0.026000000000000002
2025-11-06 18:37:24.031,296.65,0.435,0.35000000000000003,0.354,-0.35000000000000003,-0.91,-0.14,16.45,-24.490000000000002,-68.22,-0.7253000000000001,0.6595000000000001,-0.0669,0.18530000000000002,0.017,-0.023,0.019
2025-11-06 18:37:24.031,296.655,0.447,0.337,0.336,-0.361,-0.919,-0.14400000000000002,16.45,-24.490000000000002,-68.22,-0.7251000000000001,0.6592,-0.0679,0.18710000000000002,0.023,-0.013000000000000001,0.022
2025-11-06 18:37:24.031,296.66,0.448,0.333,0.328,-0.356,-0.929,-0.152,16.45,-24.490000000000002,-68.22,-0.7250000000000001,0.6587000000000001,-0.0683,0.1888,0.016,-0.002,0.029
2025-11-06 18:37:24.031,296.665,0.44,0.327,0.324,-0.359,-0.9440000000000001,-0.156,16.57,-24.67,-68.48,-0.7250000000000001,0.6582,-0.0685,0.1904,0.017,0.014,0.032
2025-11-06 18:37:24.031,296.67,0.43,0.324,0.325,-0.35100000000000003,-0.9530000000000001,-0.164,16.57,-24.67,-68.48,-0.7252000000000001,0.6576000000000001,-0.068,0.19190000000000002,0.007,0.023,0.038
2025-11-06 18:37:24.031,296.675,0.421,0.325,0.319,-0.337,-0.9540000000000001,-0.17200000000000001,16.1,-24.11,-67.55,-0.7256,0.6569,-0.0668,0.1933,-0.006,0.025,0.044
2025-11-06 18:37:24.031,296.68,0.395,0.312,0.314,-0.323,-0.9530000000000001,-0.18,16.1,-24.11,-67.55,-0.7263000000000001,0.6559,-0.065,0.1945,-0.019,0.023,0.049
2025-11-06 18:37:24.031,296.685,0.379,0.293,0.306,-0.32,-0.9490000000000001,-0.18,16.1,-24.400000000000002,-67.96000000000001,-0.727,0.655,-0.06330000000000001,0.1957,-0.02,0.02,0.046
2025-11-06 18:37:24.031,296.69,0.363,0.275,0.292,-0.323,-0.9440000000000001,-0.17,16.1,-24.400000000000002,-67.96000000000001,-0.7273000000000001,0.6545000000000001,-0.061900000000000004,0.1968,-0.017,0.014,0.035
2025-11-06 18:37:24.031,296.695,0.353,0.272,0.278,-0.317,-0.931,-0.167,16.1,-24.400000000000002,-67.96000000000001,-0.7276,0.654,-0.0604,0.1978,-0.022,0.001,0.03
2025-11-06 18:37:24.031,296.7,0.342,0.264,0.254,-0.317,-0.915,-0.171,15.6,-26.6,-67.26,-0.7281000000000001,0.6533,-0.0594,0.19870000000000002,-0.021,-0.014,0.031
2025-11-06 18:37:24.031,296.705,0.335,0.265,0.233,-0.313,-0.906,-0.171,15.6,-26.6,-67.26,-0.7285,0.6525000000000001,-0.058300000000000005,0.1996,-0.025,-0.022,0.03
2025-11-06 18:37:24.031,296.71,0.338,0.278,0.215,-0.312,-0.914,-0.17200000000000001,15.66,-24.67,-66.67,-0.7289,0.6519,-0.057,0.2005,-0.025,-0.014,0.029
2025-11-06 18:37:24.031,296.715,0.34800000000000003,0.294,0.20700000000000002,-0.313,-0.932,-0.176,15.66,-24.67,-66.67,-0.7293000000000001,0.6514,-0.0553,0.20140000000000002,-0.023,0.002,0.031
2025-11-06 18:37:24.031,296.72,0.357,0.3,0.203,-0.306,-0.9470000000000001,-0.176,15.66,-24.67,-66.67,-0.7295,0.651,-0.053000000000000005,0.2024,-0.027,0.017,0.029
2025-11-06 18:37:24.031,296.725,0.352,0.315,0.199,-0.297,-0.931,-0.17300000000000001,15.6,-27.12,-66.82000000000001,-0.7297,0.6507000000000001,-0.0506,0.2034,-0.035,0.001,0.025
2025-11-06 18:37:24.031,296.73,0.34600000000000003,0.334,0.196,-0.306,-0.917,-0.167,15.6,-27.12,-66.82000000000001,-0.7298,0.6505000000000001,-0.049100000000000005,0.2043,-0.024,-0.013000000000000001,0.018000000000000002
2025-11-06 18:37:24.031,296.735,0.35000000000000003,0.342,0.186,-0.308,-0.911,-0.16,15.4,-24.05,-67.46000000000001,-0.7297,0.6504,-0.047900000000000005,0.20520000000000002,-0.021,-0.019,0.011
2025-11-06 18:37:24.031,296.74,0.358,0.333,0.176,-0.294,-0.922,-0.158,15.4,-24.05,-67.46000000000001,-0.7294,0.6506000000000001,-0.0455,0.20620000000000002,-0.034,-0.009000000000000001,0.009000000000000001
2025-11-06 18:37:24.031,296.745,0.365,0.303,0.169,-0.296,-0.928,-0.156,15.4,-24.05,-67.46000000000001,-0.729,0.6509,-0.043300000000000005,0.2071,-0.03,-0.003,0.007
2025-11-06 18:37:24.031,296.75,0.365,0.25,0.162,-0.289,-0.917,-0.155,15.58,-24.32,-66.88,-0.7286,0.6512,-0.0412,0.2079,-0.035,-0.016,0.006
2025-11-06 18:37:24.031,296.755,0.368,0.231,0.16,-0.291,-0.909,-0.14200000000000002,15.58,-24.32,-66.88,-0.7279,0.6518,-0.0393,0.2088,-0.031,-0.024,-0.005
2025-11-06 18:37:24.031,296.76,0.369,0.216,0.152,-0.28800000000000003,-0.916,-0.128,14.99,-24.11,-66.58,-0.7267,0.653,-0.0369,0.2099,-0.032,-0.018000000000000002,-0.017
2025-11-06 18:37:24.031,296.765,0.365,0.191,0.146,-0.28300000000000003,-0.924,-0.11800000000000001,14.99,-24.11,-66.58,-0.7252000000000001,0.6544,-0.0341,0.2109,-0.036000000000000004,-0.011,-0.023
2025-11-06 18:37:24.031,296.77,0.366,0.14,0.139,-0.28,-0.9440000000000001,-0.114,16.36,-24.87,-66.29,-0.7237,0.656,-0.031,0.2119,-0.036000000000000004,0.007,-0.024
2025-11-06 18:37:24.031,296.775,0.368,0.088,0.133,-0.294,-0.9570000000000001,-0.10400000000000001,16.36,-24.87,-66.29,-0.7218,0.6578,-0.0286,0.2129,-0.02,0.018000000000000002,-0.03
2025-11-06 18:37:24.031,296.78,0.365,0.075,0.122,-0.28400000000000003,-0.9530000000000001,-0.099,16.36,-24.87,-66.29,-0.7200000000000001,0.6596000000000001,-0.025900000000000003,0.2137,-0.028,0.014,-0.03
2025-11-06 18:37:24.031,296.785,0.357,0.079,0.113,-0.291,-0.9550000000000001,-0.1,15.46,-24.11,-66.23,-0.7184,0.6612,-0.0238,0.2144,-0.019,0.014,-0.025
2025-11-06 18:37:24.031,296.79,0.34700000000000003,0.059000000000000004,0.10300000000000001,-0.303,-0.9540000000000001,-0.105,15.46,-24.11,-66.23,-0.7171000000000001,0.6624,-0.0227,0.215,-0.006,0.012,-0.016
2025-11-06 18:37:24.032,296.795,0.341,0.041,0.096,-0.295,-0.9490000000000001,-0.109,15.55,-23.44,-65.97,-0.7162000000000001,0.6634,-0.021500000000000002,0.2152,-0.014,0.007,-0.01
2025-11-06 18:37:24.032,296.8,0.334,0.004,0.075,-0.305,-0.9430000000000001,-0.106,15.55,-23.44,-65.97,-0.7152000000000001,0.6644,-0.020900000000000002,0.2156,-0.004,0.0,-0.01
2025-11-06 18:37:24.032,296.805,0.332,0.004,0.062,-0.308,-0.933,-0.10300000000000001,15.55,-23.44,-65.97,-0.7142000000000001,0.6654,-0.0206,0.216,-0.001,-0.009000000000000001,-0.01
2025-11-06 18:37:24.032,296.81,0.327,0.02,0.05,-0.308,-0.927,-0.1,15.55,-23.580000000000002,-65.36,-0.7132000000000001,0.6663,-0.020300000000000002,0.2164,-0.002,-0.015,-0.011
2025-11-06 18:37:24.032,296.815,0.327,0.032,0.036000000000000004,-0.303,-0.919,-0.10300000000000001,15.55,-23.580000000000002,-65.36,-0.7125,0.667,-0.02,0.21660000000000001,-0.007,-0.023,-0.006
2025-11-06 18:37:24.032,296.82,0.332,0.043000000000000003,0.024,-0.304,-0.899,-0.106,15.280000000000001,-23.990000000000002,-64.54,-0.7120000000000001,0.6675,-0.020200000000000003,0.2169,-0.007,-0.043000000000000003,-0.001
2025-11-06 18:37:24.032,296.825,0.337,0.036000000000000004,0.02,-0.301,-0.887,-0.115,15.280000000000001,-23.990000000000002,-64.54,-0.7119000000000001,0.6675,-0.0206,0.2169,-0.011,-0.055,0.007
2025-11-06 18:37:24.032,296.83,0.341,0.03,0.015,-0.303,-0.882,-0.123,15.280000000000001,-23.990000000000002,-64.54,-0.7121000000000001,0.6673,-0.0213,0.2169,-0.009000000000000001,-0.06,0.015
2025-11-06 18:37:24.032,296.835,0.343,0.011,0.011,-0.305,-0.875,-0.127,14.84,-23.61,-64.65,-0.7124,0.6669,-0.0223,0.2169,-0.008,-0.066,0.018000000000000002
2025-11-06 18:37:24.032,296.84,0.338,-0.008,0.007,-0.311,-0.873,-0.129,14.84,-23.61,-64.65,-0.7127,0.6665,-0.0235,0.217,-0.004,-0.068,0.018000000000000002
2025-11-06 18:37:24.032,296.845,0.327,-0.052000000000000005,0.006,-0.31,-0.872,-0.128,14.700000000000001,-26.19,-64.92,-0.7130000000000001,0.6662,-0.0247,0.217,-0.006,-0.068,0.017
2025-11-06 18:37:24.032,296.85,0.314,-0.082,0.0,-0.318,-0.874,-0.123,14.700000000000001,-26.19,-64.92,-0.7130000000000001,0.666,-0.026000000000000002,0.21710000000000002,0.0,-0.066,0.011
2025-11-06 18:37:24.032,296.855,0.306,-0.117,-0.004,-0.305,-0.867,-0.122,14.700000000000001,-26.19,-64.92,-0.7131000000000001,0.6659,-0.0267,0.217,-0.015,-0.07200000000000001,0.01
2025-11-06 18:37:24.032,296.86,0.296,-0.145,-0.01,-0.317,-0.864,-0.116,14.84,-23.64,-64.71000000000001,-0.7130000000000001,0.666,-0.028,0.217,-0.004,-0.074,0.005
2025-11-06 18:37:24.032,296.865,0.28500000000000003,-0.176,-0.017,-0.307,-0.857,-0.113,14.84,-23.64,-64.71000000000001,-0.7129000000000001,0.6662,-0.028900000000000002,0.2169,-0.016,-0.081,0.001
2025-11-06 18:37:24.032,296.87,0.28800000000000003,-0.191,-0.021,-0.312,-0.85,-0.10300000000000001,14.790000000000001,-24.900000000000002,-64.27,-0.7124,0.6666000000000001,-0.030000000000000002,0.21680000000000002,-0.013000000000000001,-0.088,-0.006
2025-11-06 18:37:24.032,296.875,0.28500000000000003,-0.185,-0.031,-0.293,-0.843,-0.093,14.790000000000001,-24.900000000000002,-64.27,-0.7118,0.6674,-0.0302,0.2164,-0.032,-0.094,-0.014
2025-11-06 18:37:24.032,296.88,0.28400000000000003,-0.179,-0.039,-0.29,-0.841,-0.083,15.11,-23.2,-64.22,-0.7110000000000001,0.6684,-0.0302,0.216,-0.035,-0.096,-0.022
2025-11-06 18:37:24.032,296.885,0.279,-0.168,-0.046,-0.3,-0.836,-0.081,15.11,-23.2,-64.22,-0.7101000000000001,0.6694,-0.0307,0.21580000000000002,-0.026000000000000002,-0.10200000000000001,-0.02
2025-11-06 18:37:24.032,296.89,0.248,-0.151,-0.065,-0.281,-0.834,-0.081,15.11,-23.2,-64.22,-0.7095,0.6702,-0.0303,0.2152,-0.044,-0.10400000000000001,-0.018000000000000002
2025-11-06 18:37:24.032,296.895,0.227,-0.14,-0.076,-0.28700000000000003,-0.8320000000000001,-0.079,14.93,-23.2,-64.83,-0.7089000000000001,0.671,-0.0303,0.21480000000000002,-0.038,-0.107,-0.019
2025-11-06 18:37:24.032,296.9,0.215,-0.128,-0.08600000000000001,-0.29,-0.8310000000000001,-0.075,14.93,-23.2,-64.83,-0.7082,0.6718000000000001,-0.0304,0.21450000000000002,-0.034,-0.108,-0.02
2025-11-06 18:37:24.032,296.905,0.203,-0.125,-0.097,-0.28400000000000003,-0.837,-0.07200000000000001,14.73,-22.71,-65.12,-0.7075,0.6727000000000001,-0.0302,0.21400000000000002,-0.04,-0.10200000000000001,-0.021
2025-11-06 18:37:24.032,296.91,0.195,-0.11800000000000001,-0.105,-0.29,-0.842,-0.064,14.73,-22.71,-65.12,-0.7067,0.6738000000000001,-0.030000000000000002,0.21350000000000002,-0.034,-0.097,-0.026000000000000002
2025-11-06 18:37:24.032,296.915,0.183,-0.106,-0.114,-0.295,-0.853,-0.055,14.73,-22.71,-65.12,-0.7056,0.6751,-0.030000000000000002,0.21300000000000002,-0.028,-0.08700000000000001,-0.032
2025-11-06 18:37:24.032,296.92,0.17300000000000001,-0.108,-0.12,-0.309,-0.862,-0.047,14.9,-22.97,-64.77,-0.7042,0.6765,-0.0303,0.21280000000000002,-0.015,-0.078,-0.036000000000000004
2025-11-06 18:37:24.032,296.925,0.168,-0.116,-0.126,-0.317,-0.873,-0.041,14.9,-22.97,-64.77,-0.7028,0.6781,-0.0307,0.2126,-0.007,-0.067,-0.037
2025-11-06 18:37:24.032,296.93,0.166,-0.14100000000000001,-0.133,-0.32,-0.88,-0.034,15.43,-22.650000000000002,-65.36,-0.7012,0.6797000000000001,-0.031200000000000002,0.2124,-0.005,-0.06,-0.04
2025-11-06 18:37:24.032,296.935,0.167,-0.168,-0.14,-0.329,-0.881,-0.025,15.43,-22.650000000000002,-65.36,-0.6995,0.6816,-0.031900000000000005,0.21230000000000002,0.001,-0.059000000000000004,-0.044
2025-11-06 18:37:24.032,296.94,0.159,-0.198,-0.148,-0.33,-0.876,-0.021,15.43,-22.650000000000002,-65.36,-0.6977,0.6834,-0.0327,0.2121,0.001,-0.063,-0.043000000000000003
2025-11-06 18:37:24.032,296.945,0.145,-0.209,-0.158,-0.323,-0.874,-0.022,15.780000000000001,-22.47,-64.74,-0.6963,0.6849000000000001,-0.0333,0.21180000000000002,-0.006,-0.066,-0.037
2025-11-06 18:37:24.032,296.95,0.131,-0.221,-0.17,-0.321,-0.872,-0.029,15.780000000000001,-22.47,-64.74,-0.6952,0.6861,-0.033800000000000004,0.2114,-0.009000000000000001,-0.067,-0.027
2025-11-06 18:37:24.032,296.955,0.11800000000000001,-0.223,-0.181,-0.323,-0.87,-0.034,16.1,-22.62,-64.27,-0.6943,0.687,-0.0342,0.21130000000000002,-0.008,-0.07,-0.019
2025-11-06 18:37:24.032,296.96,0.10400000000000001,-0.23600000000000002,-0.191,-0.322,-0.865,-0.028,16.1,-22.62,-64.27,-0.6934,0.6880000000000001,-0.0347,0.21100000000000002,-0.009000000000000001,-0.074,-0.023
2025-11-06 18:37:24.032,296.965,0.083,-0.23800000000000002,-0.197,-0.312,-0.858,-0.029,15.69,-22.68,-64.22,-0.6927,0.6888000000000001,-0.0351,0.21050000000000002,-0.02,-0.082,-0.019
2025-11-06 18:37:24.032,296.97,0.068,-0.247,-0.202,-0.31,-0.85,-0.032,15.69,-22.68,-64.22,-0.6922,0.6895,-0.0354,0.21000000000000002,-0.022,-0.09,-0.014
2025-11-06 18:37:24.032,296.975,0.056,-0.263,-0.21,-0.298,-0.838,-0.037,15.69,-22.68,-64.22,-0.6920000000000001,0.6898000000000001,-0.035500000000000004,0.2093,-0.033,-0.10200000000000001,-0.008
2025-11-06 18:37:24.032,296.98,0.05,-0.279,-0.219,-0.28700000000000003,-0.8230000000000001,-0.042,15.31,-22.68,-63.660000000000004,-0.6921,0.6900000000000001,-0.035500000000000004,0.20850000000000002,-0.043000000000000003,-0.117,-0.002
2025-11-06 18:37:24.032,296.985,0.044,-0.304,-0.243,-0.257,-0.811,-0.045,15.31,-22.68,-63.660000000000004,-0.6928000000000001,0.6900000000000001,-0.0351,0.2063,-0.07100000000000001,-0.13,0.0
2025-11-06 18:37:24.032,296.99,0.045,-0.313,-0.252,-0.271,-0.806,-0.045,16.1,-22.85,-64.65,-0.6931,0.6900000000000001,-0.035,0.2051,-0.055,-0.136,0.0
2025-11-06 18:37:24.032,296.995,0.046,-0.305,-0.259,-0.269,-0.793,-0.054,16.1,-22.85,-64.65,-0.6937,0.6897,-0.0349,0.20420000000000002,-0.055,-0.149,0.008
2025-11-06 18:37:24.032,297.0,0.046,-0.28800000000000003,-0.258,-0.267,-0.782,-0.057,16.1,-22.85,-64.65,-0.6944,0.6892,-0.034800000000000005,0.2036,-0.056,-0.161,0.01
2025-11-06 18:37:24.032,297.005,0.042,-0.266,-0.26,-0.259,-0.776,-0.058,16.98,-22.94,-64.51,-0.6951,0.6887,-0.0345,0.2028,-0.062,-0.167,0.009000000000000001
2025-11-06 18:37:24.034,297.01,0.024,-0.258,-0.252,-0.257,-0.771,-0.044,16.98,-22.94,-64.51,-0.6954,0.6887,-0.0344,0.2018,-0.063,-0.17300000000000001,-0.004
2025-11-06 18:37:24.034,297.015,0.017,-0.251,-0.254,-0.255,-0.769,-0.029,16.04,-22.68,-64.98,-0.6952,0.6893,-0.034300000000000004,0.2006,-0.064,-0.176,-0.017
2025-11-06 18:37:24.034,297.02,0.015,-0.228,-0.257,-0.265,-0.772,-0.017,16.04,-22.68,-64.98,-0.6945,0.6902,-0.0346,0.1998,-0.053,-0.17300000000000001,-0.028
2025-11-06 18:37:24.034,297.025,0.02,-0.199,-0.268,-0.264,-0.777,-0.007,16.04,-22.68,-64.98,-0.6936,0.6915,-0.0347,0.19870000000000002,-0.053,-0.168,-0.034
2025-11-06 18:37:24.034,297.03,0.016,-0.177,-0.28,-0.261,-0.796,0.016,16.22,-22.740000000000002,-65.27,-0.6920000000000001,0.6935,-0.034800000000000005,0.197,-0.055,-0.15,-0.053
2025-11-06 18:37:24.034,297.035,0.018000000000000002,-0.156,-0.29,-0.261,-0.8130000000000001,0.023,16.22,-22.740000000000002,-65.27,-0.6905,0.6955,-0.0347,0.1951,-0.052000000000000005,-0.133,-0.054
2025-11-06 18:37:24.034,297.04,0.021,-0.14200000000000002,-0.3,-0.264,-0.8250000000000001,0.022,16.51,-25.13,-65.24,-0.6891,0.6974,-0.0345,0.19340000000000002,-0.048,-0.122,-0.048
2025-11-06 18:37:24.034,297.045,0.026000000000000002,-0.145,-0.312,-0.271,-0.84,0.018000000000000002,16.51,-25.13,-65.24,-0.6880000000000001,0.6989000000000001,-0.0344,0.192,-0.039,-0.108,-0.039
2025-11-06 18:37:24.034,297.05,0.032,-0.156,-0.32,-0.272,-0.849,0.015,16.830000000000002,-24.55,-64.77,-0.6871,0.7002,-0.0341,0.19060000000000002,-0.036000000000000004,-0.1,-0.033
2025-11-06 18:37:24.034,297.055,0.032,-0.176,-0.336,-0.273,-0.867,0.012,16.830000000000002,-24.55,-64.77,-0.6864,0.7013,-0.0339,0.18910000000000002,-0.032,-0.083,-0.026000000000000002
2025-11-06 18:37:24.034,297.06,0.024,-0.19,-0.34600000000000003,-0.273,-0.874,0.008,16.830000000000002,-24.55,-64.77,-0.6859000000000001,0.7022,-0.033600000000000005,0.18760000000000002,-0.031,-0.076,-0.02
2025-11-06 18:37:24.035,297.065,0.021,-0.20800000000000002,-0.357,-0.291,-0.884,0.0,17.18,-23.79,-65.01,-0.6855,0.7027,-0.0334,0.1872,-0.011,-0.067,-0.01
2025-11-06 18:37:24.035,297.07,0.012,-0.219,-0.362,-0.295,-0.887,-0.008,17.18,-23.79,-65.01,-0.6854,0.7028,-0.033100000000000004,0.18710000000000002,-0.006,-0.064,-0.001
2025-11-06 18:37:24.035,297.075,-0.001,-0.23900000000000002,-0.368,-0.303,-0.889,-0.014,16.89,-24.52,-65.71000000000001,-0.6854,0.7028,-0.0329,0.1874,0.0,-0.062,0.004
2025-11-06 18:37:24.035,297.08,-0.015,-0.28,-0.378,-0.304,-0.879,-0.024,16.89,-24.52,-65.71000000000001,-0.6856,0.7024,-0.0328,0.188,0.001,-0.07200000000000001,0.014
2025-11-06 18:37:24.035,297.085,-0.021,-0.299,-0.39,-0.305,-0.871,-0.03,16.89,-24.52,-65.71000000000001,-0.686,0.7019000000000001,-0.0327,0.1887,0.002,-0.08,0.017
2025-11-06 18:37:24.035,297.09,-0.028,-0.311,-0.398,-0.302,-0.863,-0.038,17.39,-23.38,-65.27,-0.6866,0.7011000000000001,-0.032600000000000004,0.1895,-0.001,-0.08700000000000001,0.024
2025-11-06 18:37:24.036,297.095,-0.035,-0.315,-0.41100000000000003,-0.302,-0.856,-0.043000000000000003,17.39,-23.38,-65.27,-0.6873,0.7001000000000001,-0.0325,0.1903,-0.002,-0.094,0.027
2025-11-06 18:37:24.036,297.1,-0.047,-0.309,-0.42,-0.299,-0.847,-0.041,17.56,-22.39,-65.01,-0.6879000000000001,0.6993,-0.0324,0.19090000000000001,-0.006,-0.10300000000000001,0.022
2025-11-06 18:37:24.036,297.105,-0.061,-0.28400000000000003,-0.427,-0.296,-0.836,-0.041,17.56,-22.39,-65.01,-0.6886,0.6986,-0.0324,0.1915,-0.01,-0.114,0.019
2025-11-06 18:37:24.036,297.11,-0.063,-0.272,-0.431,-0.28600000000000003,-0.8310000000000001,-0.043000000000000003,17.56,-22.39,-65.01,-0.6893,0.6978000000000001,-0.0322,0.1918,-0.02,-0.11900000000000001,0.019
2025-11-06 18:37:24.036,297.115,-0.066,-0.252,-0.431,-0.28200000000000003,-0.8220000000000001,-0.035,17.86,-21.92,-64.89,-0.6898000000000001,0.6973,-0.032100000000000004,0.1918,-0.023,-0.128,0.01
2025-11-06 18:37:24.036,297.12,-0.07100000000000001,-0.25,-0.429,-0.28300000000000003,-0.8130000000000001,-0.034,17.86,-21.92,-64.89,-0.6902,0.6968000000000001,-0.0323,0.1918,-0.022,-0.137,0.008
2025-11-06 18:37:24.036,297.125,-0.092,-0.256,-0.433,-0.281,-0.805,-0.031,18.03,-21.3,-65.41,-0.6906,0.6965,-0.0325,0.1918,-0.025,-0.14400000000000002,0.004
2025-11-06 18:37:24.036,297.13,-0.114,-0.253,-0.439,-0.28200000000000003,-0.804,-0.02,18.03,-21.3,-65.41,-0.6906,0.6965,-0.0332,0.1913,-0.024,-0.145,-0.007
2025-11-06 18:37:24.036,297.135,-0.117,-0.249,-0.445,-0.28300000000000003,-0.804,-0.006,18.38,-21.63,-65.15,-0.6903,0.6970000000000001,-0.0342,0.1904,-0.023,-0.145,-0.019
2025-11-06 18:37:24.036,297.14,-0.12,-0.23500000000000001,-0.451,-0.292,-0.806,0.007,18.38,-21.63,-65.15,-0.6896,0.6980000000000001,-0.0357,0.1894,-0.015,-0.14300000000000002,-0.031
2025-11-06 18:37:24.036,297.145,-0.127,-0.21,-0.462,-0.307,-0.811,0.02,18.38,-21.63,-65.15,-0.6885,0.6992,-0.0378,0.1885,-0.002,-0.138,-0.04
2025-11-06 18:37:24.036,297.15,-0.139,-0.179,-0.47500000000000003,-0.327,-0.8180000000000001,0.033,18.44,-21.63,-65.47,-0.687,0.7007,-0.0405,0.1879,0.014,-0.129,-0.048
2025-11-06 18:37:24.036,297.155,-0.132,-0.171,-0.486,-0.339,-0.8230000000000001,0.037,18.44,-21.63,-65.47,-0.6853,0.7022,-0.0431,0.1877,0.023,-0.124,-0.048
2025-11-06 18:37:24.036,297.16,-0.115,-0.176,-0.493,-0.34700000000000003,-0.8230000000000001,0.041,19.05,-21.01,-65.59,-0.6836,0.7037,-0.0458,0.18780000000000002,0.027,-0.122,-0.047
2025-11-06 18:37:24.036,297.165,-0.099,-0.176,-0.496,-0.35000000000000003,-0.8210000000000001,0.042,19.05,-21.01,-65.59,-0.6819000000000001,0.7051000000000001,-0.048100000000000004,0.18810000000000002,0.026000000000000002,-0.122,-0.043000000000000003
2025-11-06 18:37:24.036,297.17,-0.088,-0.178,-0.498,-0.354,-0.8190000000000001,0.036000000000000004,19.05,-21.01,-65.59,-0.6804,0.7062,-0.05,0.189,0.025,-0.124,-0.034
2025-11-06 18:37:24.036,297.175,-0.081,-0.17300000000000001,-0.501,-0.352,-0.8150000000000001,0.028,19.7,-22.12,-66.26,-0.6791,0.7069000000000001,-0.0511,0.1903,0.019,-0.126,-0.023
2025-11-06 18:37:24.036,297.18,-0.079,-0.159,-0.505,-0.34600000000000003,-0.808,0.013000000000000001,19.7,-22.12,-66.26,-0.6783,0.7072,-0.051300000000000005,0.1925,0.011,-0.132,-0.007
2025-11-06 18:37:24.036,297.185,-0.081,-0.132,-0.499,-0.34,-0.805,0.002,19.2,-21.1,-66.38,-0.6778000000000001,0.7070000000000001,-0.0507,0.19490000000000002,0.002,-0.134,0.002
2025-11-06 18:37:24.036,297.19,-0.084,-0.101,-0.494,-0.333,-0.8,-0.012,19.2,-21.1,-66.38,-0.6777000000000001,0.7064,-0.049100000000000005,0.198,-0.006,-0.138,0.015
2025-11-06 18:37:24.036,297.195,-0.089,-0.064,-0.487,-0.327,-0.796,-0.027,19.2,-21.1,-66.38,-0.6779000000000001,0.7053,-0.046700000000000005,0.20170000000000002,-0.014,-0.14200000000000002,0.027
2025-11-06 18:37:24.036,297.2,-0.105,-0.025,-0.47700000000000004,-0.319,-0.788,-0.029,19.35,-21.19,-66.35,-0.6783,0.7041000000000001,-0.0443,0.2048,-0.023,-0.149,0.025
2025-11-06 18:37:24.036,297.205,-0.122,0.002,-0.47600000000000003,-0.312,-0.779,-0.021,19.35,-21.19,-66.35,-0.6786,0.7034,-0.042800000000000005,0.2068,-0.031,-0.158,0.014
2025-11-06 18:37:24.036,297.21,-0.136,0.028,-0.47600000000000003,-0.301,-0.766,-0.015,19.84,-20.6,-66.55,-0.6789000000000001,0.7028,-0.041800000000000004,0.2079,-0.042,-0.171,0.007
2025-11-06 18:37:24.036,297.215,-0.149,0.037,-0.48,-0.293,-0.754,-0.012,19.84,-20.6,-66.55,-0.6793,0.7024,-0.041100000000000005,0.2084,-0.049,-0.183,0.002
2025-11-06 18:37:24.036,297.22,-0.163,0.052000000000000005,-0.489,-0.28600000000000003,-0.736,-0.002,19.84,-20.6,-66.55,-0.6795,0.7023,-0.0412,0.20800000000000002,-0.057,-0.201,-0.007
2025-11-06 18:37:24.036,297.225,-0.17300000000000001,0.07200000000000001,-0.489,-0.28500000000000003,-0.725,0.005,20.400000000000002,-20.63,-66.41,-0.6795,0.7025,-0.0419,0.2071,-0.058,-0.212,-0.014
2025-11-06 18:37:24.036,297.23,-0.176,0.099,-0.492,-0.292,-0.72,0.015,20.400000000000002,-20.63,-66.41,-0.6792,0.7030000000000001,-0.043500000000000004,0.20600000000000002,-0.051000000000000004,-0.217,-0.023
2025-11-06 18:37:24.036,297.235,-0.18,0.132,-0.491,-0.299,-0.715,0.018000000000000002,20.11,-20.57,-66.17,-0.6787000000000001,0.7035,-0.0454,0.20520000000000002,-0.045,-0.221,-0.024
2025-11-06 18:37:24.038,297.24,-0.186,0.162,-0.489,-0.307,-0.718,0.017,20.11,-20.57,-66.17,-0.6783,0.7039000000000001,-0.046900000000000004,0.2051,-0.039,-0.218,-0.021
2025-11-06 18:37:24.038,297.245,-0.193,0.198,-0.48,-0.307,-0.722,0.012,20.37,-20.43,-66.53,-0.6779000000000001,0.7041000000000001,-0.047900000000000005,0.2054,-0.041,-0.213,-0.016
2025-11-06 18:37:24.038,297.25,-0.197,0.227,-0.47000000000000003,-0.296,-0.722,0.009000000000000001,20.37,-20.43,-66.53,-0.6779000000000001,0.7041000000000001,-0.048400000000000006,0.2054,-0.053,-0.213,-0.013000000000000001
2025-11-06 18:37:24.038,297.255,-0.203,0.262,-0.462,-0.28,-0.721,0.006,20.37,-20.43,-66.53,-0.6781,0.7041000000000001,-0.0482,0.2049,-0.069,-0.214,-0.01
2025-11-06 18:37:24.038,297.26,-0.209,0.316,-0.458,-0.263,-0.717,0.0,20.14,-20.900000000000002,-66.61,-0.6787000000000001,0.7037,-0.0473,0.20420000000000002,-0.083,-0.218,-0.004
2025-11-06 18:37:24.038,297.265,-0.212,0.369,-0.456,-0.23700000000000002,-0.715,-0.015,20.14,-20.900000000000002,-66.61,-0.68,0.7029000000000001,-0.044700000000000004,0.2036,-0.105,-0.222,0.008
2025-11-06 18:37:24.038,297.27,-0.20700000000000002,0.457,-0.457,-0.217,-0.717,-0.053,20.52,-20.25,-66.2,-0.6823,0.7006,-0.0392,0.2049,-0.12,-0.222,0.04
2025-11-06 18:37:24.038,297.275,-0.209,0.515,-0.46,-0.20700000000000002,-0.723,-0.07100000000000001,20.52,-20.25,-66.2,-0.6849000000000001,0.6978000000000001,-0.0329,0.20670000000000002,-0.122,-0.219,0.049
2025-11-06 18:37:24.038,297.28,-0.226,0.5640000000000001,-0.47000000000000003,-0.197,-0.729,-0.078,20.52,-20.25,-66.2,-0.6877,0.6949000000000001,-0.0264,0.2083,-0.124,-0.215,0.047
2025-11-06 18:37:24.038,297.285,-0.253,0.609,-0.47800000000000004,-0.201,-0.731,-0.076,20.57,-20.28,-66.32000000000001,-0.6901,0.6922,-0.0207,0.2096,-0.114,-0.215,0.037
2025-11-06 18:37:24.038,297.29,-0.299,0.641,-0.487,-0.20800000000000002,-0.736,-0.062,20.57,-20.28,-66.32000000000001,-0.6920000000000001,0.6902,-0.0164,0.2104,-0.1,-0.212,0.017
2025-11-06 18:37:24.038,297.295,-0.35100000000000003,0.653,-0.499,-0.228,-0.747,-0.058,20.87,-19.900000000000002,-66.7,-0.6936,0.6885,-0.0134,0.2111,-0.076,-0.202,0.007
2025-11-06 18:37:24.038,297.3,-0.38,0.646,-0.508,-0.252,-0.765,-0.044,20.87,-19.900000000000002,-66.7,-0.6945,0.6875,-0.0122,0.2116,-0.049,-0.185,-0.009000000000000001
2025-11-06 18:37:24.038,297.305,-0.40900000000000003,0.649,-0.524,-0.262,-0.774,-0.022,20.87,-19.900000000000002,-66.7,-0.6947,0.6873,-0.0119,0.21130000000000002,-0.039,-0.176,-0.032
2025-11-06 18:37:24.038,297.31,-0.424,0.665,-0.546,-0.262,-0.773,0.0,20.78,-19.26,-66.29,-0.6943,0.6880000000000001,-0.0122,0.2102,-0.038,-0.177,-0.053
2025-11-06 18:37:24.040,297.315,-0.431,0.687,-0.58,-0.249,-0.771,0.009000000000000001,20.78,-19.26,-66.29,-0.6939000000000001,0.6890000000000001,-0.012100000000000001,0.2086,-0.049,-0.18,-0.059000000000000004
2025-11-06 18:37:24.040,297.32,-0.437,0.676,-0.596,-0.251,-0.777,0.004,21.25,-19.73,-66.93,-0.6936,0.6897,-0.0117,0.2073,-0.046,-0.17400000000000002,-0.053
2025-11-06 18:37:24.040,297.325,-0.464,0.645,-0.602,-0.23800000000000002,-0.781,0.0,21.25,-19.73,-66.93,-0.6936,0.6902,-0.0108,0.20570000000000002,-0.056,-0.171,-0.046
2025-11-06 18:37:24.040,297.33,-0.509,0.611,-0.601,-0.211,-0.777,-0.007,20.78,-19.32,-66.61,-0.6942,0.6902,-0.0091,0.20350000000000001,-0.078,-0.177,-0.039
2025-11-06 18:37:24.040,297.335,-0.547,0.594,-0.591,-0.17400000000000002,-0.753,-0.031,20.78,-19.32,-66.61,-0.6960000000000001,0.6893,-0.006200000000000001,0.20070000000000002,-0.107,-0.203,-0.017
2025-11-06 18:37:24.040,297.34,-0.582,0.5700000000000001,-0.58,-0.14100000000000001,-0.711,-0.069,20.78,-19.32,-66.61,-0.6994,0.6866,-0.0024000000000000002,0.1981,-0.131,-0.247,0.014
2025-11-06 18:37:24.040,297.345,-0.596,0.55,-0.579,-0.126,-0.671,-0.095,21.92,-19.78,-66.85,-0.7037,0.6828000000000001,0.0015,0.196,-0.136,-0.29,0.03
2025-11-06 18:37:24.040,297.35,-0.618,0.53,-0.587,-0.097,-0.631,-0.115,21.92,-19.78,-66.85,-0.7090000000000001,0.678,0.0061,0.19340000000000002,-0.154,-0.332,0.038
2025-11-06 18:37:24.040,297.355,-0.656,0.519,-0.59,-0.07,-0.592,-0.126,22.12,-20.14,-67.58,-0.7150000000000001,0.6725,0.011300000000000001,0.1902,-0.168,-0.373,0.035
2025-11-06 18:37:24.040,297.36,-0.705,0.541,-0.589,-0.058,-0.5650000000000001,-0.179,22.12,-20.14,-67.58,-0.7238,0.6642,0.0146,0.1859,-0.165,-0.402,0.068
2025-11-06 18:37:24.040,297.365,-0.768,0.551,-0.593,-0.061,-0.611,-0.261,22.12,-20.14,-67.58,-0.7348,0.6534,0.016,0.18100000000000002,-0.149,-0.355,0.122
2025-11-06 18:37:24.040,297.37,-0.798,0.531,-0.598,-0.03,-0.728,-0.273,21.25,-19.52,-67.96000000000001,-0.7426,0.6446000000000001,0.0239,0.1796,-0.164,-0.23800000000000002,0.11
2025-11-06 18:37:24.040,297.375,-0.8290000000000001,0.494,-0.601,0.004,-0.849,-0.23700000000000002,21.25,-19.52,-67.96000000000001,-0.7461,0.639,0.0388,0.1827,-0.179,-0.11800000000000001,0.059000000000000004
2025-11-06 18:37:24.040,297.38,-0.912,0.444,-0.612,0.027,-0.9420000000000001,-0.233,22.27,-19.35,-67.31,-0.7481,0.6342,0.054900000000000004,0.1867,-0.181,-0.027,0.045
2025-11-06 18:37:24.040,297.385,-1.037,0.327,-0.662,0.014,-1.049,-0.324,22.27,-19.35,-67.31,-0.7534000000000001,0.6279,0.0626,0.18460000000000001,-0.147,0.079,0.124
2025-11-06 18:37:24.040,297.39,-1.056,0.22,-0.7000000000000001,0.02,-1.057,-0.391,22.27,-19.35,-67.31,-0.7608,0.6204000000000001,0.0655,0.17850000000000002,-0.138,0.088,0.17300000000000001
2025-11-06 18:37:24.040,297.395,-0.9400000000000001,0.23900000000000002,-0.72,0.081,-1.018,-0.378,22.12,-20.37,-67.26,-0.7664000000000001,0.6132000000000001,0.07440000000000001,0.17600000000000002,-0.181,0.05,0.14400000000000002
2025-11-06 18:37:24.040,297.4,-0.766,0.313,-0.718,0.182,-0.9390000000000001,-0.28600000000000003,22.12,-20.37,-67.26,-0.7663000000000001,0.6073000000000001,0.0988,0.1842,-0.256,-0.026000000000000002,0.043000000000000003
2025-11-06 18:37:24.040,297.405,-0.609,0.455,-0.704,0.258,-0.872,-0.11800000000000001,22.330000000000002,-19.080000000000002,-67.64,-0.7566,0.6042000000000001,0.1409,0.2061,-0.298,-0.096,-0.116
2025-11-06 18:37:24.040,297.41,-0.40800000000000003,0.492,-0.643,0.244,-0.8140000000000001,-0.007,22.330000000000002,-19.080000000000002,-67.64,-0.7427,0.6029,0.1819,0.22710000000000002,-0.25,-0.16,-0.20500000000000002
2025-11-06 18:37:24.040,297.415,-0.274,0.41300000000000003,-0.597,0.178,-0.8240000000000001,0.01,21.830000000000002,-18.7,-67.96000000000001,-0.7298,0.6023000000000001,0.21280000000000002,0.2432,-0.161,-0.155,-0.199
2025-11-06 18:37:24.040,297.42,-0.14100000000000001,0.302,-0.545,0.079,-0.86,0.041,21.830000000000002,-18.7,-67.96000000000001,-0.7145,0.6029,0.2388,0.2621,-0.05,-0.123,-0.20600000000000002
2025-11-06 18:37:24.040,297.425,-0.062,0.162,-0.489,-0.05,-0.93,0.11900000000000001,21.830000000000002,-18.7,-67.96000000000001,-0.6951,0.6057,0.2616,0.2853,0.076,-0.058,-0.255
2025-11-06 18:37:24.040,297.43,-0.056,-0.03,-0.382,-0.263,-1.049,0.256,21.77,-18.67,-67.96000000000001,-0.674,0.6134000000000001,0.275,0.306,0.272,0.056,-0.359
2025-11-06 18:37:24.040,297.435,0.10400000000000001,-0.509,-0.227,-0.521,-1.2510000000000001,0.308,21.77,-18.67,-67.96000000000001,-0.6564,0.6244000000000001,0.2761,0.32070000000000004,0.499,0.255,-0.381
2025-11-06 18:37:24.040,297.44,0.402,-0.963,-0.057,-0.716,-1.476,0.2,22.85,-20.69,-68.34,-0.6427,0.6337,0.27140000000000003,0.33380000000000004,0.66,0.47900000000000004,-0.252
2025-11-06 18:37:24.040,297.445,0.716,-1.449,0.131,-0.8280000000000001,-1.635,0.046,22.85,-20.69,-68.34,-0.6324000000000001,0.6409,0.2637,0.3458,0.738,0.639,-0.08700000000000001
2025-11-06 18:37:24.040,297.45,0.811,-1.723,0.241,-0.84,-1.709,-0.07,22.85,-20.69,-68.34,-0.6246,0.646,0.2554,0.35660000000000003,0.718,0.715,0.035
2025-11-06 18:37:24.040,297.455,0.641,-1.621,0.186,-0.616,-1.9000000000000001,-0.224,22.56,-18.79,-67.78,-0.6215,0.6466000000000001,0.2511,0.364,0.47400000000000003,0.91,0.187
2025-11-06 18:37:24.040,297.46,0.459,-1.147,0.002,-0.369,-2.191,-0.293,22.56,-18.79,-67.78,-0.623,0.6453,0.2494,0.3648,0.224,1.203,0.251
2025-11-06 18:37:24.040,297.465,0.34,-0.68,-0.145,-0.17300000000000001,-2.267,-0.366,22.56,-18.62,-68.57000000000001,-0.6281,0.6426000000000001,0.24830000000000002,0.36150000000000004,0.034,1.28,0.317
2025-11-06 18:37:24.040,297.47,0.137,-0.275,-0.246,-0.077,-2.099,-0.47700000000000004,22.56,-18.62,-68.57000000000001,-0.6359,0.6377,0.2467,0.35750000000000004,-0.052000000000000005,1.111,0.41500000000000004
2025-11-06 18:37:24.040,297.475,-0.095,0.093,-0.296,-0.07200000000000001,-1.921,-0.523,22.56,-18.62,-68.57000000000001,-0.6444000000000001,0.6314000000000001,0.24500000000000002,0.3548,-0.047,0.931,0.444
2025-11-06 18:37:24.040,297.48,-0.248,0.548,-0.232,-0.13,-1.7850000000000001,-0.421,23.23,-18.73,-67.64,-0.6499,0.626,0.24450000000000002,0.3548,0.015,0.796,0.327
2025-11-06 18:37:24.040,297.485,-0.196,0.922,-0.094,-0.229,-1.74,-0.315,23.23,-18.73,-67.64,-0.6517000000000001,0.6226,0.2444,0.3574,0.115,0.752,0.211
2025-11-06 18:37:24.040,297.49,-0.069,1.041,0.091,-0.339,-1.698,-0.244,22.85,-18.35,-67.43,-0.6509,0.6215,0.2431,0.36150000000000004,0.22,0.711,0.136
2025-11-06 18:37:24.040,297.495,0.063,0.991,0.273,-0.441,-1.708,-0.231,22.85,-18.35,-67.43,-0.649,0.6219,0.24000000000000002,0.3665,0.313,0.723,0.12
2025-11-06 18:37:24.040,297.5,0.156,0.8180000000000001,0.40900000000000003,-0.528,-1.825,-0.25,22.85,-18.35,-67.43,-0.6467,0.6229,0.2358,0.37160000000000004,0.387,0.84,0.137
2025-11-06 18:37:24.040,297.505,0.109,0.487,0.518,-0.533,-1.941,-0.276,23.91,-18.59,-66.82000000000001,-0.6449,0.6236,0.23190000000000002,0.3759,0.38,0.9590000000000001,0.161
2025-11-06 18:37:24.040,297.51,0.0,0.309,0.529,-0.429,-1.973,-0.313,23.91,-18.59,-66.82000000000001,-0.6444000000000001,0.6229,0.22990000000000002,0.37920000000000004,0.268,0.993,0.195
2025-11-06 18:37:24.042,297.515,-0.13,0.216,0.513,-0.293,-1.915,-0.325,22.3,-18.76,-66.73,-0.6452,0.6209,0.22990000000000002,0.381,0.13,0.936,0.202
2025-11-06 18:37:24.042,297.52,-0.252,0.253,0.464,-0.17300000000000001,-1.802,-0.307,22.3,-18.76,-66.73,-0.647,0.6182000000000001,0.2315,0.38130000000000003,0.012,0.8240000000000001,0.179
2025-11-06 18:37:24.042,297.525,-0.314,0.45,0.334,-0.052000000000000005,-1.699,-0.213,22.240000000000002,-18.26,-67.52,-0.6488,0.6161,0.2356,0.37920000000000004,-0.101,0.722,0.083
2025-11-06 18:37:24.042,297.53,-0.293,0.681,0.164,0.034,-1.682,-0.094,22.240000000000002,-18.26,-67.52,-0.6498,0.6154000000000001,0.2417,0.37460000000000004,-0.17400000000000002,0.7030000000000001,-0.031
2025-11-06 18:37:24.042,297.535,-0.251,0.8290000000000001,0.01,0.024,-1.722,-0.037,22.240000000000002,-18.26,-67.52,-0.6497,0.6158,0.24810000000000001,0.37,-0.15,0.741,-0.082
2025-11-06 18:37:24.042,297.54,-0.23600000000000002,0.915,-0.108,0.022,-1.6560000000000001,-0.034,21.740000000000002,-18.97,-68.07000000000001,-0.6495000000000001,0.6159,0.2544,0.3659,-0.135,0.672,-0.078
2025-11-06 18:37:24.042,297.545,-0.243,0.9590000000000001,-0.20500000000000002,-0.014,-1.53,-0.03,21.740000000000002,-18.97,-68.07000000000001,-0.6488,0.6161,0.2601,0.36300000000000004,-0.088,0.544,-0.076
2025-11-06 18:37:24.042,297.55,-0.246,0.984,-0.28300000000000003,0.063,-1.3920000000000001,0.045,21.95,-19.11,-67.72,-0.6477,0.617,0.2674,0.3579,-0.154,0.404,-0.14200000000000002
2025-11-06 18:37:24.042,297.555,-0.224,0.966,-0.426,0.10400000000000001,-1.2730000000000001,0.156,21.95,-19.11,-67.72,-0.6451,0.6199,0.27640000000000003,0.3507,-0.18,0.28300000000000003,-0.23800000000000002
2025-11-06 18:37:24.042,297.56,-0.20700000000000002,0.913,-0.488,0.109,-1.203,0.188,21.95,-19.11,-67.72,-0.6418,0.6232,0.28550000000000003,0.3435,-0.168,0.21,-0.252
2025-11-06 18:37:24.042,297.565,-0.179,0.777,-0.519,0.094,-1.156,0.132,22.18,-19.23,-67.4,-0.6397,0.6253000000000001,0.2929,0.3375,-0.138,0.161,-0.18
2025-11-06 18:37:24.042,297.57,-0.17,0.5690000000000001,-0.519,0.076,-1.137,-0.006,22.18,-19.23,-67.4,-0.6414000000000001,0.6245,0.2963,0.3325,-0.107,0.14,-0.036000000000000004
2025-11-06 18:37:24.042,297.575,-0.229,0.213,-0.48,0.089,-1.1420000000000001,-0.117,22.330000000000002,-19.05,-67.84,-0.6468,0.6219,0.2963,0.3269,-0.108,0.14400000000000002,0.068
2025-11-06 18:37:24.042,297.58,-0.291,0.033,-0.437,0.109,-1.1420000000000001,-0.158,22.330000000000002,-19.05,-67.84,-0.6535000000000001,0.6187,0.29510000000000003,0.32070000000000004,-0.116,0.145,0.1
2025-11-06 18:37:24.042,297.585,-0.34400000000000003,-0.076,-0.404,0.131,-1.1300000000000001,-0.168,22.330000000000002,-19.05,-67.84,-0.6603,0.6154000000000001,0.2939,0.3143,-0.125,0.133,0.1
2025-11-06 18:37:24.042,297.59,-0.372,-0.115,-0.388,0.14300000000000002,-1.115,-0.176,21.95,-17.94,-67.46000000000001,-0.6668000000000001,0.6119,0.2928,0.30810000000000004,-0.125,0.11900000000000001,0.099
2025-11-06 18:37:24.042,297.595,-0.36,-0.127,-0.389,0.14300000000000002,-1.11,-0.209,21.95,-17.94,-67.46000000000001,-0.6738000000000001,0.6082000000000001,0.29100000000000004,0.30210000000000004,-0.114,0.115,0.121
2025-11-06 18:37:24.042,297.6,-0.315,-0.18,-0.397,0.146,-1.118,-0.23700000000000002,22.21,-18.03,-67.52,-0.6808000000000001,0.6043000000000001,0.2887,0.2964,-0.106,0.124,0.136
2025-11-06 18:37:24.042,297.605,-0.292,-0.23,-0.396,0.14400000000000002,-1.117,-0.232,22.21,-18.03,-67.52,-0.6868000000000001,0.6008,0.2869,0.2914,-0.094,0.124,0.12
2025-11-06 18:37:24.042,297.61,-0.281,-0.267,-0.391,0.132,-1.085,-0.20700000000000002,22.47,-18.12,-67.34,-0.6914,0.5979,0.2858,0.2874,-0.075,0.095,0.08700000000000001
2025-11-06 18:37:24.042,297.615,-0.264,-0.297,-0.386,0.109,-1.032,-0.179,22.47,-18.12,-67.34,-0.6947,0.5959,0.2851,0.2844,-0.047,0.042,0.053
2025-11-06 18:37:24.042,297.62,-0.217,-0.342,-0.368,0.073,-0.962,-0.145,22.47,-18.12,-67.34,-0.6964,0.5949,0.2844,0.2828,-0.007,-0.026000000000000002,0.015
2025-11-06 18:37:24.042,297.625,-0.159,-0.39,-0.34800000000000003,0.052000000000000005,-0.898,-0.127,22.97,-18.35,-68.54,-0.6975,0.5946,0.28350000000000003,0.2818,0.013000000000000001,-0.09,-0.004
2025-11-06 18:37:24.042,297.63,-0.11,-0.425,-0.326,0.034,-0.861,-0.115,22.97,-18.35,-68.54,-0.6979000000000001,0.5949,0.2822,0.28140000000000004,0.03,-0.127,-0.017
2025-11-06 18:37:24.042,297.635,-0.069,-0.458,-0.307,0.023,-0.835,-0.107,23.18,-17.740000000000002,-68.78,-0.6979000000000001,0.5956,0.2808,0.2813,0.039,-0.153,-0.025
2025-11-06 18:37:24.042,297.64,-0.045,-0.462,-0.291,0.018000000000000002,-0.8160000000000001,-0.099,23.18,-17.740000000000002,-68.78,-0.6977,0.5965,0.2796,0.2813,0.041,-0.17200000000000001,-0.032
2025-11-06 18:37:24.042,297.645,-0.006,-0.429,-0.277,0.014,-0.796,-0.089,23.18,-17.740000000000002,-68.78,-0.6970000000000001,0.5977,0.2785,0.28140000000000004,0.042,-0.193,-0.041
2025-11-06 18:37:24.042,297.65,0.032,-0.357,-0.275,0.006,-0.786,-0.078,23.53,-18.09,-68.4,-0.6958000000000001,0.5992000000000001,0.2777,0.28200000000000003,0.048,-0.203,-0.049
2025-11-06 18:37:24.042,297.655,0.067,-0.269,-0.277,-0.008,-0.776,-0.068,23.53,-18.09,-68.4,-0.6940000000000001,0.6012000000000001,0.2768,0.28300000000000003,0.058,-0.214,-0.055
2025-11-06 18:37:24.042,297.66,0.11,-0.179,-0.28300000000000003,-0.035,-0.766,-0.065,23.12,-18.21,-68.48,-0.6919000000000001,0.6035,0.2752,0.28500000000000003,0.079,-0.225,-0.055
2025-11-06 18:37:24.042,297.665,0.152,-0.093,-0.28600000000000003,-0.061,-0.762,-0.077,23.12,-18.21,-68.48,-0.6899000000000001,0.6056,0.2725,0.2877,0.096,-0.23,-0.04
2025-11-06 18:37:24.042,297.67,0.186,0.0,-0.28500000000000003,-0.094,-0.763,-0.101,23.12,-18.21,-68.48,-0.6884,0.6073000000000001,0.2684,0.2916,0.11800000000000001,-0.229,-0.016
2025-11-06 18:37:24.042,297.675,0.196,0.043000000000000003,-0.28300000000000003,-0.121,-0.765,-0.121,23.41,-18.12,-68.57000000000001,-0.6873,0.6086,0.26330000000000003,0.2962,0.131,-0.227,0.001
2025-11-06 18:37:24.042,297.68,0.197,0.065,-0.28300000000000003,-0.13,-0.764,-0.14100000000000001,23.41,-18.12,-68.57000000000001,-0.6868000000000001,0.6091,0.258,0.30110000000000003,0.127,-0.228,0.017
2025-11-06 18:37:24.042,297.685,0.2,0.07200000000000001,-0.28200000000000003,-0.125,-0.764,-0.158,23.67,-17.97,-67.81,-0.6868000000000001,0.6087,0.25320000000000004,0.3057,0.109,-0.228,0.028
2025-11-06 18:37:24.043,297.69,0.20600000000000002,0.05,-0.276,-0.097,-0.759,-0.187,23.67,-17.97,-67.81,-0.6881,0.6067,0.24960000000000002,0.30970000000000003,0.07200000000000001,-0.231,0.05
2025-11-06 18:37:24.043,297.695,0.211,0.02,-0.261,-0.069,-0.761,-0.202,24.26,-18.91,-68.72,-0.6900000000000001,0.6038,0.2474,0.3129,0.039,-0.228,0.055
2025-11-06 18:37:24.043,297.7,0.202,0.008,-0.249,-0.052000000000000005,-0.768,-0.201,24.26,-18.91,-68.72,-0.6918000000000001,0.6009,0.2461,0.3154,0.02,-0.219,0.046
2025-11-06 18:37:24.043,297.705,0.192,0.024,-0.23800000000000002,-0.029,-0.782,-0.198,24.26,-18.91,-68.72,-0.6936,0.5981000000000001,0.2461,0.317,-0.002,-0.20400000000000001,0.036000000000000004
2025-11-06 18:37:24.043,297.71,0.177,0.045,-0.229,-0.022,-0.799,-0.199,24.34,-17.740000000000002,-68.25,-0.6952,0.5954,0.2464,0.31820000000000004,-0.008,-0.186,0.031
2025-11-06 18:37:24.043,297.715,0.166,0.066,-0.217,-0.023,-0.8320000000000001,-0.20800000000000002,24.34,-17.740000000000002,-68.25,-0.6967,0.5929,0.2466,0.3194,-0.006,-0.151,0.034
2025-11-06 18:37:24.043,297.72,0.169,0.07200000000000001,-0.20400000000000001,-0.02,-0.858,-0.215,24.11,-17.45,-68.37,-0.6981,0.5906,0.24700000000000003,0.3204,-0.007,-0.125,0.036000000000000004
2025-11-06 18:37:24.043,297.725,0.18,0.064,-0.193,-0.026000000000000002,-0.888,-0.227,24.11,-17.45,-68.37,-0.6994,0.5885,0.24700000000000003,0.3215,0.0,-0.093,0.042
2025-11-06 18:37:24.043,297.73,0.195,0.054,-0.17400000000000002,-0.044,-0.925,-0.232,24.11,-17.45,-68.37,-0.7004,0.5870000000000001,0.2461,0.3225,0.018000000000000002,-0.056,0.043000000000000003
2025-11-06 18:37:24.043,297.735,0.20500000000000002,0.053,-0.153,-0.064,-0.966,-0.243,24.11,-17.3,-68.4,-0.7012,0.5861000000000001,0.24450000000000002,0.3236,0.035,-0.014,0.05
2025-11-06 18:37:24.043,297.74,0.199,0.05,-0.122,-0.089,-1.0170000000000001,-0.263,24.11,-17.3,-68.4,-0.7020000000000001,0.5855,0.2421,0.325,0.057,0.036000000000000004,0.066
2025-11-06 18:37:24.043,297.745,0.191,0.038,-0.10200000000000001,-0.097,-1.041,-0.28400000000000003,23.67,-18.91,-67.78,-0.7030000000000001,0.5845,0.23950000000000002,0.3266,0.061,0.061,0.083
2025-11-06 18:37:24.044,297.75,0.17200000000000001,0.018000000000000002,-0.084,-0.097,-1.054,-0.295,23.67,-18.91,-67.78,-0.7040000000000001,0.5833,0.2371,0.32830000000000004,0.057,0.075,0.089
2025-11-06 18:37:24.044,297.755,0.149,0.002,-0.07200000000000001,-0.08600000000000001,-1.058,-0.296,23.67,-18.91,-67.78,-0.7050000000000001,0.5820000000000001,0.2354,0.3297,0.043000000000000003,0.08,0.085
2025-11-06 18:37:24.044,297.76,0.11900000000000001,-0.006,-0.064,-0.065,-1.049,-0.28300000000000003,23.85,-17.07,-67.67,-0.7058,0.5807,0.2346,0.33080000000000004,0.02,0.07200000000000001,0.068
2025-11-06 18:37:24.044,297.765,0.081,0.014,-0.065,-0.039,-1.029,-0.265,23.85,-17.07,-67.67,-0.7064,0.5795,0.2351,0.33140000000000003,-0.004,0.053,0.047
2025-11-06 18:37:24.044,297.77,0.056,0.033,-0.067,-0.029,-1.0070000000000001,-0.247,23.79,-17.5,-67.61,-0.7068,0.5784,0.23600000000000002,0.3316,-0.013000000000000001,0.032,0.028
2025-11-06 18:37:24.044,297.775,0.031,0.047,-0.07,-0.022,-1.004,-0.225,23.79,-17.5,-67.61,-0.7068,0.5780000000000001,0.23720000000000002,0.33140000000000003,-0.019,0.03,0.005
2025-11-06 18:37:24.044,297.78,0.002,0.03,-0.066,-0.024,-1.031,-0.196,24.02,-17.53,-67.81,-0.7062,0.5788,0.2384,0.3306,-0.014,0.056,-0.021
2025-11-06 18:37:24.044,297.785,-0.037,-0.019,-0.058,-0.024,-1.089,-0.157,24.02,-17.53,-67.81,-0.7049000000000001,0.5809000000000001,0.2396,0.3289,-0.012,0.112,-0.054
2025-11-06 18:37:24.044,297.79,-0.083,-0.082,-0.046,-0.051000000000000004,-1.135,-0.14400000000000002,24.02,-17.53,-67.81,-0.7032,0.5838,0.23970000000000002,0.3272,0.014,0.157,-0.06
2025-11-06 18:37:24.044,297.795,-0.12,-0.11800000000000001,-0.035,-0.099,-1.165,-0.14100000000000001,23.85,-17.330000000000002,-68.07000000000001,-0.7013,0.5873,0.2381,0.326,0.059000000000000004,0.186,-0.057
2025-11-06 18:37:24.044,297.8,-0.166,-0.145,-0.034,-0.125,-1.182,-0.147,23.85,-17.330000000000002,-68.07000000000001,-0.6996,0.5906,0.2358,0.3254,0.08,0.202,-0.045
2025-11-06 18:37:24.044,297.805,-0.216,-0.178,-0.028,-0.138,-1.181,-0.157,24.05,-17.45,-68.05,-0.6982,0.5935,0.2331,0.3251,0.088,0.2,-0.03
2025-11-06 18:37:24.044,297.81,-0.28500000000000003,-0.22,-0.021,-0.146,-1.164,-0.167,24.05,-17.45,-68.05,-0.6972,0.5957,0.23020000000000002,0.32530000000000003,0.089,0.183,-0.017
2025-11-06 18:37:24.044,297.815,-0.35100000000000003,-0.247,-0.032,-0.149,-1.1420000000000001,-0.164,24.05,-17.45,-68.05,-0.6963,0.5978,0.2273,0.3255,0.08600000000000001,0.161,-0.018000000000000002
2025-11-06 18:37:24.044,297.82,-0.4,-0.221,-0.055,-0.152,-1.113,-0.15,24.080000000000002,-17.68,-68.69,-0.6954,0.5999,0.2245,0.3256,0.083,0.132,-0.03
2025-11-06 18:37:24.044,297.825,-0.435,-0.17,-0.084,-0.154,-1.084,-0.148,24.080000000000002,-17.68,-68.69,-0.6945,0.6017,0.2218,0.32580000000000003,0.079,0.10200000000000001,-0.029
2025-11-06 18:37:24.044,297.83,-0.453,-0.11900000000000001,-0.108,-0.149,-1.056,-0.156,23.61,-19.05,-69.33,-0.6940000000000001,0.6029,0.2194,0.3264,0.068,0.075,-0.02
2025-11-06 18:37:24.044,297.835,-0.464,-0.055,-0.126,-0.14,-1.0130000000000001,-0.159,23.61,-19.05,-69.33,-0.6937,0.6036,0.2174,0.3271,0.055,0.032,-0.017
2025-11-06 18:37:24.044,297.84,-0.465,-0.017,-0.125,-0.135,-0.981,-0.155,23.61,-19.05,-69.33,-0.6935,0.6041000000000001,0.2157,0.3277,0.046,0.001,-0.021
2025-11-06 18:37:24.044,297.845,-0.46,0.016,-0.121,-0.128,-0.9510000000000001,-0.14100000000000001,24.32,-18.7,-68.45,-0.6931,0.6049,0.2142,0.328,0.036000000000000004,-0.028,-0.035
2025-11-06 18:37:24.044,297.85,-0.45,0.049,-0.114,-0.123,-0.932,-0.126,24.32,-18.7,-68.45,-0.6926,0.6061000000000001,0.21280000000000002,0.32780000000000004,0.027,-0.046,-0.049
2025-11-06 18:37:24.044,297.855,-0.422,0.088,-0.10400000000000001,-0.10400000000000001,-0.9460000000000001,-0.133,24.05,-17.59,-69.36,-0.6924,0.6068,0.21230000000000002,0.32730000000000004,0.007,-0.033,-0.04
2025-11-06 18:37:24.045,297.86,-0.376,0.11800000000000001,-0.081,-0.082,-0.986,-0.15,24.05,-17.59,-69.36,-0.6928000000000001,0.6068,0.2127,0.3264,-0.012,0.006,-0.022
2025-11-06 18:37:24.045,297.865,-0.354,0.129,-0.061,-0.067,-1.0170000000000001,-0.166,24.05,-17.59,-69.36,-0.6934,0.6062000000000001,0.21350000000000002,0.3254,-0.025,0.037,-0.006
2025-11-06 18:37:24.045,297.87,-0.35100000000000003,0.14200000000000002,-0.042,-0.046,-1.037,-0.177,24.23,-18.09,-69.86,-0.6945,0.6052000000000001,0.21480000000000002,0.3242,-0.041,0.057,0.002
2025-11-06 18:37:24.045,297.875,-0.367,0.156,-0.028,-0.014,-1.038,-0.182,24.23,-18.09,-69.86,-0.6959000000000001,0.6039,0.21680000000000002,0.32230000000000003,-0.067,0.058,0.005
2025-11-06 18:37:24.045,297.88,-0.395,0.18,-0.022,0.014,-1.016,-0.17500000000000002,23.79,-18.12,-69.62,-0.6975,0.6024,0.2195,0.31970000000000004,-0.089,0.035,-0.002
2025-11-06 18:37:24.045,297.885,-0.40700000000000003,0.197,-0.023,0.02,-0.989,-0.168,23.79,-18.12,-69.62,-0.6991,0.601,0.22210000000000002,0.31720000000000004,-0.08600000000000001,0.008,-0.01
2025-11-06 18:37:24.045,297.89,-0.40700000000000003,0.20600000000000002,-0.031,0.023,-0.964,-0.158,24.37,-18.29,-69.48,-0.7003,0.5998,0.2248,0.3148,-0.081,-0.016,-0.021
2025-11-06 18:37:24.045,297.895,-0.395,0.2,-0.039,0.027,-0.9430000000000001,-0.146,24.37,-18.29,-69.48,-0.7013,0.5989,0.22740000000000002,0.3123,-0.078,-0.038,-0.032
2025-11-06 18:37:24.045,297.9,-0.375,0.176,-0.046,0.023,-0.927,-0.136,24.37,-18.29,-69.48,-0.7019000000000001,0.5984,0.22990000000000002,0.31010000000000004,-0.067,-0.055,-0.041
2025-11-06 18:37:24.045,297.905,-0.34800000000000003,0.138,-0.048,0.003,-0.905,-0.111,23.7,-17.740000000000002,-69.83,-0.7015,0.599,0.23190000000000002,0.3084,-0.042,-0.077,-0.063
2025-11-06 18:37:24.045,297.91,-0.328,0.127,-0.046,-0.013000000000000001,-0.891,-0.097,23.7,-17.740000000000002,-69.83,-0.7005,0.6001000000000001,0.2335,0.3074,-0.023,-0.092,-0.073
2025-11-06 18:37:24.045,297.915,-0.312,0.138,-0.051000000000000004,-0.032,-0.877,-0.08700000000000001,23.85,-20.28,-70.06,-0.6989000000000001,0.6016,0.2346,0.30720000000000003,-0.003,-0.107,-0.08
2025-11-06 18:37:24.045,297.92,-0.299,0.162,-0.062,-0.056,-0.867,-0.08,23.85,-20.28,-70.06,-0.6968000000000001,0.6034,0.23520000000000002,0.3079,0.018000000000000002,-0.11800000000000001,-0.081
2025-11-06 18:37:24.045,297.925,-0.28700000000000003,0.17400000000000002,-0.073,-0.08,-0.858,-0.099,23.85,-20.28,-70.06,-0.6950000000000001,0.6046,0.2349,0.3099,0.039,-0.127,-0.059000000000000004
2025-11-06 18:37:24.045,297.93,-0.28200000000000003,0.159,-0.094,-0.101,-0.858,-0.115,23.26,-17.77,-70.09,-0.6935,0.6054,0.23390000000000002,0.31270000000000003,0.054,-0.127,-0.042
2025-11-06 18:37:24.045,297.935,-0.291,0.128,-0.108,-0.107,-0.863,-0.13,23.26,-17.77,-70.09,-0.6924,0.6056,0.2326,0.3156,0.055,-0.122,-0.027
2025-11-06 18:37:24.045,297.94,-0.302,0.109,-0.122,-0.105,-0.867,-0.149,24.05,-17.39,-70.76,-0.6919000000000001,0.6051000000000001,0.2313,0.3183,0.047,-0.117,-0.01
2025-11-06 18:37:24.045,297.945,-0.296,0.099,-0.137,-0.095,-0.87,-0.171,24.05,-17.39,-70.76,-0.6923,0.6039,0.2301,0.32080000000000003,0.033,-0.114,0.007
2025-11-06 18:37:24.045,297.95,-0.262,0.10400000000000001,-0.152,-0.077,-0.867,-0.2,24.05,-17.39,-70.76,-0.6937,0.6015,0.2293,0.32270000000000004,0.013000000000000001,-0.116,0.03
2025-11-06 18:37:24.045,297.955,-0.218,0.12,-0.156,-0.059000000000000004,-0.858,-0.213,23.94,-17.53,-70.59,-0.6956,0.5987,0.22890000000000002,0.3242,-0.003,-0.123,0.037
2025-11-06 18:37:24.045,297.96,-0.196,0.14,-0.151,-0.05,-0.843,-0.225,23.94,-17.53,-70.59,-0.6978000000000001,0.5955,0.2288,0.3256,-0.012,-0.137,0.04
2025-11-06 18:37:24.045,297.965,-0.18,0.164,-0.14200000000000002,-0.039,-0.8220000000000001,-0.23900000000000002,24.080000000000002,-17.21,-70.53,-0.7003,0.5917,0.2288,0.327,-0.021,-0.157,0.046
2025-11-06 18:37:24.046,297.97,-0.171,0.191,-0.137,-0.033,-0.802,-0.256,24.080000000000002,-17.21,-70.53,-0.7033,0.5873,0.2288,0.3285,-0.025,-0.17500000000000002,0.053
2025-11-06 18:37:24.046,297.975,-0.159,0.232,-0.138,-0.018000000000000002,-0.783,-0.29,24.23,-17.56,-70.24,-0.7072,0.5815,0.2291,0.33030000000000004,-0.036000000000000004,-0.192,0.074
2025-11-06 18:37:24.046,297.98,-0.136,0.258,-0.137,-0.009000000000000001,-0.782,-0.317,24.23,-17.56,-70.24,-0.7114,0.5751000000000001,0.22940000000000002,0.3321,-0.041,-0.19,0.08600000000000001
2025-11-06 18:37:24.046,297.985,-0.106,0.274,-0.13,0.0,-0.798,-0.331,24.23,-17.56,-70.24,-0.7155,0.5688,0.23,0.33380000000000004,-0.045,-0.171,0.08700000000000001
2025-11-06 18:37:24.046,297.99,-0.088,0.28600000000000003,-0.114,0.007,-0.8230000000000001,-0.332,23.85,-17.77,-70.53,-0.7190000000000001,0.5632,0.231,0.335,-0.047,-0.14300000000000002,0.075
2025-11-06 18:37:24.046,297.995,-0.083,0.294,-0.099,0.013000000000000001,-0.85,-0.318,23.85,-17.77,-70.53,-0.7215,0.5588000000000001,0.2326,0.33590000000000003,-0.047,-0.114,0.051000000000000004
2025-11-06 18:37:24.046,298.0,-0.10300000000000001,0.295,-0.067,0.013000000000000001,-0.902,-0.3,23.38,-18.73,-70.38,-0.7229,0.5559000000000001,0.23450000000000001,0.33640000000000003,-0.043000000000000003,-0.06,0.029
2025-11-06 18:37:24.046,298.005,-0.117,0.272,-0.043000000000000003,0.025,-0.936,-0.28500000000000003,23.38,-18.73,-70.38,-0.7236,0.5538000000000001,0.2371,0.3366,-0.049,-0.025,0.011
2025-11-06 18:37:24.046,298.01,-0.11900000000000001,0.224,-0.015,0.029,-0.966,-0.269,23.38,-18.73,-70.38,-0.7236,0.5526,0.2399,0.3366,-0.048,0.004,-0.005
2025-11-06 18:37:24.046,298.015,-0.097,0.16,0.015,0.035,-0.994,-0.262,23.79,-19.61,-70.38,-0.7233,0.5519000000000001,0.24280000000000002,0.33640000000000003,-0.049,0.032,-0.011
2025-11-06 18:37:24.046,298.02,-0.05,0.08700000000000001,0.05,0.039,-1.028,-0.268,23.79,-19.61,-70.38,-0.7229,0.5514,0.24550000000000002,0.3361,-0.048,0.065,-0.004
2025-11-06 18:37:24.046,298.025,-0.008,-0.036000000000000004,0.08,0.039,-1.065,-0.267,23.580000000000002,-17.42,-70.71000000000001,-0.7222000000000001,0.5515,0.24780000000000002,0.3357,-0.044,0.10200000000000001,-0.002
2025-11-06 18:37:24.046,298.03,0.002,-0.082,0.091,0.043000000000000003,-1.087,-0.254,23.580000000000002,-17.42,-70.71000000000001,-0.7213,0.552,0.25020000000000003,0.3351,-0.045,0.123,-0.011
2025-11-06 18:37:24.046,298.035,-0.012,-0.095,0.084,0.032,-1.09,-0.23800000000000002,23.580000000000002,-17.42,-70.71000000000001,-0.7200000000000001,0.553,0.2523,0.3346,-0.031,0.125,-0.023
2025-11-06 18:37:24.046,298.04,-0.04,-0.097,0.062,0.005,-1.08,-0.225,23.85,-17.48,-71.03,-0.7184,0.5546,0.2535,0.33440000000000003,-0.004,0.113,-0.032
2025-11-06 18:37:24.046,298.045,-0.081,-0.1,0.022,-0.055,-1.042,-0.224,23.85,-17.48,-71.03,-0.7168,0.5568000000000001,0.2523,0.3352,0.052000000000000005,0.074,-0.029
2025-11-06 18:37:24.046,298.05,-0.105,-0.10400000000000001,-0.018000000000000002,-0.085,-1.0130000000000001,-0.233,23.73,-17.71,-71.52,-0.7156,0.5588000000000001,0.2499,0.33640000000000003,0.076,0.044,-0.017
2025-11-06 18:37:24.046,298.055,-0.114,-0.10300000000000001,-0.048,-0.097,-0.987,-0.25,23.73,-17.71,-71.52,-0.7149,0.5601,0.24680000000000002,0.3378,0.08,0.018000000000000002,0.0
2025-11-06 18:37:24.046,298.06,-0.113,-0.101,-0.064,-0.097,-0.963,-0.27,24.11,-18.26,-70.97,-0.7149,0.5606,0.2436,0.3393,0.074,-0.004,0.017
2025-11-06 18:37:24.046,298.065,-0.113,-0.109,-0.076,-0.078,-0.9420000000000001,-0.29,24.11,-18.26,-70.97,-0.7157,0.5599000000000001,0.24080000000000001,0.3406,0.049,-0.025,0.034
2025-11-06 18:37:24.046,298.07,-0.147,-0.099,-0.08700000000000001,-0.025,-0.906,-0.28800000000000003,24.11,-18.26,-70.97,-0.7172000000000001,0.5582,0.2401,0.34090000000000004,-0.003,-0.058,0.027
2025-11-06 18:37:24.047,298.075,-0.191,-0.06,-0.093,0.008,-0.864,-0.277,24.96,-19.61,-71.26,-0.7190000000000001,0.5558000000000001,0.24080000000000001,0.3406,-0.035,-0.099,0.011
2025-11-06 18:37:24.047,298.08,-0.218,0.0,-0.112,0.036000000000000004,-0.838,-0.275,24.96,-19.61,-71.26,-0.7210000000000001,0.5528000000000001,0.24250000000000002,0.34,-0.057,-0.124,0.005
2025-11-06 18:37:24.047,298.085,-0.216,0.064,-0.14100000000000001,0.06,-0.835,-0.281,23.85,-18.38,-71.35000000000001,-0.7232000000000001,0.5493,0.2452,0.3391,-0.074,-0.126,0.005
2025-11-06 18:37:24.047,298.09,-0.186,0.122,-0.176,0.098,-0.858,-0.305,23.85,-18.38,-71.35000000000001,-0.7259,0.5449,0.249,0.3377,-0.10200000000000001,-0.101,0.024
2025-11-06 18:37:24.047,298.095,-0.155,0.161,-0.20400000000000001,0.125,-0.87,-0.322,23.85,-18.38,-71.35000000000001,-0.7288,0.54,0.25320000000000004,0.336,-0.115,-0.08700000000000001,0.035
2025-11-06 18:37:24.047,298.1,-0.111,0.199,-0.232,0.128,-0.895,-0.322,23.73,-19.78,-71.06,-0.7312000000000001,0.5358,0.2574,0.3345,-0.107,-0.061,0.03
2025-11-06 18:37:24.047,298.105,-0.084,0.20500000000000002,-0.23500000000000001,0.14,-0.912,-0.307,23.73,-19.78,-71.06,-0.7327,0.5323,0.2622,0.33290000000000003,-0.106,-0.042,0.011
2025-11-06 18:37:24.047,298.11,-0.065,0.2,-0.232,0.132,-0.933,-0.27,23.94,-17.42,-70.94,-0.7327,0.5305,0.26730000000000004,0.33180000000000004,-0.088,-0.021,-0.024
2025-11-06 18:37:24.047,298.115,-0.064,0.19,-0.232,0.13,-0.973,-0.231,23.94,-17.42,-70.94,-0.7312000000000001,0.5301,0.2731,0.3311,-0.077,0.017,-0.059000000000000004
2025-11-06 18:37:24.047,298.12,-0.051000000000000004,0.145,-0.221,0.132,-1.0070000000000001,-0.223,23.94,-17.42,-70.94,-0.7293000000000001,0.5302,0.2785,0.3305,-0.07100000000000001,0.05,-0.06
2025-11-06 18:37:24.047,298.125,-0.023,0.09,-0.21,0.125,-1.025,-0.22,24.26,-18.0,-70.5,-0.7274,0.5307000000000001,0.2832,0.3299,-0.057,0.067,-0.057
2025-11-06 18:37:24.047,298.13,-0.005,0.029,-0.193,0.122,-1.044,-0.226,24.26,-18.0,-70.5,-0.7256,0.5314,0.2871,0.3294,-0.049,0.084,-0.045
2025-11-06 18:37:24.047,298.135,-0.017,-0.04,-0.176,0.11800000000000001,-1.061,-0.231,23.88,-16.86,-70.91,-0.7241000000000001,0.532,0.2903,0.32880000000000004,-0.041,0.1,-0.035
2025-11-06 18:37:24.047,298.14,-0.058,-0.139,-0.165,0.114,-1.074,-0.221,23.88,-16.86,-70.91,-0.7225,0.533,0.2931,0.3284,-0.034,0.112,-0.039
2025-11-06 18:37:24.047,298.145,-0.099,-0.248,-0.171,0.105,-1.069,-0.212,23.88,-16.86,-70.85000000000001,-0.7208,0.5342,0.2953,0.3281,-0.023,0.105,-0.043000000000000003
2025-11-06 18:37:24.048,298.15,-0.127,-0.325,-0.184,0.078,-1.057,-0.20800000000000002,24.26,-16.89,-70.85000000000001,-0.7191000000000001,0.5357000000000001,0.29660000000000003,0.32830000000000004,0.004,0.092,-0.042
2025-11-06 18:37:24.048,298.155,-0.14200000000000002,-0.383,-0.197,0.045,-1.042,-0.219,24.26,-16.89,-70.85000000000001,-0.7177,0.5373,0.2964,0.329,0.034,0.075,-0.028
2025-11-06 18:37:24.048,298.16,-0.148,-0.429,-0.20800000000000002,0.003,-1.02,-0.23700000000000002,24.46,-17.8,-71.61,-0.7166,0.5388000000000001,0.2944,0.3306,0.07100000000000001,0.052000000000000005,-0.008
2025-11-06 18:37:24.048,298.165,-0.14,-0.467,-0.216,-0.032,-0.97,-0.246,24.46,-17.8,-71.61,-0.7159,0.5402,0.29100000000000004,0.33280000000000004,0.098,0.002,0.0
2025-11-06 18:37:24.048,298.17,-0.117,-0.485,-0.222,-0.044,-0.931,-0.252,24.34,-18.47,-71.64,-0.7155,0.5414,0.2871,0.3351,0.101,-0.037,0.004
2025-11-06 18:37:24.048,298.175,-0.084,-0.51,-0.226,-0.023,-0.9,-0.258,24.34,-18.47,-71.64,-0.7159,0.5419,0.2837,0.3365,0.073,-0.067,0.007
2025-11-06 18:37:24.048,298.18,-0.06,-0.532,-0.223,-0.023,-0.877,-0.257,24.34,-18.47,-71.64,-0.7164,0.5422,0.2803,0.3377,0.066,-0.089,0.002
2025-11-06 18:37:24.048,298.185,-0.024,-0.537,-0.225,-0.025,-0.853,-0.251,24.2,-19.35,-71.9,-0.7168,0.5427000000000001,0.2771,0.3387,0.062,-0.113,-0.005
2025-11-06 18:37:24.048,298.19,0.021,-0.514,-0.23,-0.003,-0.847,-0.247,24.2,-19.35,-71.9,-0.7174,0.5429,0.275,0.33890000000000003,0.037,-0.11800000000000001,-0.011
2025-11-06 18:37:24.048,298.195,0.07100000000000001,-0.489,-0.224,0.0,-0.856,-0.24,24.84,-16.95,-72.14,-0.7177,0.5434,0.2733,0.3387,0.03,-0.109,-0.019
2025-11-06 18:37:24.048,298.2,0.111,-0.444,-0.216,0.003,-0.869,-0.234,24.84,-16.95,-72.14,-0.7177,0.5442,0.272,0.3383,0.025,-0.096,-0.025
2025-11-06 18:37:24.048,298.205,0.131,-0.394,-0.203,0.008,-0.881,-0.229,24.84,-16.95,-72.14,-0.7176,0.5452,0.2712,0.3377,0.019,-0.085,-0.03
2025-11-06 18:37:24.048,298.21,0.14200000000000002,-0.34400000000000003,-0.186,0.002,-0.897,-0.222,25.080000000000002,-18.82,-72.31,-0.7171000000000001,0.5466,0.27040000000000003,0.3373,0.024,-0.069,-0.034
2025-11-06 18:37:24.048,298.215,0.154,-0.304,-0.167,-0.004,-0.905,-0.217,25.080000000000002,-18.82,-72.31,-0.7163,0.5482,0.2696,0.33690000000000003,0.027,-0.061,-0.036000000000000004
2025-11-06 18:37:24.048,298.22,0.17500000000000002,-0.277,-0.15,-0.003,-0.906,-0.216,24.900000000000002,-16.57,-72.66,-0.7156,0.5497000000000001,0.26890000000000003,0.3365,0.025,-0.061,-0.035
2025-11-06 18:37:24.048,298.225,0.195,-0.252,-0.134,-0.008,-0.911,-0.218,24.900000000000002,-16.57,-72.66,-0.7148,0.5512,0.2681,0.33640000000000003,0.028,-0.057,-0.03
2025-11-06 18:37:24.048,298.23,0.20500000000000002,-0.23,-0.122,0.0,-0.911,-0.223,24.900000000000002,-16.57,-72.66,-0.7143,0.5523,0.2676,0.336,0.017,-0.057,-0.024
2025-11-06 18:37:24.048,298.235,0.192,-0.195,-0.098,-0.003,-0.913,-0.216,25.16,-16.19,-72.49,-0.7136,0.5536,0.2671,0.33580000000000004,0.019,-0.056,-0.028
2025-11-06 18:37:24.048,298.24,0.19,-0.171,-0.078,0.0,-0.922,-0.268,25.16,-16.19,-72.49,-0.7141000000000001,0.553,0.2662,0.33630000000000004,0.014,-0.047,0.021
2025-11-06 18:37:24.048,298.245,0.211,-0.18,-0.057,-0.012,-0.928,-0.253,25.080000000000002,-16.31,-71.52,-0.7140000000000001,0.5533,0.2651,0.33690000000000003,0.025,-0.041,0.006
2025-11-06 18:37:24.048,298.25,0.225,-0.16,-0.04,-0.026000000000000002,-0.932,-0.248,25.080000000000002,-16.31,-71.52,-0.7136,0.554,0.26380000000000003,0.3377,0.036000000000000004,-0.037,0.001
2025-11-06 18:37:24.048,298.255,0.23800000000000002,-0.128,-0.032,-0.047,-0.9400000000000001,-0.263,25.25,-16.34,-72.02,-0.7132000000000001,0.5546,0.26180000000000003,0.3392,0.052000000000000005,-0.028,0.015
2025-11-06 18:37:24.048,298.26,0.274,-0.091,-0.026000000000000002,-0.057,-0.9440000000000001,-0.278,25.25,-16.34,-72.02,-0.7129000000000001,0.5548000000000001,0.2597,0.3411,0.057,-0.024,0.028
2025-11-06 18:37:24.048,298.265,0.301,-0.075,-0.031,-0.07100000000000001,-0.9470000000000001,-0.295,25.25,-16.34,-72.02,-0.7128,0.5546,0.25730000000000003,0.3435,0.066,-0.021,0.043000000000000003
2025-11-06 18:37:24.048,298.27,0.326,-0.065,-0.035,-0.046,-0.934,-0.314,26.1,-17.3,-72.08,-0.7133,0.5534,0.2558,0.3456,0.036000000000000004,-0.033,0.058
2025-11-06 18:37:24.048,298.275,0.342,-0.074,-0.043000000000000003,-0.021,-0.908,-0.323,26.1,-17.3,-72.08,-0.7143,0.5513,0.2551,0.3473,0.01,-0.058,0.061
2025-11-06 18:37:24.048,298.28,0.353,-0.07100000000000001,-0.062,-0.017,-0.886,-0.324,25.37,-16.48,-71.11,-0.7154,0.549,0.2546,0.34900000000000003,0.005,-0.078,0.057
2025-11-06 18:37:24.048,298.285,0.362,-0.054,-0.088,-0.002,-0.856,-0.327,25.37,-16.48,-71.11,-0.7168,0.5461,0.25470000000000004,0.35050000000000003,-0.009000000000000001,-0.106,0.054
2025-11-06 18:37:24.048,298.29,0.379,-0.022,-0.109,-0.005,-0.85,-0.32,25.37,-16.48,-71.11,-0.7180000000000001,0.5437000000000001,0.25470000000000004,0.3518,-0.005,-0.11,0.042
2025-11-06 18:37:24.048,298.295,0.394,0.014,-0.145,0.014,-0.856,-0.314,25.13,-16.86,-71.55,-0.7191000000000001,0.5414,0.2558,0.35250000000000004,-0.022,-0.10300000000000001,0.031
2025-11-06 18:37:24.048,298.3,0.417,0.052000000000000005,-0.176,0.028,-0.856,-0.304,25.13,-16.86,-71.55,-0.7199,0.5393,0.2575,0.3528,-0.032,-0.10300000000000001,0.018000000000000002
2025-11-06 18:37:24.048,298.305,0.459,0.083,-0.197,0.042,-0.881,-0.28500000000000003,25.63,-16.25,-70.82000000000001,-0.7201000000000001,0.5381,0.2602,0.3523,-0.042,-0.077,-0.001
2025-11-06 18:37:24.048,298.31,0.494,0.065,-0.192,0.07,-0.905,-0.28200000000000003,25.63,-16.25,-70.82000000000001,-0.7202000000000001,0.5369,0.26380000000000003,0.3513,-0.063,-0.053,-0.002
2025-11-06 18:37:24.048,298.315,0.508,0.009000000000000001,-0.168,0.094,-0.929,-0.29,25.63,-16.25,-70.82000000000001,-0.7204,0.5353,0.2679,0.35000000000000003,-0.079,-0.029,0.006
2025-11-06 18:37:24.048,298.32,0.518,-0.054,-0.137,0.078,-0.97,-0.291,25.72,-16.22,-70.85000000000001,-0.7202000000000001,0.5348,0.27080000000000004,0.3488,-0.056,0.011,0.008
2025-11-06 18:37:24.048,298.325,0.513,-0.10400000000000001,-0.114,0.08,-1.01,-0.304,25.72,-16.22,-70.85000000000001,-0.7202000000000001,0.5344,0.2732,0.3477,-0.052000000000000005,0.049,0.023
2025-11-06 18:37:24.048,298.33,0.47800000000000004,-0.159,-0.088,0.126,-1.062,-0.311,26.27,-17.12,-70.09,-0.7202000000000001,0.5335,0.27690000000000003,0.3461,-0.091,0.101,0.033
2025-11-06 18:37:24.048,298.335,0.439,-0.189,-0.076,0.151,-1.089,-0.306,26.27,-17.12,-70.09,-0.7202000000000001,0.5326000000000001,0.281,0.3442,-0.108,0.129,0.03
2025-11-06 18:37:24.048,298.34,0.392,-0.214,-0.07200000000000001,0.16,-1.111,-0.298,25.400000000000002,-16.51,-70.56,-0.7200000000000001,0.5319,0.2851,0.3423,-0.108,0.15,0.025
2025-11-06 18:37:24.048,298.345,0.34400000000000003,-0.23900000000000002,-0.07100000000000001,0.162,-1.124,-0.28800000000000003,25.400000000000002,-16.51,-70.56,-0.7196,0.5316000000000001,0.2888,0.34040000000000004,-0.10200000000000001,0.162,0.019
2025-11-06 18:37:24.048,298.35,0.29,-0.272,-0.075,0.14,-1.1280000000000001,-0.273,25.400000000000002,-16.51,-70.56,-0.7189,0.532,0.2918,0.3388,-0.075,0.165,0.008
2025-11-06 18:37:24.048,298.355,0.24,-0.334,-0.088,0.131,-1.092,-0.268,25.86,-16.69,-70.62,-0.7185,0.5323,0.29400000000000004,0.3373,-0.062,0.129,0.006
2025-11-06 18:37:24.048,298.36,0.222,-0.379,-0.095,0.107,-1.031,-0.267,25.86,-16.69,-70.62,-0.7185,0.5326000000000001,0.2949,0.336,-0.034,0.067,0.008
2025-11-06 18:37:24.048,298.365,0.226,-0.40900000000000003,-0.09,0.042,-0.992,-0.262,26.3,-15.34,-70.94,-0.7182000000000001,0.534,0.29350000000000004,0.3356,0.028,0.028,0.004
2025-11-06 18:37:24.048,298.37,0.241,-0.41600000000000004,-0.089,0.01,-0.971,-0.266,26.3,-15.34,-70.94,-0.7181000000000001,0.5356000000000001,0.2907,0.33580000000000004,0.055,0.006,0.009000000000000001
2025-11-06 18:37:24.048,298.375,0.258,-0.431,-0.08700000000000001,0.005,-0.963,-0.281,26.3,-15.34,-70.94,-0.7184,0.5368,0.2876,0.33590000000000003,0.055,-0.001,0.023
2025-11-06 18:37:24.048,298.38,0.266,-0.439,-0.078,0.005,-0.9510000000000001,-0.278,26.45,-17.12,-70.71000000000001,-0.7187,0.538,0.2847,0.336,0.05,-0.014,0.019
2025-11-06 18:37:24.048,298.385,0.271,-0.40700000000000003,-0.07200000000000001,0.005,-0.9490000000000001,-0.255,26.45,-17.12,-70.71000000000001,-0.7183,0.5396000000000001,0.28250000000000003,0.33590000000000003,0.045,-0.016,-0.003
2025-11-06 18:37:24.048,298.39,0.261,-0.34,-0.073,0.016,-0.9480000000000001,-0.23800000000000002,26.77,-16.66,-70.09,-0.7176,0.5414,0.2813,0.3356,0.031,-0.017,-0.018000000000000002
2025-11-06 18:37:24.048,298.395,0.255,-0.275,-0.077,0.026000000000000002,-0.9510000000000001,-0.228,26.77,-16.66,-70.09,-0.7168,0.543,0.2808,0.3351,0.019,-0.015,-0.025
2025-11-06 18:37:24.048,298.4,0.252,-0.21,-0.083,0.03,-0.963,-0.21,26.77,-16.66,-70.09,-0.7156,0.545,0.28090000000000004,0.33440000000000003,0.014,-0.004,-0.038
2025-11-06 18:37:24.049,298.405,0.25,-0.159,-0.092,0.038,-0.978,-0.198,26.51,-16.98,-70.0,-0.7141000000000001,0.5471,0.2816,0.3335,0.005,0.009000000000000001,-0.045
2025-11-06 18:37:24.049,298.41,0.243,-0.126,-0.097,0.044,-0.99,-0.188,26.51,-16.98,-70.0,-0.7125,0.5493,0.2826,0.33240000000000003,0.0,0.02,-0.049
2025-11-06 18:37:24.049,298.415,0.23,-0.10400000000000001,-0.101,0.055,-0.998,-0.183,26.62,-16.28,-70.15,-0.7111000000000001,0.5512,0.28400000000000003,0.3312,-0.01,0.026000000000000002,-0.048
2025-11-06 18:37:24.049,298.42,0.226,-0.099,-0.099,0.075,-1.012,-0.179,26.62,-16.28,-70.15,-0.7098,0.5529000000000001,0.2859,0.3294,-0.028,0.039,-0.047
2025-11-06 18:37:24.049,298.425,0.233,-0.14200000000000002,-0.08600000000000001,0.095,-1.0150000000000001,-0.177,27.09,-16.28,-70.35000000000001,-0.7088,0.5543,0.2881,0.3272,-0.044,0.041,-0.043000000000000003
2025-11-06 18:37:24.049,298.43,0.24,-0.182,-0.076,0.11,-1.0070000000000001,-0.166,27.09,-16.8,-70.35000000000001,-0.7079000000000001,0.5557,0.2906,0.3246,-0.054,0.032,-0.048
2025-11-06 18:37:24.049,298.435,0.244,-0.212,-0.068,0.117,-0.996,-0.14400000000000002,27.09,-16.8,-70.35000000000001,-0.7067,0.5575,0.2934,0.32180000000000003,-0.056,0.02,-0.063
2025-11-06 18:37:24.049,298.44,0.243,-0.23,-0.06,0.108,-0.991,-0.122,26.740000000000002,-15.98,-70.03,-0.7049000000000001,0.5598000000000001,0.29600000000000004,0.31930000000000003,-0.043000000000000003,0.013000000000000001,-0.077
2025-11-06 18:37:24.049,298.445,0.219,-0.252,-0.05,0.08600000000000001,-0.98,-0.105,26.740000000000002,-15.98,-70.03,-0.7026,0.5625,0.2982,0.3176,-0.018000000000000002,0.002,-0.085
2025-11-06 18:37:24.049,298.45,0.17500000000000002,-0.273,-0.042,0.058,-0.99,-0.095,26.57,-15.05,-70.03,-0.6997,0.5656,0.2997,0.317,0.009000000000000001,0.009000000000000001,-0.08600000000000001
2025-11-06 18:37:24.049,298.455,0.131,-0.28700000000000003,-0.038,0.035,-1.002,-0.088,26.57,-15.05,-70.03,-0.6966,0.5688,0.3007,0.3173,0.029,0.019,-0.085
2025-11-06 18:37:24.049,298.46,0.089,-0.304,-0.032,0.022,-1.0050000000000001,-0.08,26.57,-15.05,-70.03,-0.6933,0.5721,0.3014,0.3179,0.039,0.021,-0.085
2025-11-06 18:37:24.049,298.465,0.051000000000000004,-0.316,-0.03,0.018000000000000002,-1.01,-0.07200000000000001,26.77,-16.04,-69.83,-0.6901,0.5753,0.3019,0.3185,0.039,0.025,-0.084
2025-11-06 18:37:24.049,298.47,0.029,-0.321,-0.029,0.02,-1.0150000000000001,-0.06,26.77,-16.04,-69.83,-0.687,0.5786,0.30260000000000004,0.31870000000000004,0.033,0.028,-0.088
2025-11-06 18:37:24.049,298.475,0.007,-0.314,-0.027,0.02,-1.0110000000000001,-0.043000000000000003,27.330000000000002,-15.6,-70.15,-0.6838000000000001,0.5820000000000001,0.3033,0.3186,0.03,0.023,-0.096
2025-11-06 18:37:24.049,298.48,0.0,-0.3,-0.03,0.012,-0.99,-0.036000000000000004,27.330000000000002,-15.6,-70.15,-0.6806,0.5854,0.3039,0.31870000000000004,0.035,0.0,-0.094
2025-11-06 18:37:24.049,298.485,-0.002,-0.291,-0.043000000000000003,0.009000000000000001,-0.986,-0.032,27.330000000000002,-15.6,-70.15,-0.6775,0.5886,0.3045,0.31880000000000003,0.034,-0.004,-0.09
2025-11-06 18:37:24.049,298.49,0.002,-0.298,-0.054,-0.007,-0.991,-0.038,27.330000000000002,-15.34,-70.33,-0.6745,0.5914,0.3048,0.31970000000000004,0.047,0.0,-0.077
2025-11-06 18:37:24.049,298.495,0.022,-0.318,-0.056,-0.031,-0.998,-0.048,27.330000000000002,-15.34,-70.33,-0.6713,0.5939,0.30460000000000004,0.3219,0.066,0.005,-0.061
2025-11-06 18:37:24.049,298.5,0.037,-0.332,-0.056,-0.036000000000000004,-1.01,-0.055,27.060000000000002,-15.780000000000001,-70.06,-0.6686000000000001,0.596,0.3043,0.324,0.065,0.016,-0.049
2025-11-06 18:37:24.049,298.505,0.051000000000000004,-0.34500000000000003,-0.048,-0.042,-1.0090000000000001,-0.057,27.060000000000002,-15.780000000000001,-70.06,-0.6659,0.598,0.3038,0.3262,0.065,0.014,-0.043000000000000003
2025-11-06 18:37:24.049,298.51,0.057,-0.332,-0.044,-0.044,-1.012,-0.049,27.060000000000002,-15.780000000000001,-70.06,-0.6633,0.6002000000000001,0.3034,0.3279,0.06,0.017,-0.046
2025-11-06 18:37:24.049,298.515,0.07,-0.303,-0.046,-0.052000000000000005,-1.018,-0.038,26.71,-15.08,-70.33,-0.6606000000000001,0.6026,0.3029,0.3296,0.063,0.022,-0.052000000000000005
2025-11-06 18:37:24.049,298.52,0.082,-0.272,-0.043000000000000003,-0.068,-1.012,-0.046,26.71,-15.08,-70.33,-0.6577000000000001,0.6046,0.3024,0.3321,0.073,0.016,-0.04
2025-11-06 18:37:24.049,298.525,0.078,-0.271,-0.035,-0.082,-1.014,-0.066,27.5,-15.58,-70.38,-0.6553,0.6058,0.30160000000000003,0.3355,0.079,0.018000000000000002,-0.017
2025-11-06 18:37:24.049,298.53,0.079,-0.281,-0.024,-0.09,-1.0210000000000001,-0.083,27.5,-15.58,-70.38,-0.6531,0.6064,0.3007,0.3392,0.08,0.025,0.0
2025-11-06 18:37:24.049,298.535,0.07100000000000001,-0.293,-0.018000000000000002,-0.091,-1.0090000000000001,-0.091,27.3,-15.14,-70.41,-0.6514,0.6067,0.2997,0.34290000000000004,0.073,0.012,0.007
2025-11-06 18:37:24.049,298.54,0.074,-0.28800000000000003,-0.015,-0.094,-0.99,-0.091,27.3,-15.14,-70.41,-0.6497,0.6071000000000001,0.2987,0.3463,0.07,-0.005,0.006
2025-11-06 18:37:24.049,298.545,0.085,-0.273,-0.015,-0.096,-0.978,-0.091,27.3,-15.14,-70.41,-0.6482,0.6074,0.29760000000000003,0.34950000000000003,0.066,-0.017,0.006
2025-11-06 18:37:24.049,298.55,0.094,-0.261,-0.009000000000000001,-0.10300000000000001,-0.977,-0.097,27.36,-14.9,-70.15,-0.6467,0.6076,0.29650000000000004,0.3529,0.066,-0.018000000000000002,0.012
2025-11-06 18:37:24.049,298.555,0.099,-0.25,0.0,-0.11,-0.983,-0.10200000000000001,27.36,-14.9,-70.15,-0.6453,0.6077,0.2953,0.3563,0.067,-0.011,0.015
2025-11-06 18:37:24.049,298.56,0.10300000000000001,-0.245,0.014,-0.114,-0.991,-0.10400000000000001,27.240000000000002,-15.46,-70.18,-0.644,0.6078,0.29410000000000003,0.3594,0.064,-0.003,0.016
2025-11-06 18:37:24.049,298.565,0.101,-0.22,0.035,-0.123,-1.0050000000000001,-0.093,27.240000000000002,-15.46,-70.18,-0.6424000000000001,0.6085,0.2927,0.36210000000000003,0.067,0.011,0.005
2025-11-06 18:37:24.049,298.57,0.08600000000000001,-0.17200000000000001,0.044,-0.131,-1.014,-0.083,27.240000000000002,-15.46,-70.18,-0.6408,0.6096,0.2913,0.3644,0.068,0.02,-0.003
2025-11-06 18:37:24.049,298.575,0.069,-0.131,0.052000000000000005,-0.139,-1.0170000000000001,-0.078,27.47,-15.870000000000001,-70.44,-0.6391,0.6108,0.2898,0.36660000000000004,0.07,0.024,-0.007
2025-11-06 18:37:24.049,298.58,0.051000000000000004,-0.095,0.067,-0.149,-1.02,-0.081,27.47,-15.870000000000001,-70.44,-0.6373,0.6118,0.2882,0.36910000000000004,0.073,0.027,-0.003
2025-11-06 18:37:24.049,298.585,0.031,-0.062,0.081,-0.148,-1.024,-0.08600000000000001,27.38,-15.370000000000001,-69.95,-0.6358,0.6125,0.2869,0.3715,0.066,0.031,0.001
2025-11-06 18:37:24.049,298.59,0.006,-0.022,0.10200000000000001,-0.14300000000000002,-1.0210000000000001,-0.089,27.38,-15.370000000000001,-69.95,-0.6346,0.613,0.2857,0.3738,0.055,0.029,0.004
2025-11-06 18:37:24.049,298.595,-0.009000000000000001,0.002,0.114,-0.135,-1.0230000000000001,-0.089,27.38,-15.370000000000001,-69.95,-0.6336,0.6133000000000001,0.2848,0.3755,0.043000000000000003,0.031,0.004
2025-11-06 18:37:24.049,298.6,-0.026000000000000002,0.023,0.127,-0.127,-1.0190000000000001,-0.085,27.03,-15.14,-69.54,-0.6329,0.6137,0.28400000000000003,0.3768,0.032,0.028,0.0
2025-11-06 18:37:24.049,298.605,-0.034,0.044,0.14,-0.121,-1.0190000000000001,-0.082,27.03,-15.14,-69.54,-0.6323000000000001,0.6141,0.2833,0.3776,0.023,0.028,-0.003
2025-11-06 18:37:24.049,298.61,-0.041,0.06,0.154,-0.107,-1.0170000000000001,-0.074,26.95,-16.39,-70.15,-0.6319,0.6147,0.28300000000000003,0.3776,0.007,0.026000000000000002,-0.009000000000000001
2025-11-06 18:37:24.049,298.615,-0.042,0.068,0.16,-0.082,-1.0130000000000001,-0.07,26.95,-16.39,-70.15,-0.632,0.6151,0.28300000000000003,0.37670000000000003,-0.016,0.023,-0.012
2025-11-06 18:37:24.053,298.62,-0.042,0.05,0.166,-0.075,-1.014,-0.068,27.3,-16.8,-69.71000000000001,-0.6322,0.6155,0.2832,0.37560000000000004,-0.022,0.023,-0.013000000000000001
2025-11-06 18:37:24.053,298.625,-0.034,0.033,0.17200000000000001,-0.096,-1.016,-0.063,27.3,-16.8,-69.71000000000001,-0.6319,0.6163000000000001,0.28290000000000004,0.37510000000000004,-0.001,0.025,-0.017
2025-11-06 18:37:24.053,298.63,-0.028,0.024,0.168,-0.109,-1.0150000000000001,-0.062,27.3,-16.8,-69.71000000000001,-0.6313000000000001,0.6171,0.28250000000000003,0.375,0.009000000000000001,0.024,-0.016
2025-11-06 18:37:24.053,298.635,-0.022,0.01,0.155,-0.083,-1.0210000000000001,-0.068,27.79,-15.63,-70.38,-0.6314000000000001,0.6175,0.28250000000000003,0.37420000000000003,-0.014,0.03,-0.009000000000000001
2025-11-06 18:37:24.053,298.64,-0.025,-0.008,0.14200000000000002,-0.08,-1.0150000000000001,-0.068,27.79,-15.63,-70.38,-0.6316,0.6178,0.2826,0.3733,-0.017,0.024,-0.008
2025-11-06 18:37:24.053,298.645,-0.02,-0.02,0.127,-0.053,-1.0070000000000001,-0.069,27.36,-15.02,-70.62,-0.6323000000000001,0.6178,0.2833,0.37160000000000004,-0.041,0.016,-0.006
2025-11-06 18:37:24.053,298.65,-0.014,-0.034,0.111,-0.025,-1.006,-0.076,27.36,-15.02,-70.62,-0.6337,0.6172000000000001,0.2844,0.36920000000000003,-0.064,0.014,0.0
2025-11-06 18:37:24.053,298.655,-0.009000000000000001,-0.048,0.1,-0.036000000000000004,-1.002,-0.08600000000000001,27.36,-15.02,-70.62,-0.6349,0.6165,0.2852,0.3677,-0.049,0.009000000000000001,0.009000000000000001
2025-11-06 18:37:24.053,298.66,-0.008,-0.059000000000000004,0.082,-0.02,-0.993,-0.101,27.18,-15.11,-70.73,-0.6367,0.6152000000000001,0.2862,0.3662,-0.06,0.0,0.022
2025-11-06 18:37:24.053,298.665,-0.014,-0.062,0.07100000000000001,-0.012,-0.993,-0.112,27.18,-15.11,-70.73,-0.6387,0.6136,0.2872,0.3647,-0.062,0.0,0.03
2025-11-06 18:37:24.053,298.67,-0.02,-0.055,0.064,-0.02,-0.984,-0.11,26.8,-15.55,-70.35000000000001,-0.6403,0.6122000000000001,0.2879,0.36360000000000003,-0.05,-0.008,0.026000000000000002
2025-11-06 18:37:24.053,298.675,-0.022,-0.024,0.051000000000000004,-0.017,-0.972,-0.097,26.8,-15.55,-70.35000000000001,-0.6416000000000001,0.6111,0.2889,0.3623,-0.049,-0.02,0.011
2025-11-06 18:37:24.053,298.68,-0.023,0.01,0.036000000000000004,-0.01,-0.967,-0.091,26.8,-15.55,-70.35000000000001,-0.6427,0.6102000000000001,0.29000000000000004,0.3609,-0.051000000000000004,-0.026000000000000002,0.004
2025-11-06 18:37:24.053,298.685,-0.023,0.03,0.027,-0.007,-0.961,-0.10400000000000001,26.62,-15.17,-70.44,-0.6441,0.609,0.2911,0.3597,-0.05,-0.032,0.015
2025-11-06 18:37:24.053,298.69,-0.026000000000000002,0.023,0.026000000000000002,-0.014,-0.961,-0.122,26.62,-15.17,-70.44,-0.6458,0.6073000000000001,0.29150000000000004,0.35910000000000003,-0.039,-0.032,0.031
2025-11-06 18:37:24.053,298.695,-0.033,0.015,0.025,-0.024,-0.962,-0.139,26.57,-15.49,-70.73,-0.6476000000000001,0.6055,0.2914,0.35900000000000004,-0.026000000000000002,-0.031,0.043000000000000003
2025-11-06 18:37:24.053,298.7,-0.042,0.01,0.026000000000000002,-0.032,-0.967,-0.157,26.57,-15.49,-70.73,-0.6495000000000001,0.6035,0.2908,0.3594,-0.016,-0.026000000000000002,0.055
2025-11-06 18:37:24.053,298.705,-0.053,0.006,0.026000000000000002,-0.039,-0.969,-0.181,26.39,-15.6,-70.91,-0.6519,0.601,0.2896,0.3602,-0.009000000000000001,-0.023,0.073
2025-11-06 18:37:24.053,298.71,-0.067,-0.006,0.027,-0.039,-0.97,-0.195,26.39,-15.6,-70.91,-0.6544,0.5983,0.2883,0.36110000000000003,-0.008,-0.021,0.079
2025-11-06 18:37:24.053,298.715,-0.075,-0.018000000000000002,0.028,-0.034,-0.97,-0.20600000000000002,26.39,-15.6,-70.91,-0.6571,0.5955,0.28700000000000003,0.36200000000000004,-0.012,-0.02,0.082
2025-11-06 18:37:24.053,298.72,-0.08,-0.025,0.033,-0.026000000000000002,-0.969,-0.20800000000000002,26.68,-15.52,-70.88,-0.6597000000000001,0.5927,0.2861,0.36260000000000003,-0.019,-0.021,0.076
2025-11-06 18:37:24.053,298.725,-0.084,-0.023,0.04,-0.021,-0.968,-0.201,26.68,-15.52,-70.88,-0.6619,0.5903,0.2856,0.36300000000000004,-0.022,-0.02,0.062
2025-11-06 18:37:24.053,298.73,-0.094,-0.007,0.052000000000000005,-0.025,-0.972,-0.182,26.71,-15.49,-70.27,-0.6633,0.5886,0.2853,0.3633,-0.017,-0.016,0.039
2025-11-06 18:37:24.053,298.735,-0.095,0.006,0.056,-0.04,-0.974,-0.17400000000000002,26.71,-15.49,-70.27,-0.6642,0.5876,0.2846,0.3638,-0.001,-0.013000000000000001,0.027
2025-11-06 18:37:24.053,298.74,-0.092,0.011,0.064,-0.056,-0.976,-0.168,26.71,-15.49,-70.27,-0.6648000000000001,0.5871000000000001,0.28350000000000003,0.3644,0.012,-0.01,0.018000000000000002
2025-11-06 18:37:24.053,298.745,-0.089,0.009000000000000001,0.068,-0.066,-0.976,-0.163,26.39,-15.98,-70.47,-0.6651,0.5870000000000001,0.2822,0.365,0.02,-0.01,0.012
2025-11-06 18:37:24.053,298.75,-0.099,0.002,0.07,-0.068,-0.984,-0.159,26.39,-15.98,-70.47,-0.6652,0.5871000000000001,0.281,0.36560000000000004,0.02,-0.002,0.007
2025-11-06 18:37:24.053,298.755,-0.127,0.01,0.069,-0.054,-0.981,-0.154,26.45,-16.25,-70.79,-0.6653,0.5870000000000001,0.2805,0.3659,0.004,-0.005,0.001
2025-11-06 18:37:24.053,298.76,-0.14100000000000001,0.018000000000000002,0.069,-0.038,-0.978,-0.149,26.45,-16.25,-70.79,-0.6655,0.5867,0.2808,0.366,-0.01,-0.008,-0.004
2025-11-06 18:37:24.053,298.765,-0.154,0.023,0.066,-0.022,-0.976,-0.147,26.45,-16.25,-70.79,-0.6657000000000001,0.5861000000000001,0.2817,0.3658,-0.025,-0.01,-0.006
2025-11-06 18:37:24.053,298.77,-0.165,0.016,0.062,-0.01,-0.973,-0.15,26.71,-16.72,-70.73,-0.6661,0.5852,0.28290000000000004,0.3654,-0.034,-0.013000000000000001,-0.003
2025-11-06 18:37:24.053,298.775,-0.17500000000000002,0.001,0.061,0.002,-0.973,-0.163,26.71,-16.72,-70.73,-0.667,0.5838,0.2843,0.365,-0.044,-0.013000000000000001,0.006
2025-11-06 18:37:24.053,298.78,-0.181,-0.04,0.061,0.01,-0.971,-0.17300000000000001,26.45,-18.41,-71.0,-0.6682,0.5822,0.28550000000000003,0.36460000000000004,-0.047,-0.015,0.014
2025-11-06 18:37:24.053,298.785,-0.183,-0.057,0.061,0.016,-0.965,-0.17500000000000002,26.45,-18.41,-71.0,-0.6694,0.5805,0.2868,0.36410000000000003,-0.049,-0.02,0.013000000000000001
2025-11-06 18:37:24.053,298.79,-0.17400000000000002,-0.059000000000000004,0.058,0.02,-0.9580000000000001,-0.17400000000000002,26.45,-18.41,-70.56,-0.6706000000000001,0.5788,0.2881,0.3635,-0.049,-0.027,0.01
