System_Time,Timestamp,Gyro_X,Gyro_Y,Gyro_Z,Acc_X,Acc_Y,Acc_Z,Mag_X,Mag_Y,Mag_Z,Quat_W,Quat_X,Quat_Y,Quat_Z,Linear_Acc_X,Linear_Acc_Y,Linear_Acc_Z
2025-11-06 18:37:06.526,125.055,0.334,-0.382,-0.098,-0.316,-0.788,-0.043000000000000003,14.290000000000001,-26.8,-66.38,-0.3411,0.043300000000000005,-0.6851,-0.642,-0.09,-0.121,-0.015
2025-11-06 18:37:06.526,125.06,0.319,-0.335,-0.114,-0.313,-0.784,-0.025,14.290000000000001,-26.8,-66.38,-0.3408,0.0466,-0.6866,-0.6404000000000001,-0.089,-0.127,-0.028
2025-11-06 18:37:06.526,125.065,0.293,-0.262,-0.169,-0.309,-0.787,-0.014,14.030000000000001,-26.3,-65.91,-0.3406,0.050300000000000004,-0.6881,-0.6386000000000001,-0.089,-0.126,-0.034
2025-11-06 18:37:06.526,125.07,0.289,-0.245,-0.20500000000000002,-0.31,-0.793,-0.016,14.030000000000001,-26.3,-65.91,-0.3401,0.0536,-0.6894,-0.6372,-0.085,-0.122,-0.028
2025-11-06 18:37:06.526,125.075,0.305,-0.248,-0.23800000000000002,-0.314,-0.793,-0.017,14.14,-26.650000000000002,-66.0,-0.3395,0.0563,-0.6906,-0.636,-0.078,-0.124,-0.023
2025-11-06 18:37:06.526,125.08,0.323,-0.259,-0.273,-0.324,-0.796,-0.023,14.14,-26.650000000000002,-66.0,-0.3386,0.057800000000000004,-0.6916,-0.6353,-0.065,-0.122,-0.013000000000000001
2025-11-06 18:37:06.526,125.085,0.357,-0.28600000000000003,-0.327,-0.333,-0.794,-0.033,14.14,-26.650000000000002,-66.0,-0.3375,0.058100000000000006,-0.6922,-0.6351,-0.054,-0.125,-0.001
2025-11-06 18:37:06.526,125.09,0.368,-0.307,-0.358,-0.339,-0.794,-0.039,14.0,-26.740000000000002,-66.23,-0.33630000000000004,0.0577,-0.6927,-0.6353,-0.047,-0.125,0.005
2025-11-06 18:37:06.526,125.095,0.373,-0.328,-0.389,-0.343,-0.792,-0.048,14.0,-26.740000000000002,-66.23,-0.33490000000000003,0.0567,-0.6928000000000001,-0.636,-0.042,-0.128,0.014
2025-11-06 18:37:06.526,125.1,0.378,-0.34700000000000003,-0.41400000000000003,-0.343,-0.791,-0.046,14.08,-26.54,-66.23,-0.3335,0.0558,-0.6931,-0.6365000000000001,-0.042,-0.128,0.013000000000000001
2025-11-06 18:37:06.526,125.105,0.365,-0.357,-0.445,-0.338,-0.791,-0.04,14.08,-26.54,-66.23,-0.3321,0.055400000000000005,-0.6935,-0.6368,-0.046,-0.129,0.007
2025-11-06 18:37:06.526,125.11,0.337,-0.358,-0.47500000000000003,-0.341,-0.796,-0.032,14.35,-27.27,-66.09,-0.3307,0.055200000000000006,-0.6941,-0.6369,-0.042,-0.125,0.001
2025-11-06 18:37:06.526,125.115,0.315,-0.352,-0.502,-0.352,-0.802,-0.029,14.35,-27.27,-66.09,-0.3294,0.054400000000000004,-0.6948000000000001,-0.6369,-0.03,-0.12,0.0
2025-11-06 18:37:06.526,125.12,0.297,-0.34400000000000003,-0.527,-0.362,-0.809,-0.032,14.35,-27.27,-66.09,-0.3282,0.0533,-0.6953,-0.6371,-0.02,-0.112,0.004
2025-11-06 18:37:06.526,125.125,0.278,-0.334,-0.55,-0.372,-0.8140000000000001,-0.032,14.26,-27.560000000000002,-64.8,-0.327,0.0517,-0.6958000000000001,-0.6373,-0.01,-0.107,0.005
2025-11-06 18:37:06.526,125.13,0.258,-0.319,-0.5740000000000001,-0.371,-0.8130000000000001,-0.012,14.26,-27.560000000000002,-64.8,-0.3257,0.0507,-0.6968000000000001,-0.6368,-0.011,-0.108,-0.012
2025-11-06 18:37:06.526,125.135,0.23800000000000002,-0.28600000000000003,-0.597,-0.362,-0.803,0.008,14.73,-25.6,-65.09,-0.3244,0.0502,-0.6984,-0.6358,-0.021,-0.11800000000000001,-0.028
2025-11-06 18:37:06.526,125.14,0.222,-0.25,-0.613,-0.356,-0.791,0.019,14.73,-25.6,-65.09,-0.323,0.0499,-0.7003,-0.6345000000000001,-0.027,-0.13,-0.035
2025-11-06 18:37:06.526,125.145,0.216,-0.222,-0.629,-0.34900000000000003,-0.779,0.023,14.73,-25.6,-65.09,-0.3216,0.0497,-0.7020000000000001,-0.6333000000000001,-0.033,-0.14200000000000002,-0.033
2025-11-06 18:37:06.526,125.15,0.21,-0.195,-0.646,-0.341,-0.777,0.026000000000000002,15.34,-28.990000000000002,-64.51,-0.32020000000000004,0.0499,-0.7037,-0.6322,-0.041,-0.145,-0.031
2025-11-06 18:37:06.526,125.155,0.191,-0.152,-0.67,-0.331,-0.774,0.041,15.34,-28.990000000000002,-64.51,-0.3185,0.0506,-0.7057,-0.6308,-0.049,-0.148,-0.041
2025-11-06 18:37:06.526,281.725,-0.176,0.68,-0.321,-0.179,-0.961,-0.168,22.77,-19.26,-73.07000000000001,-0.6452,0.5058,-0.4373,-0.3694,-0.004,-0.015,0.064
2025-11-06 18:37:06.526,281.73,-0.756,2.548,-1.599,-0.177,-0.96,-0.165,24.52,-20.98,-77.52,-0.6489,0.5072,-0.4293,-0.37020000000000003,0.0,-0.016,0.051000000000000004
2025-11-06 18:37:06.526,281.735,-1.862,5.1770000000000005,-3.232,-0.179,-0.962,-0.168,24.52,-20.98,-77.52,-0.655,0.5108,-0.4148,-0.37110000000000004,0.017,-0.015,0.038
2025-11-06 18:37:06.526,281.74,0.234,0.046,-0.155,-0.179,-0.962,-0.167,24.52,-20.98,-77.52,-0.6557000000000001,0.5098,-0.41490000000000005,-0.37120000000000003,0.021,-0.014,0.031
2025-11-06 18:37:06.526,281.745,0.368,-0.292,0.047,-0.179,-0.961,-0.166,24.490000000000002,-20.81,-76.9,-0.6561,0.5086,-0.4158,-0.37120000000000003,0.019,-0.016,0.029
2025-11-06 18:37:06.526,281.75,0.004,0.005,0.001,-0.179,-0.96,-0.165,24.490000000000002,-20.81,-76.9,-0.657,0.5073,-0.41590000000000005,-0.37120000000000003,0.017,-0.016,0.026000000000000002
2025-11-06 18:37:06.526,281.755,0.003,0.007,0.002,-0.178,-0.96,-0.165,24.55,-21.07,-77.02,-0.6579,0.5062,-0.41590000000000005,-0.3713,0.014,-0.015,0.023
2025-11-06 18:37:06.526,281.76,0.003,0.008,0.001,-0.178,-0.962,-0.167,24.55,-21.07,-77.02,-0.6587000000000001,0.5051,-0.4158,-0.3713,0.013000000000000001,-0.013000000000000001,0.023
2025-11-06 18:37:06.526,281.765,0.003,0.008,0.001,-0.178,-0.963,-0.169,23.96,-20.46,-76.84,-0.6595000000000001,0.5041,-0.4157,-0.3713,0.012,-0.011,0.023
2025-11-06 18:37:06.526,281.77,0.0,0.006,0.001,-0.176,-0.964,-0.169,23.96,-20.46,-76.84,-0.6603,0.5033,-0.41540000000000005,-0.3714,0.009000000000000001,-0.01,0.021
2025-11-06 18:37:06.526,281.775,0.001,0.006,0.003,-0.17500000000000002,-0.962,-0.17,23.96,-20.46,-76.84,-0.661,0.5025000000000001,-0.4152,-0.3714,0.007,-0.011,0.02
2025-11-06 18:37:06.526,281.78,0.002,0.007,0.003,-0.17400000000000002,-0.961,-0.169,23.88,-20.46,-76.67,-0.6617000000000001,0.5019,-0.41490000000000005,-0.3714,0.005,-0.011,0.017
2025-11-06 18:37:06.526,281.785,0.003,0.008,0.0,-0.17400000000000002,-0.96,-0.169,23.88,-20.46,-76.67,-0.6623,0.5013000000000001,-0.4147,-0.3715,0.004,-0.013000000000000001,0.015
2025-11-06 18:37:06.526,281.79,0.006,0.008,0.002,-0.17500000000000002,-0.9590000000000001,-0.167,24.2,-20.6,-76.58,-0.6628000000000001,0.5007,-0.41450000000000004,-0.3715,0.005,-0.013000000000000001,0.013000000000000001
2025-11-06 18:37:06.526,281.795,0.01,0.008,0.001,-0.17400000000000002,-0.961,-0.166,24.2,-20.6,-76.58,-0.6632,0.5002,-0.41440000000000005,-0.3715,0.003,-0.011,0.01
2025-11-06 18:37:06.526,281.8,0.009000000000000001,0.004,0.004,-0.17400000000000002,-0.961,-0.168,24.2,-20.6,-76.58,-0.6636000000000001,0.4998,-0.4143,-0.3715,0.003,-0.01,0.011
2025-11-06 18:37:06.526,281.805,0.01,0.005,0.003,-0.17500000000000002,-0.963,-0.169,24.02,-20.11,-76.73,-0.664,0.4994,-0.4141,-0.3715,0.003,-0.008,0.011
2025-11-06 18:37:06.526,281.81,0.005,0.0,0.001,-0.17400000000000002,-0.962,-0.171,24.02,-20.11,-76.73,-0.6645,0.499,-0.4138,-0.3715,0.002,-0.009000000000000001,0.012
2025-11-06 18:37:06.526,281.815,0.001,-0.001,-0.001,-0.171,-0.96,-0.171,24.11,-20.37,-77.57000000000001,-0.6649,0.49870000000000003,-0.41340000000000005,-0.3715,-0.001,-0.01,0.01
2025-11-06 18:37:06.526,281.82,-0.001,-0.003,-0.002,-0.171,-0.96,-0.168,24.11,-20.37,-77.57000000000001,-0.6652,0.4985,-0.4132,-0.3715,0.0,-0.011,0.007
2025-11-06 18:37:06.528,281.825,-0.001,-0.005,-0.003,-0.17,-0.961,-0.169,24.11,-20.37,-77.57000000000001,-0.6655,0.4984,-0.41290000000000004,-0.37160000000000004,-0.001,-0.01,0.006
2025-11-06 18:37:06.528,281.83,-0.004,-0.008,-0.002,-0.171,-0.962,-0.171,24.23,-20.14,-76.9,-0.6658000000000001,0.49810000000000004,-0.4127,-0.37160000000000004,0.0,-0.009000000000000001,0.008
2025-11-06 18:37:06.528,281.835,-0.007,-0.007,-0.003,-0.17200000000000001,-0.963,-0.17,24.23,-20.14,-76.9,-0.6661,0.4979,-0.41250000000000003,-0.37170000000000003,0.0,-0.008,0.006
2025-11-06 18:37:06.528,281.84,-0.01,-0.005,-0.003,-0.17300000000000001,-0.962,-0.17200000000000001,24.37,-19.990000000000002,-76.61,-0.6663,0.4975,-0.41240000000000004,-0.37170000000000003,0.001,-0.008,0.007
2025-11-06 18:37:06.528,281.845,-0.008,-0.008,-0.004,-0.17400000000000002,-0.963,-0.169,24.37,-19.990000000000002,-76.61,-0.6665,0.4973,-0.4123,-0.3718,0.001,-0.007,0.004
2025-11-06 18:37:06.528,281.85,-0.009000000000000001,-0.004,-0.002,-0.176,-0.961,-0.171,24.46,-19.990000000000002,-76.2,-0.6667000000000001,0.497,-0.41240000000000004,-0.3718,0.003,-0.008,0.004
2025-11-06 18:37:06.528,281.855,-0.01,-0.012,-0.001,-0.176,-0.962,-0.17,24.46,-20.080000000000002,-76.2,-0.6669,0.49660000000000004,-0.41250000000000003,-0.3719,0.003,-0.008,0.003
2025-11-06 18:37:06.528,281.86,-0.009000000000000001,-0.011,0.0,-0.177,-0.963,-0.169,24.46,-20.080000000000002,-76.2,-0.667,0.4963,-0.4126,-0.3719,0.003,-0.007,0.002
2025-11-06 18:37:06.528,281.865,-0.008,-0.01,0.001,-0.179,-0.961,-0.169,24.14,-19.990000000000002,-76.49,-0.6671,0.496,-0.4128,-0.372,0.004,-0.008,0.002
2025-11-06 18:37:06.528,281.87,-0.011,-0.005,0.003,-0.178,-0.962,-0.169,24.14,-19.990000000000002,-76.49,-0.6672,0.49570000000000003,-0.41290000000000004,-0.372,0.003,-0.007,0.002
2025-11-06 18:37:06.528,281.875,-0.009000000000000001,-0.003,0.003,-0.179,-0.961,-0.169,24.46,-20.25,-76.11,-0.6673,0.4955,-0.41300000000000003,-0.372,0.003,-0.008,0.001
2025-11-06 18:37:06.528,281.88,-0.005,-0.007,0.004,-0.18,-0.961,-0.168,24.46,-20.25,-76.11,-0.6674,0.49520000000000003,-0.4133,-0.372,0.004,-0.008,0.0
2025-11-06 18:37:06.528,281.885,-0.004,-0.006,0.005,-0.181,-0.961,-0.164,24.46,-20.25,-76.11,-0.6674,0.49500000000000005,-0.4137,-0.3719,0.004,-0.008,-0.003
2025-11-06 18:37:06.528,281.89,-0.005,-0.006,0.003,-0.181,-0.962,-0.165,24.17,-20.28,-76.61,-0.6673,0.4948,-0.41390000000000005,-0.3719,0.003,-0.007,-0.002
2025-11-06 18:37:06.528,281.895,-0.005,-0.006,0.003,-0.182,-0.962,-0.164,24.17,-20.28,-76.61,-0.6673,0.49460000000000004,-0.4143,-0.3719,0.004,-0.006,-0.003
2025-11-06 18:37:06.528,281.9,-0.004,-0.005,0.004,-0.181,-0.96,-0.162,23.88,-20.22,-76.52,-0.6672,0.49450000000000005,-0.4146,-0.3718,0.003,-0.008,-0.005
2025-11-06 18:37:06.528,281.905,-0.003,-0.007,0.001,-0.181,-0.96,-0.16,23.88,-20.22,-76.52,-0.667,0.49450000000000005,-0.41490000000000005,-0.3718,0.002,-0.009000000000000001,-0.006
2025-11-06 18:37:06.528,281.91,-0.002,-0.007,0.001,-0.181,-0.96,-0.161,23.88,-20.22,-76.52,-0.6669,0.4944,-0.4152,-0.3718,0.001,-0.008,-0.005
2025-11-06 18:37:06.528,281.915,0.0,-0.007,0.001,-0.179,-0.96,-0.164,23.79,-20.54,-76.87,-0.6669,0.4943,-0.4153,-0.3718,0.0,-0.008,-0.002
2025-11-06 18:37:06.528,281.92,0.0,-0.007,0.0,-0.18,-0.962,-0.165,23.79,-20.54,-76.87,-0.6669,0.4943,-0.41540000000000005,-0.37170000000000003,0.0,-0.006,-0.001
2025-11-06 18:37:06.528,281.925,-0.005,-0.004,0.0,-0.179,-0.96,-0.164,23.76,-20.72,-76.38,-0.6669,0.49420000000000003,-0.41550000000000004,-0.37170000000000003,0.0,-0.008,-0.001
2025-11-06 18:37:06.528,281.93,-0.004,-0.003,0.0,-0.178,-0.9590000000000001,-0.163,23.76,-20.72,-76.38,-0.6668000000000001,0.49420000000000003,-0.4156,-0.37170000000000003,0.0,-0.009000000000000001,-0.003
2025-11-06 18:37:06.528,281.935,-0.004,-0.004,-0.001,-0.179,-0.96,-0.161,23.76,-20.72,-76.38,-0.6667000000000001,0.4943,-0.4157,-0.37170000000000003,0.0,-0.008,-0.004
2025-11-06 18:37:06.528,281.94,0.0,-0.004,-0.001,-0.179,-0.96,-0.16,24.14,-20.25,-76.9,-0.6666000000000001,0.4943,-0.4158,-0.37170000000000003,0.0,-0.008,-0.005
2025-11-06 18:37:06.528,281.945,0.0,-0.002,0.0,-0.18,-0.961,-0.16,24.14,-20.25,-76.9,-0.6665,0.4943,-0.41600000000000004,-0.37160000000000004,0.0,-0.007,-0.005
2025-11-06 18:37:06.528,281.95,0.0,0.0,0.001,-0.18,-0.96,-0.161,24.7,-20.54,-76.58,-0.6665,0.4943,-0.4162,-0.37160000000000004,0.0,-0.008,-0.003
2025-11-06 18:37:06.528,281.955,0.001,0.002,0.001,-0.179,-0.961,-0.164,24.7,-20.54,-76.58,-0.6665,0.4943,-0.4162,-0.37160000000000004,-0.001,-0.007,-0.001
2025-11-06 18:37:06.528,281.96,-0.001,0.0,0.001,-0.178,-0.962,-0.166,24.55,-22.42,-76.9,-0.6665,0.4943,-0.4161,-0.37160000000000004,-0.001,-0.007,0.001
2025-11-06 18:37:06.528,281.965,-0.003,0.002,0.0,-0.179,-0.962,-0.167,24.55,-22.42,-76.9,-0.6667000000000001,0.49420000000000003,-0.41600000000000004,-0.37160000000000004,0.0,-0.007,0.002
2025-11-06 18:37:06.528,281.97,-0.006,0.0,0.001,-0.179,-0.963,-0.167,24.55,-22.42,-76.9,-0.6667000000000001,0.49410000000000004,-0.41600000000000004,-0.37160000000000004,0.0,-0.006,0.001
2025-11-06 18:37:06.528,281.975,-0.004,0.0,0.0,-0.178,-0.962,-0.168,23.79,-19.81,-76.46000000000001,-0.6669,0.49400000000000005,-0.4158,-0.37170000000000003,-0.001,-0.006,0.002
2025-11-06 18:37:06.528,281.98,-0.007,-0.001,0.001,-0.178,-0.962,-0.17,23.79,-19.81,-76.46000000000001,-0.667,0.4939,-0.4157,-0.37170000000000003,-0.001,-0.006,0.003
2025-11-06 18:37:06.528,281.985,-0.008,0.0,0.0,-0.177,-0.963,-0.169,23.88,-22.88,-75.97,-0.6671,0.4939,-0.41550000000000004,-0.3718,-0.002,-0.005,0.002
2025-11-06 18:37:06.528,281.99,-0.008,0.0,-0.001,-0.178,-0.963,-0.17,23.88,-22.88,-75.97,-0.6672,0.4938,-0.41540000000000005,-0.3718,-0.001,-0.005,0.002
2025-11-06 18:37:06.528,281.995,-0.008,0.0,0.0,-0.178,-0.963,-0.171,23.88,-22.88,-75.97,-0.6674,0.4937,-0.4152,-0.3719,-0.001,-0.005,0.003
2025-11-06 18:37:06.528,282.0,-0.008,0.002,-0.002,-0.179,-0.964,-0.169,24.17,-19.67,-76.67,-0.6674,0.49360000000000004,-0.4152,-0.3719,0.0,-0.004,0.001
2025-11-06 18:37:06.528,282.005,-0.011,0.003,-0.001,-0.179,-0.961,-0.167,24.17,-19.67,-76.67,-0.6675,0.49360000000000004,-0.4152,-0.3719,-0.001,-0.007,0.0
2025-11-06 18:37:06.528,282.01,-0.009000000000000001,0.004,0.0,-0.18,-0.96,-0.164,23.73,-20.19,-75.88,-0.6674,0.49360000000000004,-0.4153,-0.3719,0.0,-0.008,-0.003
2025-11-06 18:37:06.528,282.015,-0.008,0.007,0.0,-0.179,-0.962,-0.162,23.73,-20.19,-75.88,-0.6673,0.49360000000000004,-0.41540000000000005,-0.3718,0.0,-0.006,-0.005
2025-11-06 18:37:06.528,282.02,-0.008,0.011,-0.002,-0.18,-0.961,-0.159,23.73,-20.19,-75.88,-0.6672,0.4938,-0.4156,-0.37170000000000003,0.0,-0.007,-0.008
2025-11-06 18:37:06.528,282.025,-0.007,0.007,-0.002,-0.181,-0.962,-0.157,24.37,-19.76,-76.76,-0.667,0.4939,-0.4158,-0.37160000000000004,0.001,-0.006,-0.008
2025-11-06 18:37:06.528,282.03,-0.004,0.008,0.0,-0.183,-0.961,-0.156,24.37,-19.76,-76.76,-0.6668000000000001,0.49400000000000005,-0.4161,-0.3714,0.002,-0.007,-0.009000000000000001
2025-11-06 18:37:06.528,282.035,-0.003,0.005,0.001,-0.183,-0.96,-0.155,24.29,-22.740000000000002,-77.25,-0.6666000000000001,0.49410000000000004,-0.41650000000000004,-0.3713,0.002,-0.008,-0.009000000000000001
2025-11-06 18:37:06.528,282.04,-0.005,0.004,0.0,-0.183,-0.96,-0.158,24.29,-22.740000000000002,-77.25,-0.6665,0.49410000000000004,-0.4167,-0.37110000000000004,0.001,-0.008,-0.006
2025-11-06 18:37:06.528,282.045,-0.008,0.003,0.0,-0.187,-0.961,-0.157,24.11,-22.68,-77.25,-0.6665,0.49410000000000004,-0.41700000000000004,-0.3709,0.004,-0.007,-0.006
2025-11-06 18:37:06.528,282.05,-0.009000000000000001,0.0,-0.001,-0.184,-0.962,-0.161,24.11,-22.68,-77.25,-0.6665,0.49410000000000004,-0.4171,-0.3709,0.001,-0.006,-0.002
2025-11-06 18:37:06.530,282.055,-0.008,-0.007,-0.001,-0.181,-0.962,-0.166,24.11,-22.68,-77.25,-0.6666000000000001,0.4939,-0.4171,-0.3709,0.0,-0.006,0.002
2025-11-06 18:37:06.530,282.06,-0.008,-0.013000000000000001,0.0,-0.184,-0.963,-0.166,24.400000000000002,-19.78,-76.49,-0.6667000000000001,0.4938,-0.4171,-0.3709,0.002,-0.005,0.002
2025-11-06 18:37:06.530,282.065,-0.01,-0.012,-0.001,-0.178,-0.96,-0.171,24.400000000000002,-19.78,-76.49,-0.6669,0.49360000000000004,-0.4168,-0.371,-0.004,-0.008,0.006
2025-11-06 18:37:06.530,282.07,-0.011,-0.016,-0.002,-0.176,-0.9570000000000001,-0.17300000000000001,24.61,-20.57,-76.81,-0.6671,0.49350000000000005,-0.4164,-0.3713,-0.006,-0.011,0.007
2025-11-06 18:37:06.530,282.075,-0.01,-0.016,-0.003,-0.17400000000000002,-0.9580000000000001,-0.176,24.61,-20.57,-76.81,-0.6673,0.4933,-0.41600000000000004,-0.3715,-0.007,-0.009000000000000001,0.009000000000000001
2025-11-06 18:37:06.530,282.08,-0.009000000000000001,-0.012,-0.002,-0.171,-0.961,-0.177,24.61,-20.57,-76.81,-0.6675,0.4932,-0.41550000000000004,-0.3718,-0.009000000000000001,-0.007,0.009000000000000001
2025-11-06 18:37:06.530,282.085,-0.006,-0.011,-0.002,-0.17200000000000001,-0.96,-0.17500000000000002,24.23,-20.05,-76.29,-0.6677000000000001,0.4932,-0.4151,-0.37210000000000004,-0.007,-0.008,0.006
2025-11-06 18:37:06.530,282.09,-0.008,-0.006,-0.002,-0.171,-0.961,-0.17400000000000002,24.23,-20.05,-76.29,-0.6678000000000001,0.4932,-0.4148,-0.3723,-0.008,-0.007,0.005
2025-11-06 18:37:06.530,282.095,-0.009000000000000001,0.001,0.0,-0.171,-0.961,-0.17200000000000001,24.72,-20.37,-76.93,-0.6678000000000001,0.4932,-0.41450000000000004,-0.3725,-0.008,-0.007,0.002
2025-11-06 18:37:06.530,282.1,-0.005,0.007,-0.001,-0.171,-0.9590000000000001,-0.169,24.72,-20.37,-76.93,-0.6678000000000001,0.4933,-0.4142,-0.37260000000000004,-0.007,-0.008,-0.001
2025-11-06 18:37:06.530,282.105,-0.006,0.01,0.0,-0.17300000000000001,-0.9580000000000001,-0.168,24.72,-20.37,-76.93,-0.6678000000000001,0.4934,-0.4141,-0.37270000000000003,-0.005,-0.01,-0.002
2025-11-06 18:37:06.530,282.11,-0.005,0.013000000000000001,0.0,-0.17200000000000001,-0.9590000000000001,-0.167,24.52,-19.81,-76.2,-0.6678000000000001,0.49350000000000005,-0.41400000000000003,-0.37270000000000003,-0.005,-0.009000000000000001,-0.002
2025-11-06 18:37:06.530,282.115,-0.004,0.012,-0.001,-0.17300000000000001,-0.96,-0.169,24.52,-19.81,-76.2,-0.6677000000000001,0.49360000000000004,-0.41390000000000005,-0.3728,-0.004,-0.008,-0.001
2025-11-06 18:37:06.530,282.12,-0.007,0.014,0.001,-0.17300000000000001,-0.96,-0.168,23.94,-19.73,-76.32000000000001,-0.6677000000000001,0.4937,-0.4138,-0.3728,-0.004,-0.008,-0.001
2025-11-06 18:37:06.530,282.125,-0.006,0.009000000000000001,-0.002,-0.17200000000000001,-0.96,-0.171,23.94,-19.73,-76.32000000000001,-0.6678000000000001,0.4937,-0.4136,-0.3729,-0.004,-0.008,0.0
2025-11-06 18:37:06.530,282.13,-0.008,0.009000000000000001,-0.001,-0.17300000000000001,-0.96,-0.171,24.2,-19.96,-76.29,-0.6678000000000001,0.4937,-0.41350000000000003,-0.373,-0.003,-0.008,0.0
2025-11-06 18:37:06.530,282.135,-0.011,0.008,0.0,-0.17400000000000002,-0.9580000000000001,-0.171,24.2,-19.96,-76.29,-0.6679,0.49360000000000004,-0.41340000000000005,-0.373,-0.002,-0.01,0.0
2025-11-06 18:37:06.530,282.14,-0.006,0.007,0.0,-0.17400000000000002,-0.96,-0.17200000000000001,24.2,-19.96,-76.29,-0.668,0.49360000000000004,-0.4133,-0.37310000000000004,-0.002,-0.008,0.0
2025-11-06 18:37:06.530,282.145,-0.006,0.001,-0.001,-0.17300000000000001,-0.96,-0.171,23.85,-20.16,-77.37,-0.668,0.49360000000000004,-0.4132,-0.37320000000000003,-0.003,-0.008,0.0
2025-11-06 18:37:06.530,282.15,-0.006,-0.002,-0.004,-0.17200000000000001,-0.9590000000000001,-0.17300000000000001,23.85,-20.16,-77.37,-0.6681,0.49350000000000005,-0.41300000000000003,-0.3733,-0.003,-0.009000000000000001,0.001
2025-11-06 18:37:06.531,282.155,-0.007,-0.005,-0.004,-0.17300000000000001,-0.962,-0.171,24.34,-21.86,-76.43,-0.6681,0.49350000000000005,-0.41300000000000003,-0.3733,-0.002,-0.006,0.0
2025-11-06 18:37:06.532,282.16,-0.007,-0.008,-0.004,-0.17400000000000002,-0.962,-0.171,24.34,-21.86,-76.43,-0.6681,0.49350000000000005,-0.41300000000000003,-0.3734,-0.001,-0.006,0.0
2025-11-06 18:37:06.532,282.165,-0.008,-0.013000000000000001,-0.004,-0.17400000000000002,-0.963,-0.171,24.34,-21.86,-76.43,-0.6681,0.49350000000000005,-0.41290000000000004,-0.3734,-0.002,-0.005,0.0
2025-11-06 18:37:06.532,282.17,-0.011,-0.013000000000000001,-0.004,-0.17300000000000001,-0.963,-0.17200000000000001,24.080000000000002,-20.14,-76.29,-0.6681,0.49350000000000005,-0.41290000000000004,-0.3735,-0.002,-0.005,0.0
2025-11-06 18:37:06.532,282.175,-0.014,-0.013000000000000001,-0.006,-0.17500000000000002,-0.962,-0.17200000000000001,24.080000000000002,-20.14,-76.29,-0.6681,0.4934,-0.41290000000000004,-0.37360000000000004,0.0,-0.006,0.0
2025-11-06 18:37:06.532,282.18,-0.009000000000000001,-0.014,-0.002,-0.17400000000000002,-0.962,-0.171,24.23,-19.93,-76.93,-0.6681,0.4934,-0.41290000000000004,-0.37360000000000004,-0.001,-0.006,0.0
2025-11-06 18:37:06.532,282.185,-0.01,-0.015,-0.001,-0.176,-0.961,-0.17200000000000001,24.23,-19.93,-76.93,-0.6681,0.4933,-0.41290000000000004,-0.37360000000000004,0.0,-0.007,0.0
2025-11-06 18:37:06.532,282.19,-0.009000000000000001,-0.019,-0.002,-0.178,-0.962,-0.17300000000000001,24.23,-19.93,-76.93,-0.6682,0.49310000000000004,-0.41300000000000003,-0.37360000000000004,0.001,-0.006,0.0
2025-11-06 18:37:06.532,282.195,-0.009000000000000001,-0.019,-0.001,-0.179,-0.962,-0.17300000000000001,24.37,-20.400000000000002,-77.14,-0.6683,0.4929,-0.4131,-0.37360000000000004,0.003,-0.005,0.0
2025-11-06 18:37:06.532,282.2,-0.009000000000000001,-0.018000000000000002,-0.001,-0.181,-0.96,-0.17200000000000001,24.37,-20.400000000000002,-77.14,-0.6684,0.4927,-0.4133,-0.3735,0.004,-0.007,0.0
2025-11-06 18:37:06.532,282.205,-0.009000000000000001,-0.019,0.0,-0.18,-0.96,-0.171,24.55,-20.19,-76.76,-0.6684,0.49260000000000004,-0.41350000000000003,-0.3734,0.003,-0.007,-0.002
2025-11-06 18:37:06.532,282.21,-0.008,-0.016,0.0,-0.181,-0.96,-0.17200000000000001,24.55,-20.19,-76.76,-0.6685,0.4924,-0.4136,-0.3734,0.003,-0.007,0.0
2025-11-06 18:37:06.532,282.215,-0.007,-0.015,-0.001,-0.182,-0.9590000000000001,-0.17,24.55,-20.19,-76.76,-0.6685,0.4923,-0.4138,-0.3733,0.003,-0.009000000000000001,-0.002
2025-11-06 18:37:06.532,282.22,-0.01,-0.007,0.0,-0.181,-0.9590000000000001,-0.17,24.080000000000002,-20.05,-76.87,-0.6685,0.4922,-0.41400000000000003,-0.37320000000000003,0.002,-0.008,-0.002
2025-11-06 18:37:06.532,282.225,-0.01,-0.007,-0.001,-0.181,-0.96,-0.169,24.080000000000002,-20.05,-76.87,-0.6685,0.49210000000000004,-0.4141,-0.37310000000000004,0.002,-0.007,-0.003
2025-11-06 18:37:06.532,282.23,-0.011,-0.01,0.001,-0.18,-0.96,-0.17,24.37,-20.19,-76.76,-0.6685,0.49200000000000005,-0.4142,-0.373,0.001,-0.008,-0.002
2025-11-06 18:37:06.532,282.235,-0.012,-0.01,0.0,-0.179,-0.961,-0.169,24.37,-20.19,-76.76,-0.6685,0.49200000000000005,-0.4143,-0.373,0.0,-0.006,-0.003
2025-11-06 18:37:06.532,282.24,-0.012,-0.01,-0.001,-0.184,-0.962,-0.163,24.490000000000002,-20.37,-76.0,-0.6684,0.49210000000000004,-0.4147,-0.3728,0.004,-0.005,-0.009000000000000001
2025-11-06 18:37:06.532,282.245,-0.018000000000000002,-0.007,-0.002,-0.176,-0.961,-0.165,24.490000000000002,-20.37,-76.0,-0.6682,0.4922,-0.4147,-0.3729,-0.004,-0.007,-0.006
2025-11-06 18:37:06.532,282.25,-0.018000000000000002,-0.005,-0.002,-0.181,-0.961,-0.163,24.490000000000002,-20.37,-76.0,-0.668,0.4923,-0.41500000000000004,-0.37270000000000003,0.0,-0.006,-0.008
2025-11-06 18:37:06.532,282.255,-0.018000000000000002,-0.009000000000000001,-0.003,-0.179,-0.962,-0.161,24.61,-20.75,-76.55,-0.6678000000000001,0.49250000000000005,-0.4152,-0.37270000000000003,-0.001,-0.006,-0.009000000000000001
2025-11-06 18:37:06.532,282.26,-0.019,-0.01,-0.003,-0.177,-0.9580000000000001,-0.166,24.61,-20.75,-76.55,-0.6677000000000001,0.49260000000000004,-0.4152,-0.37270000000000003,-0.002,-0.009000000000000001,-0.004
2025-11-06 18:37:06.532,282.265,-0.019,-0.006,-0.001,-0.181,-0.9590000000000001,-0.165,24.400000000000002,-19.81,-77.11,-0.6677000000000001,0.49250000000000005,-0.4153,-0.37260000000000004,0.001,-0.008,-0.004
2025-11-06 18:37:06.532,282.27,-0.02,-0.003,-0.004,-0.182,-0.96,-0.167,24.400000000000002,-19.81,-77.11,-0.6678000000000001,0.49250000000000005,-0.41540000000000005,-0.37260000000000004,0.001,-0.008,-0.002
2025-11-06 18:37:06.532,282.275,-0.018000000000000002,0.0,-0.004,-0.184,-0.961,-0.165,24.400000000000002,-19.81,-77.11,-0.6678000000000001,0.4924,-0.4156,-0.3724,0.002,-0.006,-0.004
2025-11-06 18:37:06.532,282.28,-0.021,0.0,-0.004,-0.178,-0.9570000000000001,-0.166,24.34,-22.44,-76.38,-0.6677000000000001,0.4924,-0.4156,-0.3725,-0.003,-0.011,-0.003
2025-11-06 18:37:06.532,282.285,-0.017,0.003,-0.002,-0.18,-0.9590000000000001,-0.167,24.34,-22.44,-76.38,-0.6678000000000001,0.4924,-0.4156,-0.3725,0.0,-0.008,-0.001
2025-11-06 18:37:06.532,282.29,-0.014,0.002,-0.001,-0.18,-0.9580000000000001,-0.168,24.26,-20.63,-76.43,-0.6678000000000001,0.4924,-0.4156,-0.3725,-0.001,-0.01,-0.001
2025-11-06 18:37:06.532,282.295,-0.016,0.002,-0.001,-0.181,-0.961,-0.169,24.26,-20.63,-76.43,-0.6678000000000001,0.4923,-0.4156,-0.3725,0.0,-0.007,-0.001
2025-11-06 18:37:06.532,282.3,-0.014,0.003,-0.001,-0.186,-0.962,-0.167,24.26,-20.63,-76.43,-0.6679,0.4922,-0.4157,-0.3723,0.004,-0.006,-0.002
2025-11-06 18:37:06.532,282.305,-0.014,0.0,-0.003,-0.179,-0.961,-0.169,24.29,-20.34,-76.26,-0.6679,0.4922,-0.4157,-0.3724,-0.002,-0.006,0.0
2025-11-06 18:37:06.532,282.31,-0.012,0.0,-0.004,-0.18,-0.96,-0.171,24.29,-20.34,-76.26,-0.668,0.49210000000000004,-0.4156,-0.3724,-0.001,-0.007,0.001
2025-11-06 18:37:06.532,282.315,-0.013000000000000001,0.003,-0.004,-0.181,-0.961,-0.17,24.87,-20.69,-76.93,-0.6681,0.49210000000000004,-0.4156,-0.3724,0.0,-0.007,0.0
2025-11-06 18:37:06.532,282.32,-0.012,-0.002,-0.002,-0.176,-0.9580000000000001,-0.17200000000000001,24.87,-20.69,-76.93,-0.6681,0.49200000000000005,-0.41540000000000005,-0.37260000000000004,-0.005,-0.009000000000000001,0.001
2025-11-06 18:37:06.532,282.325,-0.012,0.0,-0.005,-0.177,-0.96,-0.17200000000000001,24.23,-20.52,-77.02,-0.6682,0.49200000000000005,-0.4152,-0.37270000000000003,-0.003,-0.008,0.001
2025-11-06 18:37:06.532,282.33,-0.011,0.001,-0.004,-0.17500000000000002,-0.9590000000000001,-0.171,24.23,-20.52,-77.02,-0.6682,0.49200000000000005,-0.4151,-0.3728,-0.005,-0.008,0.0
2025-11-06 18:37:06.532,282.335,-0.009000000000000001,0.002,-0.003,-0.17400000000000002,-0.96,-0.171,24.23,-20.52,-77.02,-0.6682,0.49210000000000004,-0.41490000000000005,-0.3729,-0.005,-0.008,0.0
2025-11-06 18:37:06.532,282.34,-0.009000000000000001,0.005,-0.003,-0.176,-0.9590000000000001,-0.169,24.080000000000002,-20.78,-76.81,-0.6681,0.49210000000000004,-0.41490000000000005,-0.373,-0.003,-0.009000000000000001,-0.002
2025-11-06 18:37:06.532,282.345,-0.01,0.008,-0.004,-0.176,-0.96,-0.168,24.080000000000002,-20.78,-76.81,-0.6681,0.4922,-0.4148,-0.37310000000000004,-0.004,-0.007,-0.002
2025-11-06 18:37:06.532,282.35,-0.006,0.005,-0.002,-0.17500000000000002,-0.96,-0.171,24.02,-19.990000000000002,-76.79,-0.6681,0.4922,-0.4147,-0.37310000000000004,-0.004,-0.007,0.0
2025-11-06 18:37:06.532,282.355,-0.008,0.01,-0.001,-0.177,-0.96,-0.171,24.02,-19.990000000000002,-76.79,-0.6681,0.4922,-0.4146,-0.37320000000000003,-0.002,-0.007,0.0
2025-11-06 18:37:06.532,282.36,-0.008,0.009000000000000001,-0.002,-0.178,-0.96,-0.169,24.02,-19.990000000000002,-76.79,-0.6681,0.4922,-0.4146,-0.37320000000000003,-0.001,-0.008,-0.002
2025-11-06 18:37:06.532,282.365,-0.008,0.009000000000000001,-0.003,-0.178,-0.96,-0.17,24.490000000000002,-20.54,-76.76,-0.6681,0.4922,-0.4146,-0.37320000000000003,-0.001,-0.007,-0.001
2025-11-06 18:37:06.532,282.37,-0.006,0.007,-0.002,-0.178,-0.96,-0.171,24.490000000000002,-20.54,-76.76,-0.6682,0.4922,-0.4146,-0.37320000000000003,-0.001,-0.008,0.0
2025-11-06 18:37:06.532,282.375,-0.006,0.007,-0.004,-0.177,-0.96,-0.17200000000000001,24.61,-20.400000000000002,-77.17,-0.6682,0.49210000000000004,-0.41450000000000004,-0.37320000000000003,-0.001,-0.008,0.0
2025-11-06 18:37:06.535,282.38,-0.006,0.003,-0.005,-0.176,-0.9580000000000001,-0.17200000000000001,24.61,-20.400000000000002,-77.17,-0.6683,0.49210000000000004,-0.41440000000000005,-0.3733,-0.002,-0.009000000000000001,0.0
2025-11-06 18:37:06.535,282.385,-0.006,0.004,-0.004,-0.176,-0.9590000000000001,-0.17300000000000001,24.61,-20.400000000000002,-77.17,-0.6683,0.49210000000000004,-0.4143,-0.3733,-0.003,-0.009000000000000001,0.0
2025-11-06 18:37:06.536,282.39,-0.008,0.0,-0.005,-0.176,-0.96,-0.17500000000000002,24.46,-21.19,-76.9,-0.6684,0.49200000000000005,-0.4141,-0.3734,-0.002,-0.008,0.002
2025-11-06 18:37:06.536,282.395,-0.006,0.0,-0.007,-0.176,-0.9590000000000001,-0.17300000000000001,24.46,-21.19,-76.9,-0.6684,0.49200000000000005,-0.4141,-0.3735,-0.002,-0.008,0.0
2025-11-06 18:37:06.536,282.4,-0.005,-0.005,-0.005,-0.176,-0.96,-0.17400000000000002,24.61,-20.05,-76.43,-0.6685,0.4919,-0.41400000000000003,-0.37360000000000004,-0.002,-0.007,0.0
2025-11-06 18:37:06.536,282.405,-0.002,-0.002,-0.003,-0.176,-0.9590000000000001,-0.17200000000000001,24.61,-20.05,-76.43,-0.6685,0.4919,-0.41400000000000003,-0.37360000000000004,-0.002,-0.009000000000000001,-0.001
2025-11-06 18:37:06.536,282.41,-0.004,0.003,-0.003,-0.177,-0.96,-0.17200000000000001,24.26,-20.22,-76.55,-0.6685,0.4919,-0.41390000000000005,-0.37360000000000004,-0.001,-0.007,0.0
2025-11-06 18:37:06.536,282.415,-0.006,0.0,-0.003,-0.177,-0.961,-0.17200000000000001,24.26,-20.22,-76.55,-0.6685,0.4919,-0.41390000000000005,-0.37370000000000003,-0.001,-0.006,-0.001
2025-11-06 18:37:06.536,282.42,-0.005,0.002,-0.003,-0.177,-0.962,-0.17300000000000001,24.26,-20.22,-76.55,-0.6685,0.4919,-0.41390000000000005,-0.37370000000000003,-0.001,-0.006,0.0
2025-11-06 18:37:06.536,282.425,-0.004,0.0,-0.002,-0.177,-0.961,-0.17400000000000002,24.490000000000002,-22.650000000000002,-76.58,-0.6685,0.4919,-0.4138,-0.37370000000000003,-0.001,-0.006,0.0
2025-11-06 18:37:06.536,282.43,-0.009000000000000001,-0.005,-0.001,-0.176,-0.96,-0.176,24.490000000000002,-22.650000000000002,-76.58,-0.6686000000000001,0.4918,-0.4137,-0.3738,-0.002,-0.007,0.002
2025-11-06 18:37:06.536,282.435,-0.004,-0.006,-0.001,-0.177,-0.96,-0.17500000000000002,24.75,-20.78,-76.79,-0.6687000000000001,0.4917,-0.4137,-0.3739,-0.001,-0.007,0.0
2025-11-06 18:37:06.536,282.44,-0.009000000000000001,-0.002,-0.002,-0.177,-0.9590000000000001,-0.17500000000000002,24.75,-20.78,-76.79,-0.6688000000000001,0.49160000000000004,-0.4136,-0.3739,-0.001,-0.008,0.0
2025-11-06 18:37:06.536,282.445,-0.011,0.001,-0.003,-0.177,-0.96,-0.17500000000000002,24.75,-20.78,-76.79,-0.6688000000000001,0.49150000000000005,-0.4136,-0.3739,-0.001,-0.007,0.0
2025-11-06 18:37:06.536,282.45,-0.014,0.002,-0.004,-0.178,-0.961,-0.17400000000000002,23.96,-20.54,-76.38,-0.6689,0.49150000000000005,-0.4136,-0.374,0.0,-0.005,0.0
2025-11-06 18:37:06.536,282.455,-0.013000000000000001,0.001,-0.004,-0.178,-0.961,-0.17400000000000002,23.96,-20.54,-76.38,-0.6689,0.4914,-0.4136,-0.374,0.0,-0.006,0.0
2025-11-06 18:37:06.536,282.46,-0.014,0.002,-0.004,-0.177,-0.962,-0.17300000000000001,24.05,-20.490000000000002,-76.38,-0.6689,0.4914,-0.41350000000000003,-0.374,-0.001,-0.005,-0.001
2025-11-06 18:37:06.536,282.465,-0.012,0.001,-0.002,-0.177,-0.9590000000000001,-0.17400000000000002,24.05,-20.490000000000002,-76.38,-0.6689,0.4914,-0.41350000000000003,-0.374,-0.001,-0.008,0.0
2025-11-06 18:37:06.536,282.47,-0.015,0.002,-0.004,-0.18,-0.962,-0.17400000000000002,24.05,-20.490000000000002,-76.38,-0.669,0.4913,-0.4136,-0.3739,0.001,-0.005,-0.001
2025-11-06 18:37:06.536,282.475,-0.016,0.0,-0.005,-0.179,-0.9590000000000001,-0.17400000000000002,24.05,-20.6,-76.99,-0.669,0.4912,-0.4136,-0.3739,0.0,-0.008,-0.001
2025-11-06 18:37:06.536,282.48,-0.015,0.0,-0.003,-0.179,-0.9590000000000001,-0.17500000000000002,24.05,-20.6,-76.99,-0.6691,0.49110000000000004,-0.4136,-0.3739,0.0,-0.008,0.0
2025-11-06 18:37:06.536,282.485,-0.014,-0.002,-0.003,-0.182,-0.9570000000000001,-0.17300000000000001,24.46,-20.34,-76.9,-0.6692,0.49100000000000005,-0.4138,-0.3738,0.002,-0.01,-0.002
2025-11-06 18:37:06.536,282.49,-0.01,-0.003,-0.001,-0.18,-0.9560000000000001,-0.17400000000000002,24.46,-20.34,-76.9,-0.6692,0.4909,-0.4138,-0.3738,0.0,-0.011,-0.001
2025-11-06 18:37:06.536,282.495,-0.01,-0.004,-0.001,-0.178,-0.9570000000000001,-0.17300000000000001,24.46,-20.34,-77.69,-0.6692,0.4909,-0.4138,-0.3738,-0.001,-0.01,-0.002
2025-11-06 18:37:06.536,282.5,-0.011,-0.004,-0.001,-0.183,-0.961,-0.17200000000000001,23.73,-20.31,-77.69,-0.6692,0.4909,-0.41400000000000003,-0.37370000000000003,0.002,-0.005,-0.003
2025-11-06 18:37:06.536,282.505,-0.014,-0.002,-0.002,-0.177,-0.9570000000000001,-0.168,23.73,-20.31,-77.69,-0.6691,0.49100000000000005,-0.4141,-0.37370000000000003,-0.003,-0.01,-0.006
2025-11-06 18:37:06.536,282.51,-0.014,-0.007,-0.004,-0.17500000000000002,-0.9560000000000001,-0.171,23.88,-20.34,-76.64,-0.669,0.49100000000000005,-0.41400000000000003,-0.37370000000000003,-0.004,-0.01,-0.003
2025-11-06 18:37:06.536,282.515,-0.013000000000000001,-0.01,-0.003,-0.17200000000000001,-0.9580000000000001,-0.169,23.88,-20.34,-76.64,-0.6689,0.4912,-0.41400000000000003,-0.3738,-0.006,-0.008,-0.005
2025-11-06 18:37:06.536,282.52,-0.012,-0.011,-0.004,-0.17400000000000002,-0.9580000000000001,-0.167,23.990000000000002,-20.400000000000002,-77.08,-0.6687000000000001,0.4914,-0.41400000000000003,-0.3739,-0.004,-0.009000000000000001,-0.007
2025-11-06 18:37:06.537,282.525,-0.014,-0.008,-0.007,-0.17300000000000001,-0.961,-0.168,23.990000000000002,-20.400000000000002,-77.08,-0.6685,0.49160000000000004,-0.41400000000000003,-0.374,-0.005,-0.006,-0.005
2025-11-06 18:37:06.537,282.53,-0.015,-0.01,-0.007,-0.17400000000000002,-0.961,-0.17,23.990000000000002,-20.400000000000002,-77.08,-0.6684,0.4917,-0.41400000000000003,-0.37410000000000004,-0.004,-0.006,-0.003
2025-11-06 18:37:06.537,282.535,-0.015,-0.006,-0.008,-0.179,-0.964,-0.169,23.91,-20.34,-76.46000000000001,-0.6684,0.4917,-0.4141,-0.374,0.0,-0.004,-0.004
2025-11-06 18:37:06.537,282.54,-0.016,-0.005,-0.009000000000000001,-0.17300000000000001,-0.9590000000000001,-0.17300000000000001,23.91,-20.34,-76.46000000000001,-0.6683,0.4917,-0.41390000000000005,-0.37420000000000003,-0.004,-0.008,0.0
2025-11-06 18:37:06.537,282.545,-0.017,-0.005,-0.008,-0.17500000000000002,-0.96,-0.17500000000000002,23.990000000000002,-20.57,-76.46000000000001,-0.6684,0.49160000000000004,-0.4138,-0.3743,-0.002,-0.008,0.001
2025-11-06 18:37:06.537,282.55,-0.013000000000000001,0.0,-0.008,-0.178,-0.9580000000000001,-0.178,23.990000000000002,-20.57,-76.46000000000001,-0.6686000000000001,0.49150000000000005,-0.4137,-0.3743,0.0,-0.009000000000000001,0.003
2025-11-06 18:37:06.537,282.555,-0.009000000000000001,0.0,-0.007,-0.178,-0.9590000000000001,-0.177,23.990000000000002,-20.57,-76.46000000000001,-0.6687000000000001,0.4913,-0.4137,-0.3743,0.0,-0.008,0.001
2025-11-06 18:37:06.537,282.56,-0.011,0.007,-0.007,-0.179,-0.9580000000000001,-0.176,23.96,-21.6,-76.46000000000001,-0.6688000000000001,0.4912,-0.4137,-0.3743,0.001,-0.009000000000000001,0.0
2025-11-06 18:37:06.537,282.565,-0.012,0.012,-0.009000000000000001,-0.179,-0.9580000000000001,-0.176,23.96,-21.6,-76.46000000000001,-0.6689,0.49110000000000004,-0.4137,-0.3743,0.0,-0.009000000000000001,0.0
2025-11-06 18:37:06.537,282.57,-0.011,0.011,-0.007,-0.179,-0.9580000000000001,-0.17500000000000002,23.96,-20.400000000000002,-76.41,-0.669,0.49100000000000005,-0.4137,-0.3743,0.0,-0.009000000000000001,0.0
2025-11-06 18:37:06.537,282.575,-0.011,0.013000000000000001,-0.006,-0.179,-0.9580000000000001,-0.17400000000000002,23.96,-20.400000000000002,-76.41,-0.6691,0.4909,-0.4137,-0.37420000000000003,0.0,-0.009000000000000001,-0.001
2025-11-06 18:37:06.537,282.58,-0.011,0.014,-0.005,-0.178,-0.9580000000000001,-0.17300000000000001,23.96,-20.400000000000002,-76.41,-0.6691,0.4909,-0.4137,-0.37420000000000003,0.0,-0.009000000000000001,-0.002
2025-11-06 18:37:06.537,282.585,-0.013000000000000001,0.019,-0.006,-0.182,-0.9590000000000001,-0.17200000000000001,23.88,-20.22,-76.61,-0.6691,0.4909,-0.4138,-0.374,0.002,-0.008,-0.003
2025-11-06 18:37:06.537,282.59,-0.017,0.012,-0.007,-0.176,-0.9570000000000001,-0.17300000000000001,23.88,-20.22,-76.61,-0.6691,0.4909,-0.4137,-0.37410000000000004,-0.003,-0.01,-0.002
2025-11-06 18:37:06.537,282.595,-0.018000000000000002,0.011,-0.005,-0.177,-0.9580000000000001,-0.176,23.73,-20.37,-76.14,-0.6692,0.4909,-0.4137,-0.37410000000000004,-0.001,-0.009000000000000001,0.0
2025-11-06 18:37:06.538,282.6,-0.015,0.007,-0.006,-0.176,-0.9580000000000001,-0.176,23.73,-20.37,-76.14,-0.6692,0.4908,-0.4136,-0.37420000000000003,-0.002,-0.009000000000000001,0.0
2025-11-06 18:37:06.538,282.605,-0.017,0.003,-0.006,-0.17500000000000002,-0.9590000000000001,-0.177,23.91,-22.44,-76.87,-0.6693,0.4908,-0.41340000000000005,-0.3743,-0.003,-0.007,0.0
2025-11-06 18:37:06.538,282.61,-0.017,0.004,-0.008,-0.17400000000000002,-0.9590000000000001,-0.179,23.91,-22.44,-76.87,-0.6694,0.4907,-0.4132,-0.3745,-0.004,-0.007,0.002
2025-11-06 18:37:06.538,282.615,-0.019,0.003,-0.008,-0.17500000000000002,-0.961,-0.18,23.91,-22.44,-76.87,-0.6695,0.49060000000000004,-0.41300000000000003,-0.37460000000000004,-0.003,-0.006,0.003
2025-11-06 18:37:06.538,282.62,-0.015,0.0,-0.009000000000000001,-0.17500000000000002,-0.963,-0.179,24.2,-20.080000000000002,-76.2,-0.6695,0.49060000000000004,-0.41290000000000004,-0.37470000000000003,-0.002,-0.004,0.001
2025-11-06 18:37:06.538,282.625,-0.016,0.002,-0.008,-0.17200000000000001,-0.961,-0.179,24.2,-20.080000000000002,-76.2,-0.6695,0.49060000000000004,-0.4127,-0.3749,-0.005,-0.006,0.001
2025-11-06 18:37:06.538,282.63,-0.017,0.002,-0.008,-0.176,-0.962,-0.177,23.580000000000002,-22.82,-76.2,-0.6696000000000001,0.49060000000000004,-0.4126,-0.3749,-0.001,-0.004,0.0
2025-11-06 18:37:06.538,282.635,-0.014,-0.001,-0.01,-0.17300000000000001,-0.962,-0.17500000000000002,23.580000000000002,-22.82,-76.2,-0.6695,0.4907,-0.41250000000000003,-0.375,-0.004,-0.005,-0.002
2025-11-06 18:37:06.538,282.64,-0.014,-0.003,-0.007,-0.17500000000000002,-0.961,-0.171,23.580000000000002,-22.82,-76.2,-0.6693,0.4908,-0.4126,-0.375,-0.001,-0.006,-0.006
2025-11-06 18:37:06.538,282.645,-0.011,0.001,-0.006,-0.177,-0.961,-0.168,25.16,-20.900000000000002,-76.99,-0.6692,0.49100000000000005,-0.4128,-0.3748,0.0,-0.006,-0.008
2025-11-06 18:37:06.538,282.65,-0.007,0.0,-0.006,-0.177,-0.961,-0.166,25.16,-20.900000000000002,-76.99,-0.669,0.4912,-0.41300000000000003,-0.37470000000000003,0.0,-0.006,-0.01
2025-11-06 18:37:06.538,282.655,-0.006,-0.001,-0.006,-0.179,-0.96,-0.164,23.76,-20.28,-76.05,-0.6688000000000001,0.4914,-0.4133,-0.3744,0.002,-0.007,-0.011
2025-11-06 18:37:06.538,282.66,-0.001,-0.003,-0.004,-0.182,-0.9590000000000001,-0.166,23.76,-20.28,-76.05,-0.6687000000000001,0.49150000000000005,-0.4136,-0.37420000000000003,0.003,-0.008,-0.008
2025-11-06 18:37:06.538,282.665,0.0,-0.003,-0.004,-0.184,-0.96,-0.165,23.76,-20.28,-76.05,-0.6686000000000001,0.49150000000000005,-0.41400000000000003,-0.3739,0.006,-0.008,-0.008
2025-11-06 18:37:06.538,282.67,0.004,-0.005,-0.002,-0.185,-0.9590000000000001,-0.165,23.82,-20.080000000000002,-76.79,-0.6685,0.49160000000000004,-0.4143,-0.37360000000000004,0.005,-0.008,-0.007
2025-11-06 18:37:06.538,282.675,0.005,-0.003,0.0,-0.185,-0.9580000000000001,-0.167,23.82,-20.080000000000002,-76.79,-0.6685,0.49150000000000005,-0.4146,-0.3733,0.005,-0.009000000000000001,-0.006
2025-11-06 18:37:06.538,282.68,0.001,-0.005,-0.001,-0.184,-0.9590000000000001,-0.169,23.64,-20.46,-76.93,-0.6685,0.49150000000000005,-0.4148,-0.37320000000000003,0.003,-0.008,-0.003
2025-11-06 18:37:06.538,282.685,0.0,-0.003,-0.002,-0.183,-0.9580000000000001,-0.171,23.64,-20.46,-76.93,-0.6686000000000001,0.4914,-0.41490000000000005,-0.37310000000000004,0.002,-0.009000000000000001,-0.001
2025-11-06 18:37:06.538,282.69,0.001,-0.004,-0.001,-0.18,-0.9580000000000001,-0.17500000000000002,23.82,-22.8,-75.97,-0.6687000000000001,0.4913,-0.4148,-0.37310000000000004,0.0,-0.008,0.002
2025-11-06 18:37:06.538,282.695,0.0,-0.002,-0.002,-0.178,-0.9580000000000001,-0.178,23.82,-22.8,-75.97,-0.6689,0.49110000000000004,-0.4147,-0.37320000000000003,-0.002,-0.009000000000000001,0.004
2025-11-06 18:37:06.538,282.7,0.0,0.001,-0.003,-0.178,-0.9590000000000001,-0.182,23.82,-22.8,-75.97,-0.6691,0.4909,-0.41440000000000005,-0.3733,-0.002,-0.008,0.007
2025-11-06 18:37:06.538,282.705,0.0,0.003,-0.002,-0.17500000000000002,-0.9590000000000001,-0.181,24.29,-21.01,-77.05,-0.6693,0.4908,-0.4141,-0.3735,-0.005,-0.008,0.005
2025-11-06 18:37:06.538,282.71,0.001,0.005,-0.002,-0.17500000000000002,-0.9580000000000001,-0.182,24.29,-21.01,-77.05,-0.6694,0.4907,-0.4138,-0.37370000000000003,-0.005,-0.009000000000000001,0.006
2025-11-06 18:37:06.538,282.715,0.004,0.01,-0.001,-0.17400000000000002,-0.9590000000000001,-0.182,23.94,-20.25,-76.58,-0.6696000000000001,0.49060000000000004,-0.41350000000000003,-0.3738,-0.005,-0.008,0.005
2025-11-06 18:37:06.538,282.72,0.004,0.013000000000000001,0.001,-0.17300000000000001,-0.9590000000000001,-0.181,23.94,-20.25,-76.58,-0.6697000000000001,0.49060000000000004,-0.4132,-0.374,-0.006,-0.007,0.004
2025-11-06 18:37:06.538,282.725,0.006,0.017,0.001,-0.17300000000000001,-0.9590000000000001,-0.181,23.94,-20.25,-76.58,-0.6698000000000001,0.49060000000000004,-0.41300000000000003,-0.37420000000000003,-0.006,-0.008,0.003
2025-11-06 18:37:06.540,282.73,0.004,0.018000000000000002,0.001,-0.17300000000000001,-0.9590000000000001,-0.178,24.43,-21.13,-76.73,-0.6698000000000001,0.4907,-0.4128,-0.37420000000000003,-0.004,-0.008,0.0
2025-11-06 18:37:06.540,282.735,0.007,0.017,0.003,-0.17200000000000001,-0.9590000000000001,-0.179,24.43,-21.13,-76.73,-0.6698000000000001,0.4907,-0.4126,-0.3743,-0.005,-0.007,0.001
2025-11-06 18:37:06.540,282.74,0.008,0.016,0.003,-0.17400000000000002,-0.9580000000000001,-0.18,23.76,-19.96,-76.9,-0.6699,0.4907,-0.41240000000000004,-0.3744,-0.003,-0.008,0.002
2025-11-06 18:37:06.540,282.745,0.009000000000000001,0.01,0.003,-0.17300000000000001,-0.9590000000000001,-0.179,23.76,-19.96,-76.9,-0.6699,0.4907,-0.4123,-0.3745,-0.004,-0.007,0.001
2025-11-06 18:37:06.540,282.75,0.007,0.01,0.003,-0.17200000000000001,-0.9590000000000001,-0.18,23.76,-19.96,-76.9,-0.67,0.4907,-0.4121,-0.37460000000000004,-0.005,-0.007,0.001
2025-11-06 18:37:06.540,282.755,0.0,0.009000000000000001,0.0,-0.171,-0.9590000000000001,-0.181,24.05,-20.63,-76.23,-0.67,0.4907,-0.41190000000000004,-0.37470000000000003,-0.005,-0.007,0.001
2025-11-06 18:37:06.540,282.76,-0.001,0.006,0.0,-0.169,-0.9580000000000001,-0.178,24.05,-20.63,-76.23,-0.67,0.4908,-0.4117,-0.3749,-0.006,-0.008,0.0
2025-11-06 18:37:06.540,282.765,-0.004,0.002,-0.001,-0.17,-0.96,-0.18,23.41,-19.900000000000002,-77.14,-0.67,0.4909,-0.41150000000000003,-0.375,-0.006,-0.006,0.001
2025-11-06 18:37:06.541,282.77,-0.004,0.0,-0.002,-0.169,-0.96,-0.177,23.41,-19.900000000000002,-77.14,-0.6699,0.49100000000000005,-0.4113,-0.37510000000000004,-0.006,-0.006,-0.001
2025-11-06 18:37:06.541,282.775,-0.004,-0.002,-0.001,-0.167,-0.961,-0.179,24.26,-23.09,-77.57000000000001,-0.6699,0.49110000000000004,-0.4111,-0.3753,-0.007,-0.006,0.0
2025-11-06 18:37:06.541,282.78,-0.006,-0.002,-0.001,-0.168,-0.962,-0.179,24.26,-23.09,-77.57000000000001,-0.6698000000000001,0.4912,-0.41090000000000004,-0.3755,-0.006,-0.005,0.0
2025-11-06 18:37:06.541,282.785,-0.011,0.0,-0.004,-0.168,-0.963,-0.18,24.26,-23.09,-77.57000000000001,-0.6698000000000001,0.4913,-0.4108,-0.37560000000000004,-0.005,-0.004,0.0
2025-11-06 18:37:06.541,282.79,-0.012,-0.001,-0.004,-0.17,-0.961,-0.18,23.79,-20.28,-77.31,-0.6698000000000001,0.4913,-0.4106,-0.37570000000000003,-0.003,-0.006,0.0
2025-11-06 18:37:06.541,282.795,-0.014,-0.004,-0.002,-0.169,-0.961,-0.177,23.79,-20.28,-77.31,-0.6697000000000001,0.4914,-0.4106,-0.3758,-0.004,-0.006,-0.002
2025-11-06 18:37:06.541,282.8,-0.016,-0.005,-0.001,-0.169,-0.96,-0.179,23.73,-21.25,-77.52,-0.6697000000000001,0.4914,-0.41050000000000003,-0.3759,-0.003,-0.007,-0.001
2025-11-06 18:37:06.541,282.805,-0.01,-0.01,0.0,-0.17,-0.9590000000000001,-0.177,23.73,-21.25,-77.52,-0.6697000000000001,0.4914,-0.41050000000000003,-0.3759,-0.002,-0.008,-0.002
2025-11-06 18:37:06.541,282.81,-0.006,-0.014,0.0,-0.17300000000000001,-0.9570000000000001,-0.177,23.73,-21.25,-77.52,-0.6697000000000001,0.4914,-0.4106,-0.3759,0.0,-0.01,-0.003
2025-11-06 18:37:06.541,282.815,-0.008,-0.016,0.0,-0.17300000000000001,-0.9580000000000001,-0.177,23.91,-20.84,-77.08,-0.6697000000000001,0.4914,-0.4106,-0.3759,0.0,-0.009000000000000001,-0.002
2025-11-06 18:37:06.541,282.82,-0.006,-0.013000000000000001,0.0,-0.17300000000000001,-0.9580000000000001,-0.176,23.91,-20.84,-77.08,-0.6697000000000001,0.4913,-0.4107,-0.3758,0.0,-0.009000000000000001,-0.003
2025-11-06 18:37:06.541,282.825,-0.004,-0.011,-0.001,-0.17300000000000001,-0.9580000000000001,-0.176,24.37,-20.19,-76.99,-0.6696000000000001,0.4914,-0.4108,-0.3758,0.0,-0.009000000000000001,-0.003
2025-11-06 18:37:06.541,282.83,-0.001,-0.011,0.0,-0.171,-0.9580000000000001,-0.176,24.37,-20.19,-76.99,-0.6696000000000001,0.4914,-0.4108,-0.3758,-0.002,-0.01,-0.003
2025-11-06 18:37:06.541,282.835,0.0,-0.011,0.0,-0.17200000000000001,-0.9580000000000001,-0.17500000000000002,24.37,-20.19,-76.99,-0.6695,0.4914,-0.41090000000000004,-0.37570000000000003,-0.001,-0.009000000000000001,-0.003
2025-11-06 18:37:06.541,282.84,0.003,-0.008,0.0,-0.17300000000000001,-0.9590000000000001,-0.17400000000000002,24.080000000000002,-20.57,-77.4,-0.6694,0.49150000000000005,-0.41100000000000003,-0.37570000000000003,0.0,-0.008,-0.004
2025-11-06 18:37:06.541,282.845,0.0,-0.01,0.0,-0.17400000000000002,-0.9590000000000001,-0.17300000000000001,24.080000000000002,-20.57,-77.4,-0.6694,0.49160000000000004,-0.4111,-0.37560000000000004,0.0,-0.008,-0.005
2025-11-06 18:37:06.541,282.85,0.0,-0.007,0.0,-0.17500000000000002,-0.9580000000000001,-0.17300000000000001,24.93,-20.490000000000002,-77.95,-0.6693,0.49160000000000004,-0.4113,-0.3755,0.0,-0.01,-0.004
2025-11-06 18:37:06.541,282.855,0.0,-0.011,0.0,-0.17500000000000002,-0.9570000000000001,-0.17500000000000002,24.93,-20.490000000000002,-77.95,-0.6693,0.49160000000000004,-0.41140000000000004,-0.3754,0.001,-0.01,-0.003
2025-11-06 18:37:06.541,282.86,-0.001,-0.008,0.0,-0.177,-0.9580000000000001,-0.17500000000000002,24.93,-20.490000000000002,-77.95,-0.6693,0.49150000000000005,-0.4116,-0.37520000000000003,0.002,-0.009000000000000001,-0.003
2025-11-06 18:37:06.541,282.865,0.0,-0.005,-0.002,-0.177,-0.9580000000000001,-0.171,24.02,-20.080000000000002,-76.9,-0.6693,0.49150000000000005,-0.4118,-0.37510000000000004,0.002,-0.009000000000000001,-0.006
2025-11-06 18:37:06.541,282.87,0.0,-0.003,-0.002,-0.178,-0.96,-0.171,24.02,-20.080000000000002,-76.9,-0.6692,0.49160000000000004,-0.41200000000000003,-0.3749,0.002,-0.007,-0.005
2025-11-06 18:37:06.541,282.875,-0.001,0.0,-0.002,-0.179,-0.961,-0.17,24.52,-19.93,-77.60000000000001,-0.6692,0.49160000000000004,-0.4123,-0.37470000000000003,0.003,-0.006,-0.006
2025-11-06 18:37:06.541,282.88,0.001,0.002,0.0,-0.179,-0.961,-0.171,24.52,-19.93,-77.60000000000001,-0.6691,0.49160000000000004,-0.41240000000000004,-0.3745,0.002,-0.006,-0.004
2025-11-06 18:37:06.541,282.885,0.0,0.003,0.0,-0.18,-0.961,-0.17,24.29,-20.63,-76.76,-0.6691,0.49160000000000004,-0.4127,-0.3743,0.003,-0.006,-0.005
2025-11-06 18:37:06.541,282.89,-0.001,0.003,0.0,-0.179,-0.962,-0.17300000000000001,24.29,-20.63,-76.76,-0.6691,0.49160000000000004,-0.4128,-0.37420000000000003,0.002,-0.005,-0.002
2025-11-06 18:37:06.541,282.895,-0.001,0.004,0.003,-0.179,-0.962,-0.17300000000000001,24.29,-20.63,-76.76,-0.6691,0.49160000000000004,-0.41290000000000004,-0.37410000000000004,0.001,-0.005,-0.002
2025-11-06 18:37:06.541,282.9,0.0,0.005,0.0,-0.179,-0.962,-0.17300000000000001,23.91,-20.400000000000002,-77.60000000000001,-0.6691,0.49160000000000004,-0.41300000000000003,-0.374,0.001,-0.005,-0.002
2025-11-06 18:37:06.541,282.905,0.0,-0.002,0.003,-0.178,-0.96,-0.17400000000000002,23.91,-20.400000000000002,-77.60000000000001,-0.6691,0.49150000000000005,-0.41300000000000003,-0.374,0.0,-0.007,-0.001
2025-11-06 18:37:06.541,282.91,0.0,-0.002,0.003,-0.177,-0.96,-0.176,23.990000000000002,-19.55,-77.25,-0.6692,0.49150000000000005,-0.41300000000000003,-0.374,-0.001,-0.006,0.0
2025-11-06 18:37:06.541,282.915,-0.003,-0.003,0.003,-0.17400000000000002,-0.96,-0.17500000000000002,23.990000000000002,-19.55,-77.25,-0.6692,0.49150000000000005,-0.41290000000000004,-0.374,-0.003,-0.007,0.0
2025-11-06 18:37:06.541,282.92,-0.002,0.0,0.002,-0.17300000000000001,-0.96,-0.17500000000000002,23.990000000000002,-19.55,-77.25,-0.6692,0.49150000000000005,-0.4128,-0.37410000000000004,-0.004,-0.007,0.0
2025-11-06 18:37:06.541,282.925,-0.003,-0.001,0.004,-0.17300000000000001,-0.96,-0.178,24.26,-20.25,-77.37,-0.6692,0.49150000000000005,-0.4127,-0.37420000000000003,-0.004,-0.007,0.001
2025-11-06 18:37:06.541,282.93,-0.004,-0.003,0.001,-0.171,-0.96,-0.178,24.26,-20.25,-77.37,-0.6692,0.49150000000000005,-0.41250000000000003,-0.3744,-0.005,-0.007,0.001
2025-11-06 18:37:06.541,282.935,-0.005,0.0,0.001,-0.17300000000000001,-0.9580000000000001,-0.178,23.79,-20.19,-76.93,-0.6693,0.4914,-0.41240000000000004,-0.3745,-0.003,-0.009000000000000001,0.001
2025-11-06 18:37:06.541,282.94,-0.006,-0.001,0.001,-0.17200000000000001,-0.9580000000000001,-0.176,23.79,-20.19,-76.93,-0.6693,0.4914,-0.4123,-0.37460000000000004,-0.004,-0.009000000000000001,0.0
2025-11-06 18:37:06.541,282.945,-0.006,0.0,0.001,-0.17400000000000002,-0.9580000000000001,-0.176,23.79,-20.19,-76.93,-0.6693,0.4914,-0.4123,-0.37460000000000004,-0.002,-0.009000000000000001,-0.001
2025-11-06 18:37:06.541,282.95,-0.005,0.0,0.0,-0.17500000000000002,-0.9580000000000001,-0.17300000000000001,23.41,-19.61,-76.96000000000001,-0.6693,0.4914,-0.4123,-0.37460000000000004,0.0,-0.008,-0.003
2025-11-06 18:37:06.541,282.955,-0.004,-0.001,0.0,-0.176,-0.9590000000000001,-0.17200000000000001,23.41,-19.61,-76.96000000000001,-0.6692,0.49150000000000005,-0.41240000000000004,-0.3745,0.0,-0.008,-0.004
2025-11-06 18:37:06.541,282.96,-0.003,0.0,0.0,-0.177,-0.961,-0.168,23.88,-19.84,-77.19,-0.6691,0.49160000000000004,-0.4126,-0.3744,0.0,-0.006,-0.007
2025-11-06 18:37:06.541,282.965,0.0,-0.001,0.001,-0.178,-0.9590000000000001,-0.168,23.88,-19.84,-77.19,-0.669,0.4917,-0.4128,-0.37420000000000003,0.001,-0.008,-0.007
2025-11-06 18:37:06.541,282.97,0.0,0.0,0.001,-0.178,-0.9590000000000001,-0.167,23.94,-19.81,-76.93,-0.6689,0.4918,-0.41300000000000003,-0.37410000000000004,0.0,-0.008,-0.007
2025-11-06 18:37:06.541,282.975,0.003,-0.002,0.002,-0.179,-0.9590000000000001,-0.167,23.94,-19.81,-76.93,-0.6688000000000001,0.4919,-0.4133,-0.3739,0.001,-0.008,-0.006
2025-11-06 18:37:06.541,282.98,0.002,-0.001,0.002,-0.179,-0.9590000000000001,-0.17,23.94,-19.81,-76.93,-0.6687000000000001,0.4919,-0.41340000000000005,-0.3738,0.0,-0.009000000000000001,-0.004
2025-11-06 18:37:06.541,282.985,0.004,-0.003,0.003,-0.177,-0.9580000000000001,-0.17,23.91,-20.22,-77.25,-0.6687000000000001,0.4919,-0.41350000000000003,-0.37370000000000003,0.0,-0.009000000000000001,-0.003
2025-11-06 18:37:06.541,282.99,0.004,-0.002,0.004,-0.178,-0.9590000000000001,-0.171,23.91,-20.22,-77.25,-0.6687000000000001,0.49200000000000005,-0.4136,-0.37360000000000004,0.0,-0.008,-0.003
2025-11-06 18:37:06.541,282.995,0.003,-0.001,0.001,-0.176,-0.9590000000000001,-0.17200000000000001,24.32,-21.04,-77.08,-0.6687000000000001,0.4919,-0.4136,-0.37360000000000004,-0.001,-0.009000000000000001,-0.001
2025-11-06 18:37:06.541,283.0,0.001,0.0,0.003,-0.177,-0.9580000000000001,-0.17200000000000001,24.32,-21.04,-77.08,-0.6687000000000001,0.4919,-0.4136,-0.37360000000000004,-0.001,-0.009000000000000001,-0.001
2025-11-06 18:37:06.541,283.005,0.0,-0.001,0.001,-0.17500000000000002,-0.9590000000000001,-0.17400000000000002,24.32,-21.04,-77.08,-0.6687000000000001,0.4919,-0.41350000000000003,-0.37360000000000004,-0.002,-0.008,0.0
2025-11-06 18:37:06.541,283.01,0.001,-0.001,0.001,-0.17500000000000002,-0.96,-0.17400000000000002,23.94,-20.02,-77.46000000000001,-0.6688000000000001,0.4919,-0.41350000000000003,-0.37370000000000003,-0.002,-0.007,0.0
2025-11-06 18:37:06.541,283.015,0.0,0.005,0.001,-0.17400000000000002,-0.961,-0.176,23.94,-20.02,-77.46000000000001,-0.6688000000000001,0.4919,-0.4133,-0.3738,-0.003,-0.006,0.001
2025-11-06 18:37:06.541,283.02,-0.004,0.002,0.0,-0.176,-0.961,-0.17500000000000002,24.14,-19.96,-77.4,-0.6689,0.4918,-0.4133,-0.3738,-0.002,-0.006,0.0
2025-11-06 18:37:06.542,283.025,-0.003,0.0,0.0,-0.17500000000000002,-0.96,-0.177,24.14,-19.96,-77.4,-0.6689,0.4918,-0.4132,-0.3739,-0.002,-0.007,0.001
2025-11-06 18:37:06.542,283.03,-0.005,0.0,0.001,-0.17400000000000002,-0.96,-0.176,24.14,-19.96,-77.4,-0.669,0.4917,-0.41300000000000003,-0.374,-0.003,-0.007,0.001
2025-11-06 18:37:06.542,283.035,-0.005,0.002,0.0,-0.17400000000000002,-0.96,-0.17400000000000002,23.94,-20.25,-77.52,-0.669,0.4917,-0.41300000000000003,-0.37410000000000004,-0.002,-0.007,0.0
2025-11-06 18:37:06.542,283.04,-0.006,0.002,0.0,-0.17500000000000002,-0.96,-0.17400000000000002,23.94,-20.25,-77.52,-0.669,0.4917,-0.41290000000000004,-0.37410000000000004,-0.002,-0.007,0.0
2025-11-06 18:37:06.542,283.045,-0.006,0.0,-0.001,-0.17400000000000002,-0.9590000000000001,-0.17400000000000002,24.55,-21.63,-77.52,-0.669,0.4917,-0.41290000000000004,-0.37410000000000004,-0.002,-0.009000000000000001,-0.001
2025-11-06 18:37:06.542,283.05,-0.003,-0.002,-0.001,-0.17500000000000002,-0.9580000000000001,-0.17300000000000001,24.55,-21.63,-77.52,-0.669,0.4917,-0.41290000000000004,-0.37420000000000003,-0.002,-0.009000000000000001,-0.001
2025-11-06 18:37:06.542,283.055,0.0,-0.002,-0.001,-0.177,-0.9590000000000001,-0.17300000000000001,24.52,-23.2,-77.17,-0.669,0.4917,-0.41300000000000003,-0.37410000000000004,0.0,-0.008,-0.002
2025-11-06 18:37:06.542,283.06,-0.001,-0.001,0.0,-0.179,-0.96,-0.17400000000000002,24.52,-23.2,-77.17,-0.669,0.49160000000000004,-0.41300000000000003,-0.374,0.001,-0.007,-0.001
2025-11-06 18:37:06.542,283.065,-0.003,-0.002,0.001,-0.178,-0.96,-0.176,24.52,-23.2,-77.17,-0.6691,0.49150000000000005,-0.4131,-0.374,0.0,-0.007,0.0
2025-11-06 18:37:06.542,283.07,-0.005,-0.002,0.001,-0.179,-0.9580000000000001,-0.177,23.91,-20.72,-77.25,-0.6692,0.4914,-0.4131,-0.374,0.0,-0.009000000000000001,0.001
2025-11-06 18:37:06.542,283.075,-0.006,-0.006,0.001,-0.177,-0.9580000000000001,-0.177,23.91,-20.72,-77.25,-0.6693,0.4912,-0.41300000000000003,-0.374,0.0,-0.009000000000000001,0.001
2025-11-06 18:37:06.542,283.08,-0.004,-0.007,0.0,-0.176,-0.9580000000000001,-0.179,24.34,-22.68,-77.4,-0.6695,0.49110000000000004,-0.41290000000000004,-0.37410000000000004,-0.001,-0.008,0.002
2025-11-06 18:37:06.542,283.085,-0.006,-0.005,0.001,-0.17500000000000002,-0.9590000000000001,-0.178,24.34,-22.68,-77.4,-0.6695,0.49110000000000004,-0.4128,-0.37410000000000004,-0.003,-0.008,0.001
2025-11-06 18:37:06.542,283.09,-0.006,-0.007,0.002,-0.17400000000000002,-0.96,-0.178,24.34,-22.68,-77.4,-0.6695,0.49100000000000005,-0.4128,-0.37420000000000003,-0.003,-0.006,0.0
2025-11-06 18:37:06.542,283.095,-0.006,-0.008,0.0,-0.17200000000000001,-0.9590000000000001,-0.176,24.75,-20.22,-77.60000000000001,-0.6695,0.49110000000000004,-0.4126,-0.3743,-0.005,-0.007,0.0
2025-11-06 18:37:06.542,283.1,-0.006,-0.002,0.0,-0.171,-0.9590000000000001,-0.177,24.75,-20.22,-77.60000000000001,-0.6695,0.49110000000000004,-0.41250000000000003,-0.3745,-0.005,-0.007,0.0
2025-11-06 18:37:06.542,283.105,-0.008,-0.006,0.0,-0.17200000000000001,-0.96,-0.17500000000000002,23.7,-19.84,-76.79,-0.6694,0.4912,-0.41240000000000004,-0.37460000000000004,-0.004,-0.006,-0.002
2025-11-06 18:37:06.542,283.11,-0.008,-0.007,0.0,-0.17300000000000001,-0.961,-0.17400000000000002,23.7,-19.84,-76.79,-0.6694,0.4913,-0.41240000000000004,-0.37460000000000004,-0.003,-0.006,-0.003
2025-11-06 18:37:06.542,283.115,-0.006,-0.005,0.0,-0.17300000000000001,-0.961,-0.171,23.7,-19.84,-76.79,-0.6692,0.4914,-0.41240000000000004,-0.37460000000000004,-0.003,-0.006,-0.005
2025-11-06 18:37:06.542,283.12,-0.006,-0.003,-0.001,-0.17500000000000002,-0.96,-0.17,24.14,-20.46,-77.28,-0.6691,0.49150000000000005,-0.41250000000000003,-0.3745,-0.001,-0.007,-0.005
2025-11-06 18:37:06.542,283.125,-0.005,-0.002,0.0,-0.176,-0.961,-0.171,24.14,-20.46,-77.28,-0.669,0.49160000000000004,-0.4127,-0.3745,0.0,-0.006,-0.005
2025-11-06 18:37:06.542,283.13,-0.007,-0.001,0.0,-0.177,-0.96,-0.171,24.02,-20.05,-76.81,-0.669,0.49160000000000004,-0.4128,-0.3744,0.0,-0.007,-0.004
2025-11-06 18:37:06.542,283.135,-0.008,-0.003,0.0,-0.179,-0.96,-0.17300000000000001,24.02,-20.05,-76.81,-0.669,0.49160000000000004,-0.41290000000000004,-0.3743,0.001,-0.007,-0.002
2025-11-06 18:37:06.542,283.14,-0.008,-0.001,0.0,-0.18,-0.9590000000000001,-0.17400000000000002,24.02,-20.05,-77.31,-0.6691,0.49150000000000005,-0.41300000000000003,-0.37420000000000003,0.002,-0.008,-0.001
2025-11-06 18:37:06.542,283.145,-0.008,-0.003,0.002,-0.178,-0.9590000000000001,-0.17500000000000002,24.810000000000002,-19.900000000000002,-77.31,-0.6691,0.4914,-0.41300000000000003,-0.37410000000000004,0.0,-0.008,-0.001
2025-11-06 18:37:06.542,283.15,-0.011,-0.001,0.003,-0.178,-0.96,-0.177,24.810000000000002,-19.900000000000002,-77.31,-0.6692,0.4913,-0.41300000000000003,-0.37410000000000004,0.0,-0.007,0.0
2025-11-06 18:37:06.542,283.155,-0.013000000000000001,-0.002,0.001,-0.177,-0.9580000000000001,-0.177,23.7,-19.580000000000002,-77.4,-0.6693,0.4912,-0.41300000000000003,-0.37410000000000004,0.0,-0.009000000000000001,0.0
2025-11-06 18:37:06.542,283.16,-0.013000000000000001,-0.005,0.0,-0.176,-0.9580000000000001,-0.178,23.7,-19.580000000000002,-77.4,-0.6694,0.49110000000000004,-0.41290000000000004,-0.37420000000000003,-0.002,-0.009000000000000001,0.002
2025-11-06 18:37:06.542,283.165,-0.012,-0.008,0.002,-0.177,-0.96,-0.178,24.2,-21.57,-77.22,-0.6695,0.49100000000000005,-0.41290000000000004,-0.3743,-0.001,-0.006,0.001
2025-11-06 18:37:06.542,283.17,-0.011,-0.011,0.001,-0.17400000000000002,-0.9590000000000001,-0.179,24.2,-21.57,-77.22,-0.6696000000000001,0.4909,-0.4127,-0.3744,-0.004,-0.008,0.001
2025-11-06 18:37:06.542,283.175,-0.012,-0.012,0.001,-0.17300000000000001,-0.9580000000000001,-0.179,24.2,-21.57,-77.22,-0.6696000000000001,0.4908,-0.4126,-0.3745,-0.004,-0.008,0.001
2025-11-06 18:37:06.542,283.18,-0.014,-0.011,0.002,-0.17300000000000001,-0.9590000000000001,-0.179,24.2,-19.990000000000002,-77.08,-0.6697000000000001,0.4908,-0.41250000000000003,-0.37470000000000003,-0.004,-0.008,0.001
2025-11-06 18:37:06.542,283.185,-0.012,-0.011,0.0,-0.17400000000000002,-0.9590000000000001,-0.179,24.2,-19.990000000000002,-77.08,-0.6697000000000001,0.4907,-0.41240000000000004,-0.3748,-0.003,-0.008,0.0
2025-11-06 18:37:06.542,283.19,-0.014,-0.012,-0.001,-0.17200000000000001,-0.9580000000000001,-0.177,24.46,-20.080000000000002,-76.46000000000001,-0.6697000000000001,0.4907,-0.4123,-0.3749,-0.005,-0.009000000000000001,0.0
2025-11-06 18:37:06.542,283.195,-0.012,-0.01,-0.001,-0.176,-0.9590000000000001,-0.17500000000000002,24.46,-20.080000000000002,-76.46000000000001,-0.6697000000000001,0.4907,-0.4123,-0.3749,0.0,-0.008,-0.003
2025-11-06 18:37:06.542,283.2,-0.01,-0.009000000000000001,-0.001,-0.17400000000000002,-0.9590000000000001,-0.17400000000000002,24.46,-20.080000000000002,-76.46000000000001,-0.6696000000000001,0.4908,-0.41240000000000004,-0.3749,-0.002,-0.007,-0.004
2025-11-06 18:37:06.542,283.205,-0.01,-0.007,-0.001,-0.17200000000000001,-0.9570000000000001,-0.17300000000000001,23.7,-19.7,-77.22,-0.6695,0.4909,-0.4123,-0.3749,-0.004,-0.01,-0.004
2025-11-06 18:37:06.542,283.21,-0.01,-0.003,0.0,-0.17400000000000002,-0.9590000000000001,-0.17200000000000001,23.7,-19.7,-77.22,-0.6694,0.49100000000000005,-0.41240000000000004,-0.3749,-0.002,-0.008,-0.005
2025-11-06 18:37:06.542,283.215,-0.009000000000000001,-0.003,0.0,-0.17500000000000002,-0.9590000000000001,-0.17200000000000001,23.44,-21.830000000000002,-76.81,-0.6693,0.49110000000000004,-0.41250000000000003,-0.3749,-0.001,-0.008,-0.005
2025-11-06 18:37:06.542,283.22,-0.008,-0.002,0.0,-0.17500000000000002,-0.9590000000000001,-0.17200000000000001,23.44,-21.830000000000002,-76.81,-0.6692,0.4912,-0.41250000000000003,-0.3748,-0.001,-0.008,-0.005
2025-11-06 18:37:06.542,283.225,-0.008,-0.003,0.001,-0.177,-0.961,-0.17300000000000001,23.44,-21.830000000000002,-76.81,-0.6692,0.4912,-0.4126,-0.3748,0.0,-0.006,-0.003
2025-11-06 18:37:06.542,283.23,-0.008,-0.007,0.001,-0.178,-0.96,-0.17400000000000002,24.32,-19.73,-77.55,-0.6692,0.4912,-0.4127,-0.37470000000000003,0.0,-0.006,-0.002
2025-11-06 18:37:06.542,283.235,-0.009000000000000001,-0.008,0.0,-0.177,-0.96,-0.17500000000000002,24.32,-19.73,-77.55,-0.6692,0.49110000000000004,-0.4128,-0.37470000000000003,0.0,-0.006,-0.001
2025-11-06 18:37:06.542,283.24,-0.011,-0.007,0.0,-0.177,-0.96,-0.177,24.17,-20.05,-77.37,-0.6693,0.49100000000000005,-0.4128,-0.37470000000000003,0.0,-0.007,0.0
2025-11-06 18:37:06.543,283.245,-0.014,-0.01,0.0,-0.177,-0.96,-0.177,24.17,-20.05,-77.37,-0.6693,0.4909,-0.4128,-0.37470000000000003,0.0,-0.007,0.0
2025-11-06 18:37:06.543,283.25,-0.012,-0.007,-0.001,-0.178,-0.96,-0.178,24.26,-20.02,-77.84,-0.6694,0.4908,-0.4128,-0.37470000000000003,0.0,-0.007,0.0
2025-11-06 18:37:06.543,283.255,-0.013000000000000001,-0.006,-0.002,-0.178,-0.96,-0.176,24.26,-20.02,-77.84,-0.6695,0.4907,-0.4128,-0.37470000000000003,0.0,-0.007,-0.001
2025-11-06 18:37:06.543,283.26,-0.019,-0.007,-0.002,-0.182,-0.962,-0.17400000000000002,24.26,-20.02,-77.84,-0.6695,0.49060000000000004,-0.41300000000000003,-0.37460000000000004,0.003,-0.005,-0.003
2025-11-06 18:37:06.543,283.265,-0.02,-0.003,-0.003,-0.18,-0.9590000000000001,-0.17300000000000001,23.96,-19.46,-77.69,-0.6695,0.49060000000000004,-0.4131,-0.3745,0.001,-0.008,-0.004
2025-11-06 18:37:06.543,283.27,-0.022,-0.006,-0.002,-0.17500000000000002,-0.9550000000000001,-0.176,23.96,-19.46,-77.69,-0.6695,0.49060000000000004,-0.4131,-0.3745,-0.002,-0.011,0.0
2025-11-06 18:37:06.543,283.275,-0.019,-0.005,-0.001,-0.179,-0.9580000000000001,-0.17400000000000002,23.61,-19.580000000000002,-77.63,-0.6695,0.49050000000000005,-0.4132,-0.3745,0.001,-0.008,-0.003
2025-11-06 18:37:06.543,283.28,-0.022,-0.002,0.0,-0.179,-0.9590000000000001,-0.17300000000000001,23.61,-19.580000000000002,-77.63,-0.6695,0.49050000000000005,-0.4133,-0.3744,0.0,-0.007,-0.004
2025-11-06 18:37:06.543,283.285,-0.024,-0.006,-0.001,-0.179,-0.9580000000000001,-0.176,23.61,-19.580000000000002,-77.63,-0.6695,0.4904,-0.4133,-0.3744,0.0,-0.009000000000000001,-0.001
2025-11-06 18:37:06.543,283.29,-0.024,-0.008,-0.001,-0.178,-0.96,-0.17400000000000002,24.05,-19.67,-77.17,-0.6695,0.4904,-0.41340000000000005,-0.3744,0.0,-0.006,-0.002
2025-11-06 18:37:06.543,283.295,-0.024,-0.007,0.0,-0.177,-0.961,-0.176,24.05,-19.67,-77.17,-0.6695,0.4904,-0.41340000000000005,-0.3744,-0.001,-0.006,-0.001
2025-11-06 18:37:06.543,283.3,-0.023,-0.004,0.0,-0.176,-0.9590000000000001,-0.17400000000000002,23.73,-20.080000000000002,-77.11,-0.6695,0.4904,-0.4133,-0.3745,-0.002,-0.008,-0.003
2025-11-06 18:37:06.543,283.305,-0.023,-0.007,0.0,-0.17500000000000002,-0.9590000000000001,-0.176,23.73,-20.080000000000002,-77.11,-0.6695,0.4904,-0.4133,-0.37460000000000004,-0.003,-0.007,0.0
2025-11-06 18:37:06.543,283.31,-0.019,-0.008,0.0,-0.177,-0.9580000000000001,-0.176,23.73,-20.080000000000002,-77.11,-0.6695,0.4903,-0.4132,-0.37460000000000004,-0.001,-0.008,-0.001
2025-11-06 18:37:06.543,283.315,-0.019,-0.007,0.001,-0.17500000000000002,-0.9580000000000001,-0.179,23.94,-19.76,-77.11,-0.6696000000000001,0.4902,-0.4131,-0.37470000000000003,-0.003,-0.008,0.0
2025-11-06 18:37:06.543,283.32,-0.015,-0.01,0.0,-0.176,-0.9580000000000001,-0.18,23.94,-19.76,-77.11,-0.6697000000000001,0.49010000000000004,-0.41300000000000003,-0.3748,-0.002,-0.009000000000000001,0.001
2025-11-06 18:37:06.543,283.325,-0.013000000000000001,-0.011,0.0,-0.17400000000000002,-0.9570000000000001,-0.183,23.91,-19.7,-77.57000000000001,-0.6698000000000001,0.49000000000000005,-0.4128,-0.375,-0.004,-0.009000000000000001,0.004
2025-11-06 18:37:06.543,283.33,-0.009000000000000001,-0.005,-0.001,-0.17400000000000002,-0.9570000000000001,-0.181,23.91,-19.7,-77.57000000000001,-0.6699,0.4899,-0.4127,-0.37510000000000004,-0.004,-0.01,0.002
2025-11-06 18:37:06.543,283.335,-0.005,-0.007,-0.004,-0.17300000000000001,-0.9560000000000001,-0.181,23.85,-19.87,-77.46000000000001,-0.67,0.4899,-0.41250000000000003,-0.3753,-0.004,-0.01,0.001
2025-11-06 18:37:06.543,283.34,-0.004,-0.007,-0.002,-0.17200000000000001,-0.9570000000000001,-0.18,23.85,-19.87,-77.46000000000001,-0.6699,0.4899,-0.41240000000000004,-0.3754,-0.005,-0.009000000000000001,0.0
2025-11-06 18:37:06.543,283.345,-0.004,-0.003,-0.003,-0.17200000000000001,-0.9560000000000001,-0.179,23.85,-19.87,-77.46000000000001,-0.6699,0.4899,-0.4123,-0.3755,-0.005,-0.01,-0.001
2025-11-06 18:37:06.543,283.35,-0.003,-0.003,-0.002,-0.171,-0.9570000000000001,-0.177,23.94,-20.19,-77.55,-0.6699,0.49000000000000005,-0.4122,-0.37560000000000004,-0.005,-0.009000000000000001,-0.002
2025-11-06 18:37:06.543,283.355,-0.002,-0.003,-0.001,-0.17200000000000001,-0.9590000000000001,-0.17500000000000002,23.94,-20.19,-77.55,-0.6697000000000001,0.4902,-0.4122,-0.37560000000000004,-0.004,-0.008,-0.004
2025-11-06 18:37:06.546,283.36,-0.003,0.0,0.0,-0.17300000000000001,-0.96,-0.17500000000000002,24.23,-19.67,-77.55,-0.6696000000000001,0.4903,-0.4122,-0.37560000000000004,-0.003,-0.007,-0.004
2025-11-06 18:37:06.546,283.365,-0.006,-0.003,-0.001,-0.169,-0.9570000000000001,-0.176,24.23,-19.67,-77.55,-0.6696000000000001,0.4904,-0.4121,-0.37570000000000003,-0.006,-0.009000000000000001,-0.003
2025-11-06 18:37:06.546,283.37,-0.004,-0.009000000000000001,0.0,-0.17,-0.96,-0.176,24.23,-19.67,-77.55,-0.6695,0.49050000000000005,-0.41200000000000003,-0.3758,-0.005,-0.007,-0.003
2025-11-06 18:37:06.546,283.375,-0.003,-0.011,-0.001,-0.168,-0.9590000000000001,-0.178,23.990000000000002,-20.69,-76.87,-0.6694,0.4907,-0.41190000000000004,-0.376,-0.007,-0.007,-0.001
2025-11-06 18:37:06.546,283.38,-0.001,-0.016,0.0,-0.166,-0.9590000000000001,-0.179,23.990000000000002,-20.69,-76.87,-0.6693,0.4907,-0.4117,-0.37620000000000003,-0.008,-0.008,0.0
2025-11-06 18:37:06.546,283.385,-0.001,-0.014,0.0,-0.167,-0.96,-0.181,24.11,-22.42,-77.63,-0.6693,0.4908,-0.41150000000000003,-0.3764,-0.006,-0.007,0.001
2025-11-06 18:37:06.546,283.39,-0.003,-0.015,-0.002,-0.166,-0.9590000000000001,-0.183,24.11,-22.42,-77.63,-0.6693,0.4907,-0.4113,-0.37670000000000003,-0.007,-0.008,0.003
2025-11-06 18:37:06.546,283.395,-0.003,-0.016,-0.001,-0.166,-0.9590000000000001,-0.185,24.11,-22.42,-77.63,-0.6693,0.4907,-0.41100000000000003,-0.377,-0.007,-0.008,0.004
2025-11-06 18:37:06.546,283.4,-0.003,-0.015,0.0,-0.169,-0.9590000000000001,-0.184,24.080000000000002,-20.11,-76.64,-0.6694,0.49050000000000005,-0.41090000000000004,-0.37720000000000004,-0.003,-0.008,0.003
2025-11-06 18:37:06.546,283.405,0.0,-0.014,-0.001,-0.171,-0.9580000000000001,-0.184,24.080000000000002,-20.11,-76.64,-0.6695,0.4904,-0.4108,-0.3773,-0.001,-0.009000000000000001,0.003
2025-11-06 18:37:06.546,283.41,-0.001,-0.01,-0.002,-0.17200000000000001,-0.9580000000000001,-0.184,24.400000000000002,-19.87,-76.93,-0.6696000000000001,0.4902,-0.4108,-0.3774,-0.001,-0.009000000000000001,0.002
2025-11-06 18:37:06.546,283.415,0.0,-0.011,-0.002,-0.17300000000000001,-0.96,-0.181,24.400000000000002,-19.87,-76.93,-0.6696000000000001,0.4902,-0.4108,-0.3774,0.0,-0.007,0.0
2025-11-06 18:37:06.546,283.42,0.0,-0.011,0.0,-0.17200000000000001,-0.96,-0.179,24.02,-20.34,-76.52,-0.6696000000000001,0.4902,-0.41090000000000004,-0.3773,0.0,-0.006,-0.002
2025-11-06 18:37:06.546,283.425,-0.001,-0.012,0.0,-0.17300000000000001,-0.96,-0.178,24.02,-20.34,-76.52,-0.6696000000000001,0.4902,-0.41100000000000003,-0.3773,0.0,-0.007,-0.003
2025-11-06 18:37:06.546,283.43,-0.001,-0.014,0.0,-0.17300000000000001,-0.961,-0.176,24.02,-20.34,-76.52,-0.6695,0.4902,-0.4111,-0.37720000000000004,0.0,-0.006,-0.004
2025-11-06 18:37:06.546,283.435,0.001,-0.019,0.0,-0.17300000000000001,-0.96,-0.177,25.13,-20.14,-77.17,-0.6694,0.4903,-0.4112,-0.3771,0.0,-0.007,-0.004
2025-11-06 18:37:06.546,283.44,0.0,-0.019,0.002,-0.17300000000000001,-0.96,-0.177,25.13,-20.14,-77.17,-0.6693,0.4903,-0.4113,-0.3771,0.0,-0.007,-0.003
2025-11-06 18:37:06.546,283.445,-0.002,-0.024,0.002,-0.17200000000000001,-0.961,-0.177,24.17,-19.76,-76.93,-0.6692,0.4904,-0.41140000000000004,-0.3771,-0.001,-0.005,-0.003
2025-11-06 18:37:06.546,283.45,-0.008,-0.023,0.001,-0.17200000000000001,-0.961,-0.176,24.17,-19.76,-76.93,-0.6692,0.4904,-0.41150000000000003,-0.3771,-0.001,-0.006,-0.003
2025-11-06 18:37:06.546,283.455,-0.006,-0.027,0.003,-0.171,-0.96,-0.18,24.17,-19.76,-76.93,-0.6692,0.4904,-0.41150000000000003,-0.37720000000000004,-0.002,-0.007,0.0
2025-11-06 18:37:06.546,283.46,-0.007,-0.03,0.003,-0.17200000000000001,-0.961,-0.179,23.67,-21.19,-76.84,-0.6691,0.4903,-0.41150000000000003,-0.37720000000000004,-0.001,-0.006,0.0
2025-11-06 18:37:06.546,283.465,-0.008,-0.033,0.005,-0.17,-0.961,-0.18,23.67,-21.19,-76.84,-0.6691,0.4903,-0.41150000000000003,-0.3773,-0.003,-0.006,0.0
2025-11-06 18:37:06.546,283.47,-0.008,-0.033,0.004,-0.168,-0.961,-0.18,23.96,-21.04,-77.28,-0.6691,0.4903,-0.41150000000000003,-0.3775,-0.004,-0.006,0.0
2025-11-06 18:37:06.546,283.475,-0.012,-0.033,0.005,-0.168,-0.961,-0.181,23.96,-21.04,-77.28,-0.669,0.4903,-0.41140000000000004,-0.3776,-0.004,-0.006,0.0
2025-11-06 18:37:06.546,283.48,-0.01,-0.031,0.006,-0.169,-0.961,-0.181,23.96,-21.04,-77.28,-0.669,0.4902,-0.4113,-0.3778,-0.003,-0.006,0.0
2025-11-06 18:37:06.546,283.485,-0.01,-0.033,0.005,-0.168,-0.96,-0.18,23.85,-22.06,-77.66,-0.669,0.4902,-0.4113,-0.3779,-0.004,-0.007,-0.001
2025-11-06 18:37:06.546,283.49,-0.014,-0.032,0.004,-0.168,-0.961,-0.181,23.85,-22.06,-77.66,-0.6689,0.4902,-0.4112,-0.378,-0.004,-0.006,0.0
2025-11-06 18:37:06.546,283.495,-0.018000000000000002,-0.031,0.004,-0.168,-0.964,-0.18,23.85,-20.080000000000002,-78.07000000000001,-0.6689,0.4902,-0.4112,-0.37820000000000004,-0.003,-0.003,-0.001
2025-11-06 18:37:06.546,283.5,-0.019,-0.033,0.003,-0.165,-0.963,-0.18,23.85,-20.080000000000002,-78.07000000000001,-0.6688000000000001,0.4903,-0.4111,-0.3784,-0.006,-0.004,0.0
2025-11-06 18:37:06.546,283.505,-0.022,-0.035,0.004,-0.166,-0.961,-0.177,23.85,-20.080000000000002,-78.07000000000001,-0.6687000000000001,0.4904,-0.4111,-0.3785,-0.004,-0.006,-0.004
2025-11-06 18:37:06.546,283.51,-0.023,-0.034,0.001,-0.166,-0.962,-0.17500000000000002,23.56,-20.11,-77.66,-0.6685,0.49060000000000004,-0.4111,-0.3785,-0.005,-0.005,-0.005
2025-11-06 18:37:06.546,283.515,-0.025,-0.039,0.003,-0.166,-0.962,-0.17500000000000002,23.56,-20.11,-77.66,-0.6684,0.4907,-0.4111,-0.3786,-0.004,-0.006,-0.005
2025-11-06 18:37:06.547,283.52,-0.027,-0.041,0.004,-0.169,-0.964,-0.171,24.11,-19.96,-77.25,-0.6682,0.4908,-0.4113,-0.3786,-0.001,-0.004,-0.008
2025-11-06 18:37:06.547,283.525,-0.029,-0.042,0.004,-0.169,-0.964,-0.169,24.11,-19.96,-77.25,-0.6679,0.49100000000000005,-0.41150000000000003,-0.3785,-0.001,-0.004,-0.01
2025-11-06 18:37:06.547,283.53,-0.034,-0.045,0.004,-0.168,-0.961,-0.171,23.76,-20.46,-77.22,-0.6678000000000001,0.49110000000000004,-0.4116,-0.3784,-0.002,-0.007,-0.007
2025-11-06 18:37:06.547,283.535,-0.035,-0.052000000000000005,0.004,-0.166,-0.96,-0.17200000000000001,23.76,-20.46,-77.22,-0.6676000000000001,0.4912,-0.4117,-0.3785,-0.004,-0.008,-0.006
2025-11-06 18:37:06.547,283.54,-0.037,-0.057,0.005,-0.166,-0.9580000000000001,-0.17500000000000002,23.76,-20.46,-77.22,-0.6676000000000001,0.4912,-0.4117,-0.37870000000000004,-0.004,-0.01,-0.002
2025-11-06 18:37:06.547,283.545,-0.038,-0.063,0.003,-0.17,-0.963,-0.17300000000000001,24.26,-21.07,-77.46000000000001,-0.6675,0.4912,-0.41190000000000004,-0.37870000000000004,0.0,-0.005,-0.004
2025-11-06 18:37:06.547,283.55,-0.039,-0.055,-0.002,-0.176,-0.972,-0.17,24.26,-21.07,-77.46000000000001,-0.6674,0.4912,-0.4122,-0.3785,0.005,0.003,-0.007
2025-11-06 18:37:06.547,283.555,-0.044,-0.057,-0.01,-0.16,-0.972,-0.17400000000000002,25.19,-20.69,-77.72,-0.6671,0.4914,-0.41200000000000003,-0.3789,-0.01,0.003,-0.003
2025-11-06 18:37:06.547,283.56,-0.055,-0.065,-0.005,-0.151,-0.964,-0.177,25.19,-20.69,-77.72,-0.6668000000000001,0.49160000000000004,-0.4117,-0.3796,-0.017,-0.004,0.0
2025-11-06 18:37:06.547,283.565,-0.056,-0.07200000000000001,0.006,-0.16,-0.96,-0.178,25.19,-20.69,-77.72,-0.6667000000000001,0.49150000000000005,-0.4116,-0.3799,-0.007,-0.008,0.0
2025-11-06 18:37:06.547,283.57,-0.054,-0.075,0.013000000000000001,-0.164,-0.9580000000000001,-0.183,24.26,-20.43,-77.87,-0.6668000000000001,0.49110000000000004,-0.41150000000000003,-0.3803,-0.003,-0.01,0.004
2025-11-06 18:37:06.547,283.575,-0.056,-0.084,0.011,-0.166,-0.9520000000000001,-0.19,24.26,-20.43,-77.87,-0.6671,0.49050000000000005,-0.41140000000000004,-0.38070000000000004,-0.001,-0.016,0.01
2025-11-06 18:37:06.548,283.58,-0.057,-0.095,0.008,-0.165,-0.9520000000000001,-0.194,23.94,-20.490000000000002,-77.75,-0.6674,0.4898,-0.4113,-0.38120000000000004,-0.003,-0.016,0.012
2025-11-06 18:37:06.548,283.585,-0.052000000000000005,-0.1,0.005,-0.161,-0.9550000000000001,-0.185,23.94,-20.490000000000002,-77.75,-0.6675,0.48950000000000005,-0.4112,-0.3816,-0.006,-0.013000000000000001,0.003
2025-11-06 18:37:06.548,283.59,-0.046,-0.091,0.006,-0.161,-0.961,-0.179,23.94,-20.490000000000002,-77.75,-0.6673,0.48950000000000005,-0.4112,-0.38180000000000003,-0.006,-0.006,-0.002
2025-11-06 18:37:06.548,283.595,-0.042,-0.078,0.007,-0.16,-0.966,-0.176,23.67,-19.93,-78.22,-0.6671,0.4897,-0.4112,-0.382,-0.007,-0.002,-0.005
2025-11-06 18:37:06.548,283.6,-0.047,-0.068,0.007,-0.157,-0.968,-0.171,23.67,-19.93,-78.22,-0.6668000000000001,0.49010000000000004,-0.4112,-0.3821,-0.009000000000000001,0.0,-0.01
2025-11-06 18:37:06.548,283.605,-0.045,-0.066,0.003,-0.155,-0.961,-0.169,24.29,-20.19,-77.75,-0.6664,0.49050000000000005,-0.4112,-0.38230000000000003,-0.011,-0.007,-0.012
2025-11-06 18:37:06.548,283.61,-0.052000000000000005,-0.07200000000000001,0.004,-0.153,-0.9590000000000001,-0.169,24.29,-20.19,-77.75,-0.666,0.4908,-0.4111,-0.3825,-0.012,-0.01,-0.011
2025-11-06 18:37:06.548,283.615,-0.045,-0.07100000000000001,0.001,-0.147,-0.9550000000000001,-0.165,24.080000000000002,-21.86,-77.93,-0.6655,0.4914,-0.41100000000000003,-0.38280000000000003,-0.017,-0.013000000000000001,-0.013000000000000001
2025-11-06 18:37:06.548,283.62,-0.034,-0.067,0.005,-0.154,-0.9520000000000001,-0.157,24.080000000000002,-21.86,-77.93,-0.6651,0.49200000000000005,-0.4112,-0.3826,-0.009000000000000001,-0.017,-0.02
2025-11-06 18:37:06.548,283.625,-0.025,-0.073,0.006,-0.16,-0.9530000000000001,-0.16,24.080000000000002,-21.86,-77.93,-0.6648000000000001,0.4923,-0.41140000000000004,-0.38230000000000003,-0.003,-0.017,-0.016
2025-11-06 18:37:06.549,283.63,-0.025,-0.10300000000000001,0.008,-0.162,-0.9580000000000001,-0.176,23.96,-20.31,-77.69,-0.6648000000000001,0.49210000000000004,-0.4116,-0.3825,-0.001,-0.012,0.0
2025-11-06 18:37:06.549,283.635,-0.045,-0.14,0.011,-0.164,-0.963,-0.184,23.96,-20.31,-77.69,-0.6649,0.49160000000000004,-0.4117,-0.38280000000000003,0.0,-0.006,0.006
2025-11-06 18:37:06.549,283.64,-0.053,-0.146,0.012,-0.163,-0.963,-0.183,24.400000000000002,-20.95,-77.43,-0.6649,0.49110000000000004,-0.4118,-0.38320000000000004,0.0,-0.006,0.004
2025-11-06 18:37:06.549,283.645,-0.056,-0.152,0.008,-0.165,-0.966,-0.182,24.400000000000002,-20.95,-77.43,-0.6649,0.4907,-0.41200000000000003,-0.3835,0.0,-0.002,0.003
2025-11-06 18:37:06.549,283.65,-0.057,-0.14400000000000002,0.007,-0.161,-0.966,-0.179,24.400000000000002,-20.95,-77.43,-0.6648000000000001,0.49050000000000005,-0.4121,-0.38380000000000003,-0.002,-0.002,0.0
2025-11-06 18:37:06.549,283.655,-0.061,-0.131,0.004,-0.155,-0.963,-0.179,23.82,-20.54,-78.07000000000001,-0.6647000000000001,0.4904,-0.4121,-0.38430000000000003,-0.008,-0.006,0.0
2025-11-06 18:37:06.549,283.66,-0.059000000000000004,-0.122,0.002,-0.155,-0.9580000000000001,-0.176,23.82,-20.54,-78.07000000000001,-0.6645,0.4903,-0.4121,-0.3846,-0.008,-0.011,-0.003
2025-11-06 18:37:06.549,283.665,-0.053,-0.116,0.001,-0.154,-0.9550000000000001,-0.17400000000000002,24.05,-21.63,-77.81,-0.6643,0.4903,-0.4122,-0.385,-0.008,-0.014,-0.005
2025-11-06 18:37:06.549,283.67,-0.05,-0.112,0.004,-0.158,-0.9530000000000001,-0.169,24.05,-21.63,-77.81,-0.6641,0.4904,-0.4123,-0.385,-0.005,-0.016,-0.009000000000000001
2025-11-06 18:37:06.549,283.675,-0.048,-0.108,0.004,-0.16,-0.9550000000000001,-0.165,24.05,-21.63,-77.81,-0.6639,0.49050000000000005,-0.4127,-0.3849,-0.002,-0.014,-0.013000000000000001
2025-11-06 18:37:06.549,283.68,-0.045,-0.10400000000000001,0.008,-0.166,-0.9550000000000001,-0.159,24.11,-20.25,-77.52,-0.6636000000000001,0.4908,-0.4131,-0.3846,0.002,-0.014,-0.017
2025-11-06 18:37:06.550,283.685,-0.045,-0.107,0.008,-0.171,-0.9580000000000001,-0.156,24.11,-20.25,-77.52,-0.6634,0.49100000000000005,-0.4138,-0.384,0.006,-0.011,-0.019
2025-11-06 18:37:06.550,283.69,-0.044,-0.113,0.008,-0.17500000000000002,-0.9590000000000001,-0.155,24.080000000000002,-20.63,-77.57000000000001,-0.6631,0.4912,-0.41450000000000004,-0.3834,0.009000000000000001,-0.01,-0.019
2025-11-06 18:37:06.550,283.695,-0.041,-0.113,0.009000000000000001,-0.177,-0.96,-0.154,24.080000000000002,-20.63,-77.57000000000001,-0.663,0.4913,-0.4152,-0.38280000000000003,0.01,-0.01,-0.018000000000000002
2025-11-06 18:37:06.550,283.7,-0.042,-0.115,0.008,-0.182,-0.96,-0.155,23.82,-20.95,-78.19,-0.6629,0.4913,-0.41590000000000005,-0.3821,0.013000000000000001,-0.009000000000000001,-0.016
2025-11-06 18:37:06.550,283.705,-0.045,-0.112,0.008,-0.184,-0.961,-0.159,23.82,-20.95,-78.19,-0.6629,0.4912,-0.4166,-0.3815,0.014,-0.008,-0.011
2025-11-06 18:37:06.550,283.71,-0.045,-0.109,0.008,-0.186,-0.96,-0.161,23.82,-20.95,-78.19,-0.663,0.49100000000000005,-0.4172,-0.3809,0.014,-0.009000000000000001,-0.009000000000000001
2025-11-06 18:37:06.550,283.715,-0.044,-0.10400000000000001,0.008,-0.186,-0.96,-0.162,23.61,-21.25,-77.46000000000001,-0.6632,0.4908,-0.4177,-0.3804,0.013000000000000001,-0.009000000000000001,-0.006
2025-11-06 18:37:06.550,283.72,-0.044,-0.095,0.007,-0.189,-0.96,-0.163,23.61,-21.25,-77.46000000000001,-0.6634,0.49050000000000005,-0.4182,-0.3798,0.014,-0.008,-0.006
2025-11-06 18:37:06.550,283.725,-0.041,-0.093,0.011,-0.188,-0.9570000000000001,-0.166,23.96,-21.77,-77.25,-0.6636000000000001,0.4902,-0.4186,-0.3794,0.011,-0.011,-0.003
2025-11-06 18:37:06.550,283.73,-0.041,-0.085,0.014,-0.188,-0.9560000000000001,-0.166,23.96,-21.77,-77.25,-0.6639,0.4899,-0.41900000000000004,-0.3789,0.01,-0.012,-0.003
2025-11-06 18:37:06.550,283.735,-0.042,-0.076,0.019,-0.188,-0.9580000000000001,-0.169,23.96,-21.77,-77.25,-0.6642,0.48950000000000005,-0.4192,-0.3786,0.009000000000000001,-0.01,0.0
2025-11-06 18:37:06.550,283.74,-0.043000000000000003,-0.073,0.019,-0.189,-0.961,-0.17,23.64,-20.400000000000002,-77.93,-0.6644,0.4892,-0.41950000000000004,-0.3783,0.009000000000000001,-0.007,0.0
2025-11-06 18:37:06.550,283.745,-0.042,-0.068,0.02,-0.189,-0.965,-0.171,23.64,-20.400000000000002,-77.93,-0.6647000000000001,0.4888,-0.4197,-0.3781,0.008,-0.002,0.001
2025-11-06 18:37:06.550,283.75,-0.043000000000000003,-0.065,0.02,-0.188,-0.964,-0.171,23.79,-20.25,-78.22,-0.6649,0.48850000000000005,-0.4199,-0.3779,0.006,-0.003,0.0
2025-11-06 18:37:06.550,283.755,-0.045,-0.049,0.02,-0.188,-0.966,-0.17,23.79,-20.25,-78.22,-0.665,0.4883,-0.42000000000000004,-0.37770000000000004,0.005,-0.002,0.0
2025-11-06 18:37:06.550,283.76,-0.046,-0.043000000000000003,0.021,-0.189,-0.962,-0.169,23.79,-20.25,-78.22,-0.6652,0.48800000000000004,-0.4202,-0.3775,0.006,-0.005,0.0
2025-11-06 18:37:06.550,283.765,-0.047,-0.04,0.022,-0.189,-0.96,-0.171,23.91,-20.490000000000002,-78.36,-0.6654,0.4877,-0.4204,-0.3773,0.005,-0.007,0.0
2025-11-06 18:37:06.550,283.77,-0.045,-0.04,0.024,-0.189,-0.9590000000000001,-0.17400000000000002,23.91,-20.490000000000002,-78.36,-0.6657000000000001,0.4874,-0.4204,-0.37720000000000004,0.004,-0.008,0.003
2025-11-06 18:37:06.550,283.775,-0.052000000000000005,-0.04,0.023,-0.187,-0.9580000000000001,-0.17300000000000001,23.91,-20.080000000000002,-78.22,-0.666,0.48710000000000003,-0.4204,-0.3771,0.002,-0.009000000000000001,0.001
2025-11-06 18:37:06.550,283.78,-0.056,-0.038,0.024,-0.185,-0.9550000000000001,-0.17300000000000001,23.91,-20.080000000000002,-78.22,-0.6662,0.4869,-0.4204,-0.3771,0.0,-0.012,0.001
2025-11-06 18:37:06.550,283.785,-0.059000000000000004,-0.039,0.023,-0.183,-0.9530000000000001,-0.17,24.02,-20.080000000000002,-78.51,-0.6662,0.4867,-0.4204,-0.37720000000000004,-0.002,-0.013000000000000001,-0.002
2025-11-06 18:37:06.550,283.79,-0.059000000000000004,-0.041,0.023,-0.183,-0.9520000000000001,-0.169,24.02,-21.51,-78.51,-0.6662,0.48660000000000003,-0.42050000000000004,-0.3773,-0.002,-0.014,-0.003
2025-11-06 18:37:06.550,283.795,-0.064,-0.041,0.023,-0.181,-0.9520000000000001,-0.17,24.02,-21.51,-78.51,-0.6663,0.48650000000000004,-0.42050000000000004,-0.3774,-0.004,-0.014,-0.002
2025-11-06 18:37:06.550,283.8,-0.067,-0.036000000000000004,0.022,-0.182,-0.9560000000000001,-0.168,23.85,-23.12,-77.75,-0.6662,0.4864,-0.42060000000000003,-0.3775,-0.004,-0.009000000000000001,-0.004
2025-11-06 18:37:06.550,283.805,-0.069,-0.036000000000000004,0.022,-0.184,-0.9590000000000001,-0.166,23.85,-23.12,-77.75,-0.6661,0.4863,-0.4208,-0.3776,-0.001,-0.007,-0.006
2025-11-06 18:37:06.550,283.81,-0.07,-0.036000000000000004,0.022,-0.188,-0.962,-0.165,23.82,-22.88,-78.04,-0.666,0.4862,-0.42100000000000004,-0.3776,0.002,-0.004,-0.007
2025-11-06 18:37:06.550,283.815,-0.076,-0.032,0.02,-0.192,-0.961,-0.163,23.82,-22.88,-78.04,-0.666,0.48610000000000003,-0.4214,-0.3774,0.005,-0.005,-0.009000000000000001
2025-11-06 18:37:06.550,283.82,-0.076,-0.025,0.02,-0.196,-0.962,-0.166,23.82,-22.88,-78.04,-0.6661,0.4858,-0.4218,-0.3771,0.008,-0.004,-0.005
2025-11-06 18:37:06.551,283.825,-0.077,-0.027,0.022,-0.202,-0.9590000000000001,-0.17200000000000001,23.79,-20.37,-78.71000000000001,-0.6664,0.4854,-0.42210000000000003,-0.37670000000000003,0.012,-0.007,0.0
2025-11-06 18:37:06.551,283.83,-0.077,-0.033,0.023,-0.203,-0.9590000000000001,-0.17500000000000002,23.79,-20.37,-78.71000000000001,-0.6669,0.4849,-0.4223,-0.3764,0.012,-0.006,0.002
2025-11-06 18:37:06.551,283.835,-0.077,-0.041,0.025,-0.203,-0.9580000000000001,-0.182,23.88,-22.82,-78.42,-0.6675,0.4843,-0.4223,-0.376,0.011,-0.007,0.007
2025-11-06 18:37:06.551,283.84,-0.074,-0.041,0.025,-0.201,-0.9550000000000001,-0.185,23.88,-22.82,-78.42,-0.6681,0.4837,-0.4222,-0.3758,0.007,-0.009000000000000001,0.01
2025-11-06 18:37:06.551,283.845,-0.074,-0.046,0.031,-0.2,-0.9550000000000001,-0.191,23.88,-22.82,-78.42,-0.6688000000000001,0.48310000000000003,-0.4219,-0.37560000000000004,0.006,-0.009000000000000001,0.014
2025-11-06 18:37:06.551,283.85,-0.074,-0.055,0.033,-0.195,-0.9550000000000001,-0.196,24.32,-20.54,-78.01,-0.6696000000000001,0.48250000000000004,-0.4214,-0.37560000000000004,0.001,-0.008,0.017
2025-11-06 18:37:06.551,283.855,-0.07100000000000001,-0.054,0.032,-0.193,-0.9510000000000001,-0.197,24.32,-20.54,-78.01,-0.6703,0.48190000000000005,-0.4208,-0.37570000000000003,-0.001,-0.011,0.016
2025-11-06 18:37:06.551,283.86,-0.07,-0.054,0.031,-0.191,-0.9510000000000001,-0.199,23.56,-20.16,-78.01,-0.671,0.48140000000000005,-0.4202,-0.3758,-0.003,-0.012,0.016
2025-11-06 18:37:06.551,283.865,-0.07,-0.055,0.029,-0.189,-0.9510000000000001,-0.201,23.56,-20.16,-78.01,-0.6716000000000001,0.48100000000000004,-0.41960000000000003,-0.3759,-0.005,-0.012,0.016
2025-11-06 18:37:06.551,283.87,-0.066,-0.055,0.029,-0.187,-0.9540000000000001,-0.2,23.56,-20.16,-78.01,-0.6721,0.4806,-0.41900000000000004,-0.37620000000000003,-0.007,-0.008,0.013000000000000001
2025-11-06 18:37:06.551,283.875,-0.066,-0.052000000000000005,0.028,-0.187,-0.9560000000000001,-0.197,23.79,-19.93,-78.89,-0.6725,0.48040000000000005,-0.41850000000000004,-0.3764,-0.006,-0.006,0.009000000000000001
2025-11-06 18:37:06.551,283.88,-0.064,-0.047,0.028,-0.188,-0.9570000000000001,-0.194,23.79,-19.93,-78.89,-0.6727000000000001,0.4802,-0.4182,-0.3765,-0.005,-0.005,0.005
2025-11-06 18:37:06.551,283.885,-0.062,-0.043000000000000003,0.026000000000000002,-0.192,-0.96,-0.193,23.7,-20.14,-78.16,-0.6729,0.48000000000000004,-0.4181,-0.3766,-0.001,-0.002,0.003
2025-11-06 18:37:06.551,283.89,-0.063,-0.036000000000000004,0.023,-0.198,-0.9590000000000001,-0.191,23.7,-20.14,-78.16,-0.673,0.4796,-0.4182,-0.37670000000000003,0.004,-0.002,0.001
2025-11-06 18:37:06.551,283.895,-0.063,-0.021,0.022,-0.2,-0.9560000000000001,-0.191,23.580000000000002,-20.75,-78.66,-0.6732,0.4793,-0.4184,-0.3766,0.005,-0.005,0.0
2025-11-06 18:37:06.551,283.9,-0.059000000000000004,-0.014,0.02,-0.20600000000000002,-0.9550000000000001,-0.189,23.580000000000002,-20.75,-78.66,-0.6734,0.4788,-0.4188,-0.3765,0.01,-0.006,-0.001
2025-11-06 18:37:06.552,283.905,-0.063,-0.007,0.021,-0.211,-0.9540000000000001,-0.188,23.580000000000002,-20.75,-78.66,-0.6735,0.4782,-0.4194,-0.3763,0.014,-0.007,-0.002
2025-11-06 18:37:06.552,283.91,-0.063,0.0,0.02,-0.214,-0.9530000000000001,-0.19,23.76,-20.22,-79.01,-0.6738000000000001,0.4776,-0.4199,-0.376,0.015,-0.007,0.0
2025-11-06 18:37:06.552,283.915,-0.063,0.01,0.019,-0.215,-0.9530000000000001,-0.191,23.76,-20.22,-79.01,-0.6741,0.47700000000000004,-0.4204,-0.3758,0.014,-0.007,0.0
2025-11-06 18:37:06.552,283.92,-0.064,0.016,0.017,-0.216,-0.9510000000000001,-0.19,23.61,-20.02,-78.74,-0.6743,0.47650000000000003,-0.4208,-0.3755,0.013000000000000001,-0.009000000000000001,-0.001
2025-11-06 18:37:06.552,283.925,-0.067,0.032,0.015,-0.216,-0.9480000000000001,-0.187,23.61,-20.02,-78.74,-0.6745,0.47600000000000003,-0.4213,-0.3753,0.012,-0.011,-0.004
2025-11-06 18:37:06.552,283.93,-0.061,0.043000000000000003,0.017,-0.214,-0.9440000000000001,-0.185,23.61,-20.02,-78.74,-0.6746,0.4756,-0.4217,-0.375,0.009000000000000001,-0.015,-0.006
2025-11-06 18:37:06.552,283.935,-0.056,0.056,0.015,-0.214,-0.9410000000000001,-0.186,23.47,-20.28,-78.77,-0.6748000000000001,0.4753,-0.42210000000000003,-0.3748,0.008,-0.017,-0.005
2025-11-06 18:37:06.552,283.94,-0.055,0.068,0.014,-0.211,-0.9410000000000001,-0.189,23.47,-20.28,-78.77,-0.675,0.47500000000000003,-0.4222,-0.3745,0.004,-0.017,-0.003
2025-11-06 18:37:06.552,283.945,-0.052000000000000005,0.073,0.014,-0.20800000000000002,-0.9420000000000001,-0.194,23.64,-20.19,-79.27,-0.6754,0.4748,-0.42200000000000004,-0.3744,0.0,-0.016,0.001
2025-11-06 18:37:06.552,283.95,-0.047,0.07,0.014,-0.202,-0.9440000000000001,-0.2,23.64,-20.19,-79.27,-0.6759000000000001,0.4747,-0.42150000000000004,-0.3743,-0.005,-0.013000000000000001,0.006
2025-11-06 18:37:06.552,283.955,-0.044,0.068,0.016,-0.2,-0.9490000000000001,-0.20400000000000001,23.64,-20.19,-79.27,-0.6763,0.4746,-0.4208,-0.3743,-0.006,-0.009000000000000001,0.008
2025-11-06 18:37:06.552,283.96,-0.04,0.062,0.017,-0.199,-0.9520000000000001,-0.20800000000000002,24.14,-20.69,-78.66,-0.6769000000000001,0.47450000000000003,-0.42000000000000004,-0.3743,-0.007,-0.005,0.011
2025-11-06 18:37:06.552,283.965,-0.032,0.052000000000000005,0.015,-0.197,-0.9540000000000001,-0.21,24.14,-20.69,-78.66,-0.6774,0.47450000000000003,-0.4192,-0.3743,-0.008,-0.003,0.012
2025-11-06 18:37:06.552,283.97,-0.028,0.047,0.016,-0.196,-0.9560000000000001,-0.212,23.29,-20.46,-78.66,-0.6778000000000001,0.47450000000000003,-0.4184,-0.3744,-0.008,-0.001,0.012
2025-11-06 18:37:06.552,283.975,-0.024,0.042,0.017,-0.196,-0.9590000000000001,-0.213,23.29,-20.46,-78.66,-0.6783,0.47440000000000004,-0.4177,-0.3745,-0.007,0.001,0.012
2025-11-06 18:37:06.552,283.98,-0.022,0.043000000000000003,0.017,-0.195,-0.96,-0.211,23.67,-20.080000000000002,-78.71000000000001,-0.6786,0.47450000000000003,-0.41700000000000004,-0.37460000000000004,-0.008,0.002,0.009000000000000001
2025-11-06 18:37:06.552,283.985,-0.022,0.044,0.015,-0.197,-0.9550000000000001,-0.20800000000000002,23.67,-20.080000000000002,-78.71000000000001,-0.6788000000000001,0.47450000000000003,-0.4166,-0.37460000000000004,-0.005,-0.001,0.005
2025-11-06 18:37:06.552,283.99,-0.026000000000000002,0.051000000000000004,0.014,-0.199,-0.9500000000000001,-0.20800000000000002,23.67,-20.080000000000002,-78.71000000000001,-0.6791,0.47450000000000003,-0.4162,-0.37460000000000004,-0.003,-0.006,0.004
2025-11-06 18:37:06.552,283.995,-0.028,0.056,0.012,-0.199,-0.9490000000000001,-0.209,24.2,-20.43,-78.69,-0.6794,0.4743,-0.41590000000000005,-0.37460000000000004,-0.003,-0.007,0.005
2025-11-06 18:37:06.552,284.0,-0.028,0.061,0.011,-0.198,-0.9490000000000001,-0.209,24.2,-20.43,-78.69,-0.6796,0.4743,-0.41550000000000004,-0.37460000000000004,-0.004,-0.008,0.004
2025-11-06 18:37:06.552,284.005,-0.029,0.066,0.011,-0.198,-0.9490000000000001,-0.211,23.580000000000002,-20.16,-79.07000000000001,-0.68,0.4742,-0.4151,-0.37460000000000004,-0.003,-0.008,0.005
2025-11-06 18:37:06.552,284.01,-0.033,0.07100000000000001,0.009000000000000001,-0.196,-0.9490000000000001,-0.213,23.580000000000002,-20.16,-79.07000000000001,-0.6803,0.4741,-0.4146,-0.37470000000000003,-0.005,-0.007,0.006
2025-11-06 18:37:06.552,284.015,-0.039,0.078,0.008,-0.195,-0.9500000000000001,-0.213,23.580000000000002,-20.16,-79.07000000000001,-0.6806,0.4741,-0.41400000000000003,-0.37470000000000003,-0.006,-0.006,0.005
2025-11-06 18:37:06.552,284.02,-0.042,0.082,0.007,-0.193,-0.9500000000000001,-0.212,23.41,-19.96,-78.60000000000001,-0.6809000000000001,0.4741,-0.41350000000000003,-0.3748,-0.006,-0.006,0.003
2025-11-06 18:37:06.552,284.025,-0.045,0.085,0.004,-0.194,-0.9520000000000001,-0.209,23.41,-19.96,-78.60000000000001,-0.681,0.4742,-0.4131,-0.3748,-0.005,-0.004,0.0
2025-11-06 18:37:06.552,284.03,-0.042,0.082,0.003,-0.194,-0.9500000000000001,-0.209,23.26,-20.22,-78.8,-0.6812,0.4743,-0.4128,-0.3748,-0.005,-0.006,0.0
2025-11-06 18:37:06.552,284.035,-0.046,0.085,0.001,-0.195,-0.9460000000000001,-0.211,23.26,-20.22,-78.8,-0.6814,0.4743,-0.41240000000000004,-0.3748,-0.004,-0.01,0.001
2025-11-06 18:37:06.554,284.04,-0.047,0.08700000000000001,-0.001,-0.197,-0.9450000000000001,-0.212,23.26,-20.22,-78.8,-0.6817000000000001,0.4742,-0.4121,-0.3748,-0.001,-0.011,0.001
2025-11-06 18:37:06.554,284.045,-0.048,0.09,-0.002,-0.199,-0.9460000000000001,-0.213,24.02,-21.68,-78.63,-0.682,0.47400000000000003,-0.41190000000000004,-0.37470000000000003,0.0,-0.01,0.002
2025-11-06 18:37:06.554,284.05,-0.048,0.094,-0.001,-0.198,-0.9500000000000001,-0.215,24.02,-21.68,-78.63,-0.6822,0.47390000000000004,-0.4116,-0.37470000000000003,-0.001,-0.006,0.002
2025-11-06 18:37:06.554,284.055,-0.047,0.093,-0.002,-0.198,-0.9520000000000001,-0.214,23.44,-19.96,-78.48,-0.6824,0.4738,-0.4113,-0.37470000000000003,0.0,-0.004,0.001
2025-11-06 18:37:06.554,284.06,-0.047,0.098,-0.002,-0.199,-0.9550000000000001,-0.209,23.44,-19.96,-78.48,-0.6825,0.47390000000000004,-0.4112,-0.37460000000000004,0.0,0.0,-0.003
2025-11-06 18:37:06.554,284.065,-0.048,0.098,-0.001,-0.201,-0.9570000000000001,-0.209,23.56,-23.29,-79.18,-0.6826,0.47390000000000004,-0.4112,-0.3745,0.002,0.001,-0.003
2025-11-06 18:37:06.554,284.07,-0.047,0.092,0.0,-0.203,-0.9590000000000001,-0.20400000000000001,23.56,-23.29,-79.18,-0.6825,0.47400000000000003,-0.4113,-0.37420000000000003,0.004,0.002,-0.007
2025-11-06 18:37:06.554,284.075,-0.047,0.092,0.001,-0.202,-0.9590000000000001,-0.203,23.56,-23.29,-79.18,-0.6825,0.4742,-0.41140000000000004,-0.374,0.002,0.003,-0.008
2025-11-06 18:37:06.554,284.08,-0.05,0.082,0.006,-0.195,-0.9460000000000001,-0.20600000000000002,23.73,-20.72,-79.09,-0.6825,0.47440000000000004,-0.4112,-0.374,-0.004,-0.01,-0.005
2025-11-06 18:37:06.554,284.085,-0.051000000000000004,0.076,0.011,-0.197,-0.936,-0.20500000000000002,23.73,-20.72,-79.09,-0.6826,0.4743,-0.4112,-0.3739,-0.001,-0.02,-0.006
2025-11-06 18:37:06.554,284.09,-0.051000000000000004,0.068,0.012,-0.201,-0.934,-0.209,23.76,-20.37,-79.47,-0.6829000000000001,0.4741,-0.4112,-0.37370000000000003,0.001,-0.021,-0.003
2025-11-06 18:37:06.554,284.095,-0.05,0.066,0.011,-0.202,-0.9390000000000001,-0.212,23.76,-20.37,-79.47,-0.6831,0.4738,-0.4112,-0.37360000000000004,0.002,-0.016,0.0
2025-11-06 18:37:06.554,284.1,-0.046,0.066,0.008,-0.197,-0.9430000000000001,-0.219,23.76,-20.37,-79.47,-0.6835,0.4736,-0.4108,-0.37360000000000004,-0.003,-0.012,0.005
2025-11-06 18:37:06.554,284.105,-0.042,0.061,0.006,-0.188,-0.9520000000000001,-0.218,23.32,-21.51,-79.56,-0.6836,0.4737,-0.4102,-0.3738,-0.01,-0.003,0.003
2025-11-06 18:37:06.554,284.11,-0.042,0.065,0.006,-0.186,-0.9540000000000001,-0.215,23.32,-21.51,-79.56,-0.6837000000000001,0.47400000000000003,-0.4097,-0.374,-0.012,-0.001,0.0
2025-11-06 18:37:06.554,284.115,-0.041,0.067,0.003,-0.187,-0.9520000000000001,-0.211,23.7,-20.43,-78.98,-0.6836,0.4743,-0.4093,-0.37410000000000004,-0.01,-0.003,-0.003
2025-11-06 18:37:06.554,284.12,-0.042,0.07200000000000001,0.004,-0.19,-0.9510000000000001,-0.20800000000000002,23.7,-20.43,-78.98,-0.6836,0.4746,-0.40900000000000003,-0.37410000000000004,-0.007,-0.005,-0.006
2025-11-06 18:37:06.555,284.125,-0.045,0.077,0.007,-0.193,-0.9500000000000001,-0.20700000000000002,23.7,-20.43,-78.98,-0.6836,0.47490000000000004,-0.40900000000000003,-0.3739,-0.003,-0.005,-0.007
2025-11-06 18:37:06.555,284.13,-0.045,0.07100000000000001,0.008,-0.195,-0.9490000000000001,-0.20500000000000002,23.38,-20.43,-78.92,-0.6835,0.47500000000000003,-0.40900000000000003,-0.3738,-0.001,-0.007,-0.008
2025-11-06 18:37:06.555,284.135,-0.047,0.068,0.011,-0.197,-0.9460000000000001,-0.20500000000000002,23.38,-20.43,-78.92,-0.6835,0.4751,-0.4091,-0.3735,0.0,-0.01,-0.009000000000000001
2025-11-06 18:37:06.555,284.14,-0.045,0.066,0.011,-0.198,-0.9440000000000001,-0.203,23.61,-20.14,-78.95,-0.6835,0.4752,-0.4092,-0.3733,0.001,-0.012,-0.01
2025-11-06 18:37:06.555,284.145,-0.041,0.06,0.009000000000000001,-0.196,-0.9400000000000001,-0.202,23.61,-20.14,-78.95,-0.6835,0.4753,-0.4093,-0.37310000000000004,-0.001,-0.015,-0.011
2025-11-06 18:37:06.555,284.15,-0.034,0.056,0.008,-0.196,-0.935,-0.201,23.61,-20.14,-78.74,-0.6834,0.47550000000000003,-0.40940000000000004,-0.3728,-0.001,-0.02,-0.011
2025-11-06 18:37:06.555,284.155,-0.031,0.054,0.003,-0.195,-0.936,-0.199,24.26,-20.28,-78.74,-0.6833,0.4757,-0.4096,-0.37270000000000003,-0.002,-0.02,-0.012
2025-11-06 18:37:06.555,284.16,-0.023,0.052000000000000005,0.0,-0.195,-0.9380000000000001,-0.2,24.26,-20.28,-78.74,-0.6832,0.4758,-0.4097,-0.3725,-0.002,-0.018000000000000002,-0.011
2025-11-06 18:37:06.555,284.165,-0.014,0.054,0.0,-0.198,-0.9390000000000001,-0.201,23.53,-20.16,-78.25,-0.6832,0.47600000000000003,-0.4098,-0.37220000000000003,0.0,-0.017,-0.01
2025-11-06 18:37:06.555,284.17,-0.008,0.057,-0.004,-0.202,-0.9410000000000001,-0.198,23.53,-20.16,-78.25,-0.6831,0.4761,-0.4101,-0.3718,0.003,-0.015,-0.012
2025-11-06 18:37:06.555,284.175,0.001,0.058,-0.005,-0.20800000000000002,-0.9440000000000001,-0.201,23.47,-19.93,-79.59,-0.6832,0.4761,-0.41040000000000004,-0.3714,0.008,-0.012,-0.008
2025-11-06 18:37:06.555,284.18,0.008,0.063,-0.006,-0.211,-0.9470000000000001,-0.20400000000000001,23.47,-19.93,-79.59,-0.6834,0.47600000000000003,-0.4107,-0.3709,0.01,-0.009000000000000001,-0.004
2025-11-06 18:37:06.555,284.185,0.009000000000000001,0.066,-0.005,-0.213,-0.9500000000000001,-0.20700000000000002,23.47,-19.93,-79.59,-0.6836,0.47590000000000005,-0.41090000000000004,-0.3704,0.011,-0.005,-0.002
2025-11-06 18:37:06.555,284.19,0.01,0.064,-0.002,-0.213,-0.9520000000000001,-0.212,24.11,-19.93,-79.53,-0.6839000000000001,0.4757,-0.41100000000000003,-0.37,0.01,-0.004,0.002
2025-11-06 18:37:06.555,284.195,0.01,0.062,-0.002,-0.215,-0.9540000000000001,-0.216,24.11,-19.93,-79.53,-0.6843,0.47540000000000004,-0.41100000000000003,-0.36960000000000004,0.011,-0.002,0.005
2025-11-06 18:37:06.555,284.2,0.008,0.06,-0.001,-0.214,-0.9550000000000001,-0.218,23.91,-19.87,-78.92,-0.6847000000000001,0.4751,-0.41100000000000003,-0.3693,0.01,0.0,0.007
2025-11-06 18:37:06.555,284.205,0.006,0.058,-0.002,-0.212,-0.9530000000000001,-0.22,23.91,-19.87,-78.92,-0.6851,0.4748,-0.4108,-0.369,0.007,-0.001,0.008
2025-11-06 18:37:06.555,284.21,0.006,0.064,0.0,-0.211,-0.9520000000000001,-0.223,23.91,-19.87,-78.92,-0.6856,0.47450000000000003,-0.4106,-0.3688,0.005,-0.002,0.01
2025-11-06 18:37:06.555,284.215,0.007,0.065,0.0,-0.209,-0.9530000000000001,-0.226,24.2,-20.92,-78.8,-0.6861,0.4743,-0.4102,-0.3687,0.003,-0.001,0.012
2025-11-06 18:37:06.555,284.22,0.007,0.07200000000000001,0.001,-0.20700000000000002,-0.9510000000000001,-0.227,24.2,-20.92,-78.8,-0.6866,0.47400000000000003,-0.4097,-0.36860000000000004,0.001,-0.003,0.012
2025-11-06 18:37:06.555,284.225,0.009000000000000001,0.08600000000000001,0.0,-0.20500000000000002,-0.9470000000000001,-0.229,23.580000000000002,-19.73,-78.95,-0.6871,0.4738,-0.4092,-0.3685,0.0,-0.007,0.012
2025-11-06 18:37:06.555,284.23,0.006,0.093,0.001,-0.203,-0.9450000000000001,-0.23,23.580000000000002,-19.73,-78.95,-0.6876,0.4736,-0.4086,-0.3684,-0.002,-0.008,0.012
2025-11-06 18:37:06.555,284.235,0.006,0.098,0.002,-0.203,-0.9450000000000001,-0.231,23.580000000000002,-19.73,-78.95,-0.6882,0.47340000000000004,-0.40800000000000003,-0.3683,-0.002,-0.008,0.012
2025-11-06 18:37:06.555,284.24,0.007,0.1,0.001,-0.203,-0.9480000000000001,-0.233,24.17,-20.69,-79.21000000000001,-0.6887,0.4732,-0.40740000000000004,-0.3683,-0.002,-0.005,0.012
2025-11-06 18:37:06.555,284.245,0.006,0.10200000000000001,0.001,-0.201,-0.9500000000000001,-0.232,24.17,-20.69,-79.21000000000001,-0.6891,0.4732,-0.4068,-0.3683,-0.003,-0.003,0.01
2025-11-06 18:37:06.555,284.25,0.007,0.097,0.003,-0.199,-0.9530000000000001,-0.231,23.73,-20.16,-79.62,-0.6894,0.4732,-0.4062,-0.3683,-0.005,0.0,0.009000000000000001
2025-11-06 18:37:06.555,284.255,0.004,0.09,0.002,-0.197,-0.9550000000000001,-0.23,23.73,-20.16,-79.62,-0.6896,0.4733,-0.4056,-0.3683,-0.006,0.001,0.006
2025-11-06 18:37:06.555,284.26,-0.003,0.088,0.003,-0.196,-0.9550000000000001,-0.229,24.32,-22.04,-78.77,-0.6899000000000001,0.47350000000000003,-0.4051,-0.3683,-0.006,0.002,0.006
2025-11-06 18:37:06.557,284.265,-0.006,0.076,0.004,-0.196,-0.9550000000000001,-0.226,24.32,-22.04,-78.77,-0.6900000000000001,0.4737,-0.4046,-0.3683,-0.006,0.001,0.002
2025-11-06 18:37:06.557,284.27,-0.01,0.069,0.001,-0.194,-0.9530000000000001,-0.224,24.32,-22.04,-78.77,-0.6900000000000001,0.47390000000000004,-0.4042,-0.3683,-0.007,0.0,0.0
2025-11-06 18:37:06.557,284.275,-0.015,0.065,0.003,-0.193,-0.9550000000000001,-0.223,23.79,-19.900000000000002,-78.36,-0.6900000000000001,0.4742,-0.40390000000000004,-0.3684,-0.007,0.002,-0.001
2025-11-06 18:37:06.557,284.28,-0.02,0.068,0.0,-0.189,-0.9560000000000001,-0.223,23.79,-19.900000000000002,-78.36,-0.6900000000000001,0.4746,-0.40340000000000004,-0.3685,-0.01,0.002,0.0
2025-11-06 18:37:06.557,284.285,-0.026000000000000002,0.068,-0.002,-0.187,-0.9560000000000001,-0.222,24.93,-21.330000000000002,-78.10000000000001,-0.6900000000000001,0.47500000000000003,-0.40290000000000004,-0.3685,-0.011,0.002,-0.002
2025-11-06 18:37:06.557,284.29,-0.027,0.069,-0.004,-0.185,-0.9570000000000001,-0.224,24.93,-21.330000000000002,-78.10000000000001,-0.6899000000000001,0.47540000000000004,-0.40230000000000005,-0.3687,-0.012,0.003,0.0
2025-11-06 18:37:06.557,284.295,-0.028,0.066,-0.003,-0.184,-0.9570000000000001,-0.226,24.93,-21.330000000000002,-78.10000000000001,-0.6900000000000001,0.4758,-0.4017,-0.3689,-0.011,0.003,0.001
2025-11-06 18:37:06.557,284.3,-0.031,0.065,-0.002,-0.179,-0.9550000000000001,-0.229,23.73,-19.81,-78.51,-0.6900000000000001,0.4761,-0.401,-0.36910000000000004,-0.015,0.001,0.003
2025-11-06 18:37:06.557,284.305,-0.03,0.06,-0.003,-0.179,-0.9550000000000001,-0.23,23.73,-19.81,-78.51,-0.6901,0.4763,-0.40030000000000004,-0.3694,-0.014,0.001,0.004
2025-11-06 18:37:06.557,284.31,-0.03,0.059000000000000004,-0.001,-0.17500000000000002,-0.9540000000000001,-0.232,24.23,-21.71,-79.27,-0.6902,0.4766,-0.39940000000000003,-0.3698,-0.016,0.0,0.005
2025-11-06 18:37:06.557,284.315,-0.026000000000000002,0.047,0.0,-0.171,-0.9490000000000001,-0.231,24.23,-21.71,-79.27,-0.6902,0.47690000000000005,-0.3986,-0.37020000000000003,-0.019,-0.005,0.003
2025-11-06 18:37:06.557,284.32,-0.027,0.044,0.0,-0.166,-0.9460000000000001,-0.23,24.23,-21.71,-79.27,-0.6902,0.4773,-0.39780000000000004,-0.37060000000000004,-0.021,-0.009000000000000001,0.002
2025-11-06 18:37:06.557,284.325,-0.026000000000000002,0.038,0.0,-0.16,-0.9440000000000001,-0.228,24.11,-19.96,-78.92,-0.6902,0.47790000000000005,-0.39680000000000004,-0.371,-0.026000000000000002,-0.011,0.0
2025-11-06 18:37:06.557,284.33,-0.026000000000000002,0.033,0.0,-0.158,-0.9430000000000001,-0.224,24.11,-19.96,-78.92,-0.6900000000000001,0.47850000000000004,-0.39590000000000003,-0.3714,-0.025,-0.012,-0.004
2025-11-06 18:37:06.557,284.335,-0.028,0.03,0.0,-0.157,-0.9440000000000001,-0.222,24.2,-20.16,-77.75,-0.6899000000000001,0.4793,-0.3951,-0.37160000000000004,-0.024,-0.011,-0.006
2025-11-06 18:37:06.557,284.34,-0.033,0.027,-0.003,-0.154,-0.9460000000000001,-0.218,24.2,-20.16,-77.75,-0.6896,0.4802,-0.3942,-0.3718,-0.025,-0.01,-0.01
2025-11-06 18:37:06.557,284.345,-0.039,0.024,-0.005,-0.155,-0.9480000000000001,-0.218,24.11,-21.89,-77.9,-0.6894,0.48100000000000004,-0.3935,-0.3719,-0.022,-0.008,-0.009000000000000001
2025-11-06 18:37:06.557,284.35,-0.037,0.021,-0.007,-0.155,-0.9490000000000001,-0.216,24.11,-21.89,-77.9,-0.6892,0.4818,-0.39280000000000004,-0.372,-0.02,-0.008,-0.011
2025-11-06 18:37:06.557,284.355,-0.039,0.017,-0.008,-0.158,-0.9510000000000001,-0.215,24.11,-21.89,-77.9,-0.6890000000000001,0.48260000000000003,-0.39230000000000004,-0.3719,-0.016,-0.006,-0.011
2025-11-06 18:37:06.557,284.36,-0.039,0.016,-0.009000000000000001,-0.159,-0.9500000000000001,-0.215,23.79,-20.25,-78.33,-0.6888000000000001,0.4833,-0.3919,-0.3719,-0.014,-0.007,-0.011
2025-11-06 18:37:06.557,284.365,-0.037,0.007,-0.012,-0.164,-0.9490000000000001,-0.214,23.79,-20.25,-78.33,-0.6887,0.4838,-0.3916,-0.37170000000000003,-0.008,-0.009000000000000001,-0.011
2025-11-06 18:37:06.557,284.37,-0.037,0.002,-0.008,-0.163,-0.9480000000000001,-0.216,24.34,-20.19,-78.39,-0.6885,0.48410000000000003,-0.3914,-0.37170000000000003,-0.008,-0.01,-0.008
2025-11-06 18:37:06.557,284.375,-0.034,-0.011,-0.009000000000000001,-0.163,-0.9500000000000001,-0.216,24.34,-20.19,-78.39,-0.6884,0.48450000000000004,-0.3912,-0.37160000000000004,-0.007,-0.008,-0.008
2025-11-06 18:37:06.557,284.38,-0.027,-0.018000000000000002,-0.007,-0.163,-0.9500000000000001,-0.218,24.34,-20.19,-78.39,-0.6883,0.4847,-0.3911,-0.37170000000000003,-0.007,-0.009000000000000001,-0.006
2025-11-06 18:37:06.557,284.385,-0.024,-0.021,-0.007,-0.162,-0.9520000000000001,-0.219,23.67,-20.14,-78.04,-0.6882,0.4849,-0.3909,-0.3718,-0.007,-0.007,-0.004
2025-11-06 18:37:06.557,284.39,-0.019,-0.025,-0.006,-0.158,-0.9520000000000001,-0.219,23.67,-20.14,-78.04,-0.6880000000000001,0.4852,-0.3907,-0.372,-0.01,-0.007,-0.004
2025-11-06 18:37:06.557,284.395,-0.019,-0.024,-0.007,-0.156,-0.9530000000000001,-0.219,24.2,-19.76,-78.16,-0.6878000000000001,0.48550000000000004,-0.3904,-0.3723,-0.012,-0.006,-0.004
2025-11-06 18:37:06.557,284.4,-0.019,-0.021,-0.006,-0.155,-0.9520000000000001,-0.22,24.2,-19.76,-78.16,-0.6876,0.4857,-0.3902,-0.37260000000000004,-0.012,-0.007,-0.003
2025-11-06 18:37:06.557,284.405,-0.015,-0.017,-0.006,-0.154,-0.9530000000000001,-0.219,24.2,-19.76,-78.16,-0.6874,0.48600000000000004,-0.3899,-0.3728,-0.012,-0.006,-0.004
2025-11-06 18:37:06.557,284.41,-0.013000000000000001,-0.016,-0.007,-0.152,-0.9550000000000001,-0.218,24.34,-20.28,-77.69,-0.6872,0.4864,-0.3896,-0.37310000000000004,-0.012,-0.005,-0.005
2025-11-06 18:37:06.557,284.415,-0.011,-0.016,-0.004,-0.154,-0.9540000000000001,-0.216,24.34,-20.28,-77.69,-0.687,0.4868,-0.3894,-0.37320000000000003,-0.01,-0.005,-0.006
2025-11-06 18:37:06.557,284.42,-0.015,-0.01,-0.006,-0.154,-0.9530000000000001,-0.214,24.29,-21.68,-77.72,-0.6868000000000001,0.4872,-0.38920000000000005,-0.37320000000000003,-0.009000000000000001,-0.007,-0.008
2025-11-06 18:37:06.559,284.425,-0.017,-0.014,-0.007,-0.153,-0.9510000000000001,-0.212,24.29,-21.68,-77.72,-0.6866,0.48760000000000003,-0.389,-0.37310000000000004,-0.009000000000000001,-0.009000000000000001,-0.01
2025-11-06 18:37:06.559,284.43,-0.015,-0.016,-0.007,-0.154,-0.9470000000000001,-0.213,24.990000000000002,-19.96,-78.31,-0.6865,0.4879,-0.3889,-0.37320000000000003,-0.007,-0.013000000000000001,-0.008
2025-11-06 18:37:06.559,284.435,-0.02,-0.021,-0.009000000000000001,-0.154,-0.9500000000000001,-0.211,24.990000000000002,-19.96,-78.31,-0.6863,0.4883,-0.38880000000000003,-0.37310000000000004,-0.007,-0.011,-0.009000000000000001
2025-11-06 18:37:06.559,284.44,-0.02,-0.022,-0.006,-0.156,-0.9520000000000001,-0.209,24.990000000000002,-19.96,-78.31,-0.6861,0.4887,-0.38870000000000005,-0.3729,-0.005,-0.009000000000000001,-0.011
2025-11-06 18:37:06.559,284.445,-0.02,-0.028,-0.01,-0.16,-0.9530000000000001,-0.20800000000000002,23.580000000000002,-20.28,-78.63,-0.686,0.48900000000000005,-0.38880000000000003,-0.37260000000000004,-0.001,-0.008,-0.011
2025-11-06 18:37:06.559,284.45,-0.023,-0.036000000000000004,-0.009000000000000001,-0.165,-0.9530000000000001,-0.20600000000000002,23.580000000000002,-20.28,-78.63,-0.686,0.4893,-0.389,-0.37210000000000004,0.003,-0.008,-0.012
2025-11-06 18:37:06.559,284.455,-0.025,-0.04,-0.009000000000000001,-0.17,-0.9520000000000001,-0.201,24.02,-22.740000000000002,-78.95,-0.6859000000000001,0.4897,-0.38930000000000003,-0.3714,0.007,-0.01,-0.016
2025-11-06 18:37:06.559,284.46,-0.031,-0.05,-0.01,-0.17500000000000002,-0.9460000000000001,-0.198,24.02,-22.740000000000002,-78.95,-0.686,0.49000000000000005,-0.38980000000000004,-0.3705,0.01,-0.016,-0.017
2025-11-06 18:37:06.559,284.465,-0.033,-0.055,-0.01,-0.177,-0.9460000000000001,-0.199,24.02,-22.740000000000002,-78.95,-0.6861,0.4902,-0.3902,-0.36960000000000004,0.011,-0.016,-0.016
2025-11-06 18:37:06.559,284.47,-0.031,-0.067,-0.009000000000000001,-0.178,-0.9450000000000001,-0.202,24.43,-20.16,-78.48,-0.6862,0.4902,-0.3907,-0.3689,0.011,-0.017,-0.012
2025-11-06 18:37:06.559,284.475,-0.03,-0.07200000000000001,-0.01,-0.179,-0.9460000000000001,-0.203,24.43,-20.16,-78.48,-0.6863,0.49010000000000004,-0.3911,-0.3683,0.01,-0.015,-0.01
2025-11-06 18:37:06.559,284.48,-0.03,-0.078,-0.011,-0.181,-0.9470000000000001,-0.202,24.05,-23.150000000000002,-78.42,-0.6864,0.49010000000000004,-0.3916,-0.3677,0.011,-0.014,-0.01
2025-11-06 18:37:06.559,284.485,-0.028,-0.081,-0.013000000000000001,-0.183,-0.9480000000000001,-0.198,24.05,-23.150000000000002,-78.42,-0.6864,0.4902,-0.3921,-0.367,0.012,-0.013000000000000001,-0.014
2025-11-06 18:37:06.559,284.49,-0.025,-0.08,-0.015,-0.185,-0.9500000000000001,-0.196,24.05,-23.150000000000002,-78.42,-0.6863,0.4903,-0.3927,-0.3663,0.012,-0.011,-0.015
2025-11-06 18:37:06.559,284.495,-0.023,-0.079,-0.017,-0.189,-0.9510000000000001,-0.197,24.2,-19.7,-78.98,-0.6864,0.4903,-0.39330000000000004,-0.3655,0.015,-0.01,-0.012
2025-11-06 18:37:06.559,284.5,-0.02,-0.073,-0.015,-0.191,-0.9500000000000001,-0.2,24.2,-19.7,-78.98,-0.6865,0.4902,-0.39390000000000003,-0.3647,0.015,-0.011,-0.009000000000000001
2025-11-06 18:37:06.559,284.505,-0.015,-0.066,-0.01,-0.195,-0.9480000000000001,-0.20400000000000001,24.05,-19.67,-78.71000000000001,-0.6869000000000001,0.49000000000000005,-0.39430000000000004,-0.3639,0.017,-0.012,-0.004
2025-11-06 18:37:06.559,284.51,-0.014,-0.058,-0.011,-0.197,-0.9460000000000001,-0.20800000000000002,24.05,-19.67,-78.71000000000001,-0.6873,0.48960000000000004,-0.3947,-0.36310000000000003,0.018000000000000002,-0.014,-0.001
2025-11-06 18:37:06.559,284.515,-0.012,-0.058,-0.009000000000000001,-0.198,-0.9440000000000001,-0.212,24.05,-19.67,-78.71000000000001,-0.6879000000000001,0.48910000000000003,-0.395,-0.3624,0.016,-0.016,0.002
2025-11-06 18:37:06.559,284.52,-0.005,-0.056,-0.008,-0.199,-0.9440000000000001,-0.211,25.080000000000002,-20.6,-78.83,-0.6884,0.4887,-0.39530000000000004,-0.3617,0.016,-0.015,0.001
2025-11-06 18:37:06.559,284.525,-0.001,-0.054,-0.007,-0.199,-0.9440000000000001,-0.213,25.080000000000002,-20.6,-78.83,-0.6889000000000001,0.4883,-0.3955,-0.36110000000000003,0.015,-0.015,0.002
2025-11-06 18:37:06.559,284.53,0.008,-0.048,-0.005,-0.202,-0.9460000000000001,-0.215,23.64,-19.990000000000002,-79.18,-0.6894,0.4879,-0.3957,-0.3604,0.016,-0.013000000000000001,0.004
2025-11-06 18:37:06.559,284.535,0.014,-0.048,-0.002,-0.2,-0.9470000000000001,-0.217,23.64,-19.990000000000002,-79.18,-0.6899000000000001,0.4874,-0.39590000000000003,-0.3599,0.012,-0.012,0.005
2025-11-06 18:37:06.559,284.54,0.016,-0.045,-0.003,-0.198,-0.9480000000000001,-0.219,24.17,-19.87,-78.86,-0.6903,0.48710000000000003,-0.39590000000000003,-0.35950000000000004,0.009000000000000001,-0.01,0.007
2025-11-06 18:37:06.559,284.545,0.017,-0.042,-0.004,-0.198,-0.9520000000000001,-0.221,24.17,-19.87,-78.86,-0.6908000000000001,0.4867,-0.39590000000000003,-0.3592,0.008,-0.006,0.008
2025-11-06 18:37:06.559,284.55,0.021,-0.042,-0.003,-0.199,-0.9560000000000001,-0.22,24.17,-19.87,-78.86,-0.6911,0.4864,-0.39590000000000003,-0.3589,0.009000000000000001,-0.001,0.007
2025-11-06 18:37:06.559,284.555,0.015,-0.041,-0.004,-0.201,-0.9580000000000001,-0.22,23.94,-19.61,-78.8,-0.6914,0.48610000000000003,-0.396,-0.35860000000000003,0.009000000000000001,0.0,0.006
2025-11-06 18:37:06.562,284.56,0.009000000000000001,-0.04,-0.004,-0.20400000000000001,-0.9570000000000001,-0.219,23.94,-19.61,-78.8,-0.6917,0.4858,-0.3962,-0.3583,0.012,0.0,0.005
2025-11-06 18:37:06.562,284.565,0.004,-0.037,-0.004,-0.209,-0.9540000000000001,-0.215,24.14,-19.84,-79.94,-0.6919000000000001,0.4854,-0.3967,-0.3579,0.015,-0.002,0.001
2025-11-06 18:37:06.562,284.57,-0.003,-0.037,-0.003,-0.212,-0.9510000000000001,-0.213,24.14,-19.84,-79.94,-0.6921,0.48500000000000004,-0.3972,-0.3574,0.017,-0.006,0.0
2025-11-06 18:37:06.562,284.575,-0.009000000000000001,-0.031,-0.005,-0.212,-0.9470000000000001,-0.217,24.14,-19.84,-79.94,-0.6925,0.48450000000000004,-0.3976,-0.3569,0.015,-0.009000000000000001,0.002
2025-11-06 18:37:06.562,284.58,-0.014,-0.023,-0.005,-0.215,-0.9440000000000001,-0.218,23.5,-20.28,-78.86,-0.6930000000000001,0.48400000000000004,-0.39790000000000003,-0.3564,0.016,-0.011,0.003
2025-11-06 18:37:06.562,284.585,-0.012,-0.014,-0.01,-0.212,-0.9460000000000001,-0.218,23.5,-20.28,-78.86,-0.6933,0.48360000000000003,-0.3981,-0.35600000000000004,0.012,-0.008,0.002
2025-11-06 18:37:06.562,284.59,-0.011,-0.007,-0.009000000000000001,-0.213,-0.9480000000000001,-0.219,23.64,-20.25,-78.83,-0.6937,0.4832,-0.3982,-0.3556,0.012,-0.006,0.003
2025-11-06 18:37:06.562,284.595,-0.009000000000000001,-0.001,-0.011,-0.214,-0.9490000000000001,-0.218,23.64,-20.25,-78.83,-0.6940000000000001,0.4829,-0.3985,-0.3553,0.012,-0.005,0.002
2025-11-06 18:37:06.562,284.6,-0.006,-0.001,-0.012,-0.213,-0.9470000000000001,-0.217,23.64,-20.25,-78.83,-0.6942,0.48260000000000003,-0.3987,-0.35500000000000004,0.009000000000000001,-0.007,0.001
2025-11-06 18:37:06.562,284.605,-0.002,0.0,-0.007,-0.211,-0.9460000000000001,-0.219,23.85,-19.96,-78.8,-0.6945,0.4824,-0.39880000000000004,-0.3547,0.007,-0.007,0.002
2025-11-06 18:37:06.562,284.61,0.001,0.0,-0.009000000000000001,-0.209,-0.9460000000000001,-0.222,23.85,-19.96,-78.8,-0.6948000000000001,0.48210000000000003,-0.3987,-0.35450000000000004,0.004,-0.007,0.005
2025-11-06 18:37:06.562,284.615,0.001,-0.002,-0.006,-0.20600000000000002,-0.9470000000000001,-0.225,23.64,-20.19,-78.98,-0.6952,0.48200000000000004,-0.39840000000000003,-0.3543,0.001,-0.006,0.007
2025-11-06 18:37:06.562,284.62,0.006,-0.007,-0.003,-0.203,-0.9490000000000001,-0.226,23.64,-20.19,-78.98,-0.6955,0.48190000000000005,-0.398,-0.3542,-0.002,-0.004,0.007
2025-11-06 18:37:06.562,284.625,0.006,-0.011,-0.002,-0.202,-0.9530000000000001,-0.223,24.17,-20.25,-78.77,-0.6956,0.48190000000000005,-0.39780000000000004,-0.3542,-0.002,0.0,0.004
2025-11-06 18:37:06.562,284.63,0.006,-0.01,-0.001,-0.198,-0.9540000000000001,-0.225,24.17,-20.25,-78.77,-0.6957,0.48200000000000004,-0.39740000000000003,-0.3543,-0.006,0.0,0.005
2025-11-06 18:37:06.562,284.635,0.003,-0.014,-0.002,-0.197,-0.9530000000000001,-0.226,24.17,-20.25,-78.77,-0.6959000000000001,0.48200000000000004,-0.39690000000000003,-0.3544,-0.006,0.0,0.006
2025-11-06 18:37:06.562,284.64,0.002,-0.014,-0.001,-0.194,-0.9540000000000001,-0.225,24.46,-21.740000000000002,-78.33,-0.6960000000000001,0.4822,-0.3965,-0.3546,-0.008,0.0,0.004
2025-11-06 18:37:06.562,284.645,0.004,-0.006,-0.002,-0.192,-0.9530000000000001,-0.23,24.46,-21.740000000000002,-78.33,-0.6962,0.4823,-0.39590000000000003,-0.3547,-0.009000000000000001,0.0,0.008
2025-11-06 18:37:06.562,284.65,0.0,-0.003,-0.002,-0.187,-0.9500000000000001,-0.234,24.43,-19.78,-78.28,-0.6965,0.4824,-0.3951,-0.3549,-0.013000000000000001,-0.003,0.011
2025-11-06 18:37:06.562,284.655,0.0,0.0,-0.004,-0.189,-0.9510000000000001,-0.23500000000000001,24.43,-19.78,-78.28,-0.6968000000000001,0.4824,-0.39430000000000004,-0.3551,-0.01,-0.002,0.011
2025-11-06 18:37:06.562,284.66,-0.003,0.003,-0.003,-0.187,-0.9510000000000001,-0.23600000000000002,24.43,-19.78,-78.28,-0.6971,0.48250000000000004,-0.3936,-0.3553,-0.011,-0.002,0.011
2025-11-06 18:37:06.562,284.665,-0.006,0.008,-0.007,-0.189,-0.9540000000000001,-0.233,23.56,-19.52,-78.86,-0.6973,0.48250000000000004,-0.393,-0.3554,-0.008,0.0,0.008
2025-11-06 18:37:06.562,284.67,-0.006,0.009000000000000001,-0.006,-0.187,-0.9520000000000001,-0.23,23.56,-19.52,-78.86,-0.6974,0.4827,-0.3925,-0.3556,-0.009000000000000001,-0.001,0.004
2025-11-06 18:37:06.562,284.675,-0.014,0.014,-0.006,-0.183,-0.9470000000000001,-0.229,24.2,-20.05,-79.09,-0.6975,0.4829,-0.3919,-0.3558,-0.013000000000000001,-0.006,0.002
2025-11-06 18:37:06.562,284.68,-0.019,0.019,-0.005,-0.182,-0.9450000000000001,-0.226,24.2,-20.05,-79.09,-0.6975,0.4832,-0.3914,-0.3559,-0.012,-0.008,0.0
2025-11-06 18:37:06.562,284.685,-0.022,0.02,-0.005,-0.177,-0.9440000000000001,-0.224,24.2,-20.05,-79.09,-0.6974,0.48360000000000003,-0.39080000000000004,-0.3561,-0.015,-0.01,-0.002
2025-11-06 18:37:06.562,284.69,-0.024,0.016,-0.004,-0.17300000000000001,-0.9430000000000001,-0.225,23.96,-19.87,-78.45,-0.6974,0.48400000000000004,-0.3901,-0.3564,-0.018000000000000002,-0.011,-0.002
2025-11-06 18:37:06.562,284.695,-0.023,0.011,-0.001,-0.166,-0.9440000000000001,-0.225,23.96,-19.87,-78.45,-0.6973,0.48450000000000004,-0.38930000000000003,-0.3568,-0.023,-0.009000000000000001,-0.002
2025-11-06 18:37:06.562,284.7,-0.023,0.005,-0.001,-0.163,-0.9450000000000001,-0.223,24.17,-19.23,-78.71000000000001,-0.6971,0.4852,-0.3885,-0.35710000000000003,-0.024,-0.009000000000000001,-0.004
2025-11-06 18:37:06.562,284.705,-0.023,0.003,0.0,-0.163,-0.9460000000000001,-0.222,24.17,-19.23,-78.71000000000001,-0.6969000000000001,0.4858,-0.38780000000000003,-0.3574,-0.022,-0.008,-0.005
2025-11-06 18:37:06.562,284.71,-0.02,-0.003,0.001,-0.162,-0.9490000000000001,-0.22,24.080000000000002,-19.55,-77.52,-0.6967,0.48650000000000004,-0.3871,-0.3577,-0.021,-0.006,-0.006
2025-11-06 18:37:06.562,284.715,-0.019,-0.01,0.005,-0.162,-0.9500000000000001,-0.222,24.080000000000002,-19.55,-77.52,-0.6965,0.48700000000000004,-0.3865,-0.35800000000000004,-0.02,-0.005,-0.004
2025-11-06 18:37:06.562,284.72,-0.014,-0.022,0.005,-0.161,-0.9490000000000001,-0.222,24.080000000000002,-19.55,-77.52,-0.6963,0.48750000000000004,-0.3859,-0.3583,-0.019,-0.007,-0.004
2025-11-06 18:37:06.562,284.725,-0.012,-0.03,0.005,-0.16,-0.9480000000000001,-0.222,24.02,-20.66,-78.10000000000001,-0.6961,0.48800000000000004,-0.3854,-0.35860000000000003,-0.019,-0.008,-0.004
2025-11-06 18:37:06.562,284.73,-0.008,-0.029,0.006,-0.158,-0.9450000000000001,-0.217,24.02,-20.66,-78.10000000000001,-0.6958000000000001,0.48860000000000003,-0.385,-0.3588,-0.019,-0.011,-0.008
2025-11-06 18:37:06.562,284.735,-0.011,-0.029,0.006,-0.162,-0.9450000000000001,-0.216,24.26,-21.13,-78.95,-0.6956,0.48910000000000003,-0.38470000000000004,-0.3589,-0.015,-0.012,-0.009000000000000001
2025-11-06 18:37:06.562,284.74,-0.012,-0.028,0.0,-0.165,-0.9450000000000001,-0.211,24.26,-21.13,-78.95,-0.6953,0.4897,-0.3845,-0.3587,-0.011,-0.012,-0.014
2025-11-06 18:37:06.562,284.745,-0.006,-0.018000000000000002,-0.003,-0.168,-0.9470000000000001,-0.20700000000000002,24.26,-21.13,-78.95,-0.6950000000000001,0.4904,-0.3845,-0.3584,-0.007,-0.011,-0.016
2025-11-06 18:37:06.562,284.75,-0.004,-0.013000000000000001,-0.006,-0.17200000000000001,-0.9500000000000001,-0.20400000000000001,23.94,-19.7,-78.51,-0.6947,0.49110000000000004,-0.3846,-0.35800000000000004,-0.003,-0.008,-0.018000000000000002
2025-11-06 18:37:06.562,284.755,-0.006,-0.002,-0.009000000000000001,-0.178,-0.9530000000000001,-0.198,23.94,-19.7,-78.51,-0.6944,0.4918,-0.38480000000000003,-0.3572,0.002,-0.005,-0.022
2025-11-06 18:37:06.562,284.76,-0.008,0.002,-0.012,-0.182,-0.9560000000000001,-0.194,23.96,-20.25,-78.98,-0.6941,0.49260000000000004,-0.38520000000000004,-0.3563,0.005,-0.003,-0.024
2025-11-06 18:37:06.562,284.765,-0.011,0.01,-0.016,-0.186,-0.9570000000000001,-0.192,23.96,-20.25,-78.98,-0.6939000000000001,0.4933,-0.3856,-0.3553,0.009000000000000001,-0.002,-0.023
2025-11-06 18:37:06.562,284.77,-0.011,0.014,-0.017,-0.19,-0.9550000000000001,-0.193,23.96,-20.25,-78.98,-0.6938000000000001,0.4938,-0.3861,-0.3543,0.012,-0.004,-0.021
2025-11-06 18:37:06.562,284.775,-0.011,0.017,-0.017,-0.191,-0.9540000000000001,-0.196,24.080000000000002,-20.46,-78.16,-0.6938000000000001,0.49420000000000003,-0.3865,-0.3534,0.012,-0.006,-0.017
2025-11-06 18:37:06.562,284.78,-0.008,0.013000000000000001,-0.016,-0.194,-0.9520000000000001,-0.2,24.080000000000002,-20.46,-78.16,-0.6938000000000001,0.4944,-0.3869,-0.3526,0.013000000000000001,-0.007,-0.011
2025-11-06 18:37:06.562,284.785,-0.005,0.013000000000000001,-0.015,-0.195,-0.9490000000000001,-0.20700000000000002,24.2,-20.66,-78.66,-0.6941,0.4943,-0.3871,-0.3519,0.013000000000000001,-0.01,-0.004
2025-11-06 18:37:06.562,284.79,-0.003,0.017,-0.015,-0.198,-0.9470000000000001,-0.211,24.2,-20.66,-78.66,-0.6945,0.49400000000000005,-0.3874,-0.3512,0.015,-0.012,0.0
2025-11-06 18:37:06.562,284.795,-0.003,0.017,-0.013000000000000001,-0.195,-0.9460000000000001,-0.218,24.23,-19.73,-78.60000000000001,-0.6950000000000001,0.49360000000000004,-0.3874,-0.3508,0.01,-0.013000000000000001,0.005
2025-11-06 18:37:06.562,284.8,0.002,0.021,-0.015,-0.196,-0.9420000000000001,-0.221,24.23,-19.73,-78.60000000000001,-0.6955,0.49310000000000004,-0.3874,-0.3504,0.01,-0.016,0.007
2025-11-06 18:37:06.562,284.805,0.007,0.021,-0.013000000000000001,-0.193,-0.9400000000000001,-0.223,24.23,-19.73,-78.60000000000001,-0.6960000000000001,0.4927,-0.38730000000000003,-0.3502,0.007,-0.018000000000000002,0.008
2025-11-06 18:37:06.562,284.81,0.013000000000000001,0.029,-0.012,-0.194,-0.9430000000000001,-0.224,24.2,-22.27,-78.19,-0.6965,0.4923,-0.38720000000000004,-0.34990000000000004,0.007,-0.014,0.008
2025-11-06 18:37:06.562,284.815,0.017,0.036000000000000004,-0.009000000000000001,-0.192,-0.9450000000000001,-0.226,24.2,-22.27,-78.19,-0.6970000000000001,0.4919,-0.387,-0.3497,0.004,-0.012,0.009000000000000001
2025-11-06 18:37:06.562,284.82,0.018000000000000002,0.037,-0.008,-0.192,-0.9490000000000001,-0.227,24.37,-19.29,-78.42,-0.6974,0.49160000000000004,-0.38680000000000003,-0.3496,0.004,-0.008,0.009000000000000001
2025-11-06 18:37:06.562,284.825,0.013000000000000001,0.038,-0.004,-0.191,-0.9520000000000001,-0.226,24.37,-19.29,-78.42,-0.6977,0.4913,-0.3866,-0.34950000000000003,0.002,-0.005,0.008
2025-11-06 18:37:06.562,284.83,0.007,0.035,-0.001,-0.19,-0.9540000000000001,-0.225,24.37,-19.29,-78.42,-0.6980000000000001,0.4912,-0.3864,-0.34950000000000003,0.001,-0.003,0.006
2025-11-06 18:37:06.562,284.835,0.001,0.028,0.0,-0.186,-0.9530000000000001,-0.224,24.7,-21.04,-78.31,-0.6981,0.49110000000000004,-0.38620000000000004,-0.34950000000000003,-0.002,-0.003,0.004
2025-11-06 18:37:06.562,284.84,-0.006,0.019,0.0,-0.185,-0.9540000000000001,-0.223,24.7,-21.04,-78.31,-0.6982,0.49100000000000005,-0.3859,-0.3496,-0.003,-0.002,0.003
2025-11-06 18:37:06.562,284.845,-0.008,0.017,0.001,-0.182,-0.9520000000000001,-0.225,24.14,-19.73,-78.31,-0.6984,0.49100000000000005,-0.3856,-0.3497,-0.005,-0.004,0.004
2025-11-06 18:37:06.562,284.85,-0.011,0.01,0.004,-0.183,-0.9510000000000001,-0.223,24.14,-19.73,-78.31,-0.6985,0.49100000000000005,-0.3854,-0.3498,-0.004,-0.005,0.002
2025-11-06 18:37:06.562,284.855,-0.014,0.006,0.004,-0.179,-0.9500000000000001,-0.221,24.14,-19.73,-78.31,-0.6985,0.49100000000000005,-0.38520000000000004,-0.35000000000000003,-0.007,-0.006,0.0
2025-11-06 18:37:06.562,284.86,-0.012,0.01,0.0,-0.178,-0.9490000000000001,-0.219,23.85,-20.05,-78.01,-0.6984,0.4912,-0.3849,-0.3502,-0.008,-0.008,-0.001
2025-11-06 18:37:06.562,284.865,-0.011,0.01,0.0,-0.18,-0.9470000000000001,-0.216,23.85,-20.05,-78.01,-0.6983,0.4913,-0.38480000000000003,-0.3502,-0.005,-0.009000000000000001,-0.004
2025-11-06 18:37:06.562,284.87,-0.011,0.016,-0.001,-0.182,-0.9470000000000001,-0.212,24.17,-20.16,-78.66,-0.6982,0.49150000000000005,-0.3849,-0.3502,-0.004,-0.009000000000000001,-0.008
2025-11-06 18:37:06.562,284.875,-0.009000000000000001,0.027,0.0,-0.184,-0.9490000000000001,-0.20700000000000002,24.17,-20.16,-78.66,-0.6979000000000001,0.4918,-0.385,-0.35000000000000003,-0.001,-0.008,-0.012
