System_Time,Timestamp,Gyro_X,Gyro_Y,Gyro_Z,Acc_X,Acc_Y,Acc_Z,Mag_X,Mag_Y,Mag_Z,Quat_W,Quat_X,Quat_Y,Quat_Z,Linear_Acc_X,Linear_Acc_Y,Linear_Acc_Z
2025-11-06 18:37:40.239,312.26,-0.017,-0.013000000000000001,0.005,-0.183,-0.984,0.067,62.370000000000005,-15.280000000000001,-66.64,-0.2184,0.3568,0.6377,0.6466000000000001,0.0,0.003,0.0
2025-11-06 18:37:40.239,312.265,-0.019,-0.01,0.005,-0.183,-0.983,0.065,63.84,-15.4,-65.79,-0.2185,0.3568,0.6376000000000001,0.6467,0.001,0.002,0.002
2025-11-06 18:37:40.239,312.27,-0.019,-0.003,0.006,-0.186,-0.983,0.065,63.84,-15.4,-65.79,-0.2184,0.3568,0.6374000000000001,0.6469,0.003,0.002,0.002
2025-11-06 18:37:40.239,312.275,-0.016,-0.001,0.008,-0.187,-0.981,0.064,62.370000000000005,-15.43,-64.89,-0.21830000000000002,0.3569,0.6373,0.647,0.003,0.001,0.002
2025-11-06 18:37:40.239,312.28,-0.012,0.007,0.008,-0.19,-0.98,0.065,62.370000000000005,-15.43,-64.89,-0.2182,0.35700000000000004,0.6371,0.6472,0.006,0.0,0.002
2025-11-06 18:37:40.239,312.285,-0.012,0.008,0.008,-0.19,-0.981,0.064,62.370000000000005,-15.43,-64.89,-0.218,0.3572,0.6369,0.6474000000000001,0.006,0.0,0.002
2025-11-06 18:37:40.239,312.29,-0.01,0.008,0.007,-0.191,-0.98,0.064,63.08,-15.17,-66.03,-0.21780000000000002,0.3573,0.6368,0.6475000000000001,0.006,0.0,0.001
2025-11-06 18:37:40.239,312.295,-0.006,0.011,0.006,-0.189,-0.98,0.065,63.08,-15.17,-66.03,-0.21760000000000002,0.3574,0.6367,0.6476000000000001,0.004,0.0,0.0
2025-11-06 18:37:40.239,312.3,-0.005,0.01,0.005,-0.189,-0.977,0.065,62.46,-15.02,-65.53,-0.2175,0.35750000000000004,0.6366,0.6477,0.003,-0.002,0.0
2025-11-06 18:37:40.239,312.305,-0.005,0.007,0.003,-0.187,-0.977,0.067,62.46,-15.02,-65.53,-0.2174,0.35750000000000004,0.6366,0.6477,0.001,-0.002,0.0
2025-11-06 18:37:40.239,312.31,-0.004,0.008,0.001,-0.188,-0.979,0.066,62.730000000000004,-15.55,-65.91,-0.21730000000000002,0.35760000000000003,0.6366,0.6477,0.001,-0.001,0.0
2025-11-06 18:37:40.239,312.315,-0.006,0.006,0.0,-0.188,-0.979,0.069,62.730000000000004,-15.55,-65.91,-0.2172,0.3577,0.6366,0.6476000000000001,0.001,-0.001,-0.003
2025-11-06 18:37:40.239,312.32,-0.008,0.009000000000000001,0.0,-0.188,-0.979,0.07,62.730000000000004,-15.55,-65.91,-0.2172,0.3578,0.6367,0.6475000000000001,0.001,0.0,-0.004
2025-11-06 18:37:40.239,312.325,-0.013000000000000001,0.006,0.001,-0.188,-0.98,0.069,63.43,-15.63,-66.2,-0.21710000000000002,0.3578,0.6367,0.6475000000000001,0.001,0.0,-0.002
2025-11-06 18:37:40.239,312.33,-0.015,0.01,-0.001,-0.188,-0.983,0.069,63.43,-15.63,-66.2,-0.21710000000000002,0.3579,0.6367,0.6475000000000001,0.001,0.003,-0.002
2025-11-06 18:37:40.239,312.335,-0.014,0.007,0.002,-0.188,-0.985,0.067,61.88,-14.96,-66.61,-0.217,0.3579,0.6367,0.6475000000000001,0.001,0.005,0.0
2025-11-06 18:37:40.239,312.34,-0.013000000000000001,0.012,0.001,-0.189,-0.983,0.069,61.88,-14.96,-66.61,-0.217,0.3579,0.6367,0.6475000000000001,0.002,0.003,-0.002
2025-11-06 18:37:40.239,312.345,-0.014,0.013000000000000001,0.004,-0.19,-0.985,0.068,61.88,-14.96,-66.61,-0.2169,0.35800000000000004,0.6367,0.6475000000000001,0.003,0.005,-0.001
2025-11-06 18:37:40.239,312.35,-0.011,0.011,0.004,-0.191,-0.984,0.066,62.35,-15.46,-65.82000000000001,-0.21680000000000002,0.35800000000000004,0.6366,0.6476000000000001,0.003,0.004,0.0
2025-11-06 18:37:40.239,312.355,-0.009000000000000001,0.013000000000000001,0.005,-0.19,-0.985,0.066,62.35,-15.46,-65.82000000000001,-0.2167,0.35800000000000004,0.6365000000000001,0.6477,0.002,0.005,0.0
2025-11-06 18:37:40.239,312.36,-0.006,0.018000000000000002,0.007,-0.19,-0.983,0.064,62.230000000000004,-15.98,-66.29,-0.21660000000000001,0.35800000000000004,0.6365000000000001,0.6478,0.002,0.003,0.001
2025-11-06 18:37:40.240,312.365,-0.006,0.024,0.006,-0.19,-0.982,0.063,62.230000000000004,-15.98,-66.29,-0.21660000000000001,0.35800000000000004,0.6363,0.648,0.001,0.003,0.003
2025-11-06 18:37:40.240,312.37,0.0,0.023,0.006,-0.19,-0.979,0.065,63.43,-15.72,-65.71000000000001,-0.2165,0.35800000000000004,0.6363,0.648,0.001,0.0,0.001
2025-11-06 18:37:40.240,312.375,-0.002,0.028,0.003,-0.189,-0.979,0.066,63.43,-15.72,-65.71000000000001,-0.2164,0.35800000000000004,0.6363,0.6481,0.001,0.0,0.0
2025-11-06 18:37:40.240,312.38,-0.002,0.021,0.003,-0.187,-0.977,0.07,63.43,-15.72,-65.71000000000001,-0.21630000000000002,0.35800000000000004,0.6364000000000001,0.648,0.0,-0.002,-0.003
2025-11-06 18:37:40.240,312.385,0.0,0.021,0.001,-0.185,-0.978,0.07200000000000001,62.17,-15.46,-65.62,-0.21630000000000002,0.35800000000000004,0.6366,0.6477,-0.002,0.0,-0.006
2025-11-06 18:37:40.240,312.39,-0.004,0.015,0.001,-0.185,-0.98,0.078,62.17,-15.46,-65.62,-0.21630000000000002,0.35810000000000003,0.6369,0.6474000000000001,-0.002,0.0,-0.01
2025-11-06 18:37:40.240,312.395,-0.01,0.015,-0.001,-0.185,-0.98,0.079,62.14,-15.31,-65.82000000000001,-0.2162,0.3582,0.6373,0.6471,-0.002,0.0,-0.01
2025-11-06 18:37:40.240,312.4,-0.017,0.017,-0.002,-0.183,-0.98,0.078,62.14,-15.31,-65.82000000000001,-0.21630000000000002,0.3582,0.6375000000000001,0.6468,-0.004,0.001,-0.009000000000000001
2025-11-06 18:37:40.240,312.405,-0.019,0.024,-0.002,-0.184,-0.98,0.075,62.14,-15.31,-65.82000000000001,-0.21630000000000002,0.35810000000000003,0.6377,0.6466000000000001,-0.002,0.0,-0.005
2025-11-06 18:37:40.240,312.41,-0.02,0.03,-0.002,-0.181,-0.981,0.069,62.26,-15.200000000000001,-65.65,-0.2165,0.3579,0.6378,0.6466000000000001,-0.005,0.002,0.0
2025-11-06 18:37:40.240,312.415,-0.02,0.04,0.0,-0.184,-0.982,0.064,62.26,-15.200000000000001,-65.65,-0.21660000000000001,0.3577,0.6377,0.6468,-0.002,0.002,0.005
2025-11-06 18:37:40.240,312.42,-0.016,0.036000000000000004,0.001,-0.184,-0.983,0.06,62.2,-15.58,-66.17,-0.2167,0.3574,0.6375000000000001,0.6471,-0.001,0.003,0.007
2025-11-06 18:37:40.240,312.425,-0.012,0.036000000000000004,0.0,-0.186,-0.982,0.058,62.2,-15.58,-66.17,-0.21680000000000002,0.3572,0.6372,0.6474000000000001,0.0,0.002,0.008
2025-11-06 18:37:40.240,312.43,-0.01,0.032,0.001,-0.187,-0.982,0.058,62.370000000000005,-15.84,-66.12,-0.21680000000000002,0.35710000000000003,0.637,0.6478,0.0,0.001,0.008
2025-11-06 18:37:40.240,312.435,-0.008,0.024,0.003,-0.188,-0.981,0.057,62.370000000000005,-15.84,-66.12,-0.21680000000000002,0.3569,0.6367,0.6481,0.002,0.001,0.008
2025-11-06 18:37:40.240,312.44,-0.007,0.018000000000000002,0.004,-0.187,-0.98,0.059000000000000004,62.370000000000005,-15.84,-66.12,-0.21680000000000002,0.3569,0.6365000000000001,0.6483,0.001,0.0,0.006
2025-11-06 18:37:40.240,312.445,-0.005,0.021,0.006,-0.186,-0.98,0.061,62.93,-15.31,-66.12,-0.21680000000000002,0.3568,0.6364000000000001,0.6485000000000001,0.0,0.0,0.003
2025-11-06 18:37:40.240,312.45,-0.002,0.013000000000000001,0.006,-0.188,-0.981,0.06,62.93,-15.31,-66.12,-0.2167,0.3567,0.6363,0.6486000000000001,0.001,0.001,0.003
2025-11-06 18:37:40.240,312.455,-0.002,0.013000000000000001,0.003,-0.186,-0.983,0.065,62.78,-15.66,-65.41,-0.2167,0.3567,0.6363,0.6486000000000001,0.0,0.002,-0.001
2025-11-06 18:37:40.240,312.46,-0.003,0.02,0.0,-0.185,-0.984,0.066,62.78,-15.66,-65.41,-0.21680000000000002,0.35660000000000003,0.6364000000000001,0.6486000000000001,-0.001,0.004,-0.001
2025-11-06 18:37:40.240,312.465,-0.005,0.02,0.0,-0.185,-0.983,0.067,64.13,-15.81,-65.18,-0.2167,0.35660000000000003,0.6365000000000001,0.6485000000000001,0.0,0.003,-0.003
2025-11-06 18:37:40.240,312.47,-0.006,0.021,0.0,-0.184,-0.982,0.07,64.13,-15.81,-65.18,-0.2167,0.35660000000000003,0.6367,0.6483,-0.002,0.002,-0.005
2025-11-06 18:37:40.240,312.475,-0.01,0.022,0.001,-0.183,-0.982,0.069,64.13,-15.81,-65.18,-0.2167,0.35650000000000004,0.6368,0.6482,-0.002,0.002,-0.003
2025-11-06 18:37:40.240,312.48,-0.01,0.021,0.0,-0.183,-0.981,0.07,62.2,-15.49,-65.82000000000001,-0.2167,0.35650000000000004,0.637,0.6481,-0.002,0.001,-0.004
2025-11-06 18:37:40.240,312.485,-0.012,0.021,0.001,-0.183,-0.98,0.068,62.2,-15.49,-65.82000000000001,-0.21680000000000002,0.3564,0.6371,0.648,-0.002,0.0,-0.002
2025-11-06 18:37:40.240,312.49,-0.014,0.023,0.0,-0.183,-0.983,0.068,63.08,-15.43,-66.26,-0.21680000000000002,0.3564,0.6372,0.648,-0.001,0.002,-0.002
2025-11-06 18:37:40.240,312.495,-0.014,0.024,0.0,-0.183,-0.983,0.069,63.08,-15.43,-66.26,-0.21680000000000002,0.3563,0.6373,0.6479,-0.002,0.003,-0.003
2025-11-06 18:37:40.241,312.5,-0.014,0.024,0.0,-0.183,-0.982,0.069,63.08,-15.43,-66.26,-0.21680000000000002,0.3562,0.6374000000000001,0.6478,-0.001,0.002,-0.002
2025-11-06 18:37:40.241,312.505,-0.015,0.027,0.0,-0.182,-0.983,0.067,61.85,-14.99,-66.29,-0.2169,0.3561,0.6374000000000001,0.6478,-0.002,0.003,0.0
2025-11-06 18:37:40.241,312.51,-0.014,0.028,0.0,-0.181,-0.981,0.064,61.85,-14.99,-66.29,-0.217,0.3559,0.6374000000000001,0.6479,-0.003,0.001,0.001
2025-11-06 18:37:40.241,312.515,-0.016,0.022,0.001,-0.18,-0.981,0.063,61.7,-15.52,-65.53,-0.21710000000000002,0.3557,0.6374000000000001,0.648,-0.003,0.001,0.002
2025-11-06 18:37:40.241,312.52,-0.018000000000000002,0.021,0.001,-0.179,-0.982,0.064,61.7,-15.52,-65.53,-0.21730000000000002,0.3556,0.6374000000000001,0.648,-0.004,0.002,0.001
2025-11-06 18:37:40.241,312.525,-0.02,0.017,0.003,-0.18,-0.985,0.063,62.43,-15.4,-65.79,-0.2174,0.3554,0.6374000000000001,0.6481,-0.003,0.004,0.002
2025-11-06 18:37:40.241,312.53,-0.021,0.01,0.002,-0.179,-0.983,0.066,62.43,-15.4,-65.79,-0.2175,0.3553,0.6374000000000001,0.6481,-0.003,0.003,-0.001
2025-11-06 18:37:40.241,312.535,-0.02,0.001,0.003,-0.179,-0.984,0.067,62.43,-15.4,-65.79,-0.21760000000000002,0.3552,0.6375000000000001,0.648,-0.003,0.003,-0.002
2025-11-06 18:37:40.241,312.54,-0.018000000000000002,-0.007,0.004,-0.176,-0.983,0.068,62.17,-15.55,-66.0,-0.21780000000000002,0.35500000000000004,0.6377,0.6478,-0.005,0.002,-0.003
2025-11-06 18:37:40.241,312.545,-0.019,-0.005,0.004,-0.176,-0.984,0.067,62.17,-15.55,-66.0,-0.218,0.3549,0.6378,0.6477,-0.005,0.003,-0.002
2025-11-06 18:37:40.241,312.55,-0.022,0.001,0.004,-0.17500000000000002,-0.986,0.065,62.64,-15.63,-65.88,-0.2182,0.3547,0.6378,0.6477,-0.005,0.005,0.0
2025-11-06 18:37:40.241,312.555,-0.024,0.006,0.003,-0.17500000000000002,-0.987,0.061,62.64,-15.63,-65.88,-0.2185,0.35450000000000004,0.6378,0.6478,-0.005,0.005,0.003
2025-11-06 18:37:40.241,312.56,-0.025,0.011,0.005,-0.176,-0.984,0.058,62.64,-15.63,-65.88,-0.2187,0.3543,0.6376000000000001,0.648,-0.003,0.003,0.005
2025-11-06 18:37:40.241,312.565,-0.024,0.009000000000000001,0.006,-0.176,-0.984,0.056,62.43,-15.63,-65.97,-0.2189,0.3541,0.6374000000000001,0.6482,-0.003,0.003,0.006
2025-11-06 18:37:40.241,312.57,-0.022,0.009000000000000001,0.005,-0.178,-0.984,0.058,62.43,-15.63,-65.97,-0.21910000000000002,0.3539,0.6373,0.6484,-0.001,0.002,0.005
2025-11-06 18:37:40.241,312.575,-0.016,0.007,0.006,-0.178,-0.985,0.06,62.550000000000004,-15.200000000000001,-66.35,-0.2192,0.3538,0.6372,0.6485000000000001,-0.001,0.003,0.002
2025-11-06 18:37:40.241,312.58,-0.014,0.005,0.008,-0.18,-0.984,0.06,62.550000000000004,-15.200000000000001,-66.35,-0.2192,0.3538,0.6371,0.6486000000000001,0.001,0.002,0.001
2025-11-06 18:37:40.241,312.585,-0.017,0.004,0.005,-0.182,-0.981,0.06,62.050000000000004,-15.34,-65.77,-0.21910000000000002,0.3539,0.637,0.6487,0.002,0.0,0.001
2025-11-06 18:37:40.241,312.59,-0.013000000000000001,0.005,0.006,-0.182,-0.979,0.059000000000000004,62.050000000000004,-15.34,-65.77,-0.21910000000000002,0.3539,0.6368,0.6489,0.002,-0.001,0.002
2025-11-06 18:37:40.241,312.595,-0.01,0.001,0.006,-0.183,-0.979,0.062,62.050000000000004,-15.34,-65.77,-0.2189,0.35400000000000004,0.6367,0.6489,0.003,-0.001,0.0
2025-11-06 18:37:40.241,312.6,-0.01,-0.001,0.005,-0.184,-0.98,0.064,63.980000000000004,-15.55,-65.68,-0.21880000000000002,0.3542,0.6367,0.6489,0.003,0.0,-0.002
2025-11-06 18:37:40.241,312.605,-0.004,-0.003,0.006,-0.184,-0.979,0.068,63.980000000000004,-15.55,-65.68,-0.21860000000000002,0.3544,0.6368,0.6488,0.003,-0.001,-0.005
2025-11-06 18:37:40.241,312.61,-0.006,-0.006,0.004,-0.184,-0.981,0.068,62.370000000000005,-15.17,-65.59,-0.2185,0.35450000000000004,0.6369,0.6486000000000001,0.002,0.0,-0.006
2025-11-06 18:37:40.241,312.615,-0.009000000000000001,-0.011,0.004,-0.184,-0.981,0.068,62.370000000000005,-15.17,-65.59,-0.21830000000000002,0.3547,0.637,0.6485000000000001,0.002,0.0,-0.005
2025-11-06 18:37:40.241,312.62,-0.013000000000000001,-0.015,0.004,-0.183,-0.982,0.067,62.370000000000005,-15.17,-65.59,-0.21830000000000002,0.3548,0.6371,0.6484,0.001,0.001,-0.003
2025-11-06 18:37:40.241,312.625,-0.017,-0.019,0.003,-0.183,-0.983,0.066,62.75,-15.4,-66.0,-0.21830000000000002,0.3549,0.6371,0.6483,0.001,0.002,-0.002
2025-11-06 18:37:40.241,312.63,-0.022,-0.024,0.002,-0.181,-0.984,0.063,62.75,-15.4,-66.0,-0.2184,0.3549,0.637,0.6484,0.0,0.003,0.0
2025-11-06 18:37:40.241,312.635,-0.027,-0.026000000000000002,0.001,-0.181,-0.986,0.058,62.14,-15.55,-65.79,-0.2185,0.3548,0.6369,0.6485000000000001,0.0,0.004,0.005
2025-11-06 18:37:40.241,312.64,-0.025,-0.018000000000000002,0.002,-0.179,-0.985,0.054,62.14,-15.55,-65.79,-0.21880000000000002,0.3546,0.6366,0.6488,-0.002,0.004,0.007
2025-11-06 18:37:40.241,312.645,-0.025,-0.011,0.002,-0.18,-0.984,0.051000000000000004,62.43,-15.84,-66.61,-0.219,0.3544,0.6363,0.6491,0.0,0.003,0.009000000000000001
2025-11-06 18:37:40.241,312.65,-0.019,-0.005,0.003,-0.181,-0.984,0.052000000000000005,62.43,-15.84,-66.61,-0.21910000000000002,0.3543,0.6361,0.6494,0.0,0.003,0.008
2025-11-06 18:37:40.241,312.655,-0.017,-0.005,0.003,-0.182,-0.983,0.053,62.43,-15.84,-66.61,-0.2192,0.3542,0.6358,0.6496000000000001,0.0,0.002,0.006
2025-11-06 18:37:40.241,312.66,-0.012,0.004,0.003,-0.185,-0.982,0.053,63.11,-15.72,-66.73,-0.2192,0.3543,0.6356,0.6499,0.004,0.0,0.005
2025-11-06 18:37:40.241,312.665,-0.013000000000000001,0.01,0.002,-0.186,-0.985,0.055,63.11,-15.72,-66.73,-0.21910000000000002,0.3543,0.6354000000000001,0.6501,0.004,0.004,0.003
2025-11-06 18:37:40.241,312.67,-0.014,0.013000000000000001,0.003,-0.19,-0.984,0.055,62.2,-15.69,-66.23,-0.2189,0.3544,0.6352,0.6503,0.007,0.002,0.002
2025-11-06 18:37:40.241,312.675,-0.013000000000000001,0.002,0.006,-0.189,-0.982,0.056,62.2,-15.69,-66.23,-0.2187,0.3546,0.635,0.6504,0.006,0.001,0.001
2025-11-06 18:37:40.241,312.68,-0.015,-0.004,0.008,-0.189,-0.982,0.058,62.2,-15.69,-66.23,-0.21860000000000002,0.3548,0.6349,0.6505000000000001,0.005,0.001,0.0
2025-11-06 18:37:40.241,312.685,-0.016,0.0,0.007,-0.19,-0.98,0.059000000000000004,62.67,-15.31,-65.85,-0.2184,0.35500000000000004,0.6348,0.6505000000000001,0.005,0.0,0.0
2025-11-06 18:37:40.241,312.69,-0.017,-0.001,0.01,-0.188,-0.978,0.059000000000000004,62.67,-15.31,-65.85,-0.21830000000000002,0.3551,0.6347,0.6505000000000001,0.003,-0.002,-0.001
2025-11-06 18:37:40.242,312.695,-0.018000000000000002,0.001,0.009000000000000001,-0.188,-0.98,0.06,61.99,-15.200000000000001,-66.15,-0.21810000000000002,0.3553,0.6347,0.6505000000000001,0.003,0.0,-0.002
2025-11-06 18:37:40.242,312.7,-0.019,0.0,0.006,-0.188,-0.98,0.06,61.99,-15.200000000000001,-66.15,-0.21810000000000002,0.3554,0.6346,0.6505000000000001,0.002,0.0,-0.001
2025-11-06 18:37:40.242,312.705,-0.019,0.0,0.009000000000000001,-0.187,-0.981,0.06,62.11,-15.11,-66.55,-0.218,0.35550000000000004,0.6346,0.6505000000000001,0.002,0.0,-0.001
2025-11-06 18:37:40.242,312.71,-0.019,0.001,0.007,-0.188,-0.98,0.061,62.11,-15.11,-66.55,-0.2179,0.3556,0.6346,0.6505000000000001,0.002,0.0,-0.002
2025-11-06 18:37:40.242,312.715,-0.02,0.003,0.007,-0.191,-0.98,0.061,62.11,-15.11,-66.55,-0.2177,0.3558,0.6346,0.6505000000000001,0.004,0.0,-0.002
2025-11-06 18:37:40.242,312.72,-0.017,0.0,0.009000000000000001,-0.191,-0.979,0.059000000000000004,62.26,-14.99,-66.38,-0.21760000000000002,0.3559,0.6345000000000001,0.6506000000000001,0.004,0.0,-0.001
2025-11-06 18:37:40.242,312.725,-0.017,-0.003,0.008,-0.191,-0.979,0.059000000000000004,62.26,-14.99,-66.38,-0.2174,0.35600000000000004,0.6344000000000001,0.6506000000000001,0.003,-0.001,0.0
2025-11-06 18:37:40.242,312.73,-0.015,-0.001,0.01,-0.192,-0.979,0.058,61.88,-15.370000000000001,-66.26,-0.21730000000000002,0.3562,0.6343,0.6507000000000001,0.004,0.0,0.0
2025-11-06 18:37:40.242,312.735,-0.014,0.0,0.008,-0.192,-0.979,0.058,61.88,-15.370000000000001,-66.26,-0.2172,0.3563,0.6342,0.6508,0.004,0.0,0.0
2025-11-06 18:37:40.242,312.74,-0.011,0.004,0.008,-0.193,-0.978,0.056,62.730000000000004,-15.370000000000001,-66.47,-0.217,0.3564,0.634,0.6509,0.004,-0.001,0.001
2025-11-06 18:37:40.242,312.745,-0.008,0.0,0.008,-0.194,-0.978,0.058,62.730000000000004,-15.34,-66.47,-0.21680000000000002,0.35660000000000003,0.6339,0.651,0.005,-0.001,0.0
2025-11-06 18:37:40.242,312.75,-0.004,0.004,0.008,-0.195,-0.978,0.06,62.730000000000004,-15.34,-66.47,-0.21660000000000001,0.3568,0.6339,0.651,0.005,-0.001,-0.002
2025-11-06 18:37:40.242,312.755,-0.002,0.007,0.008,-0.196,-0.978,0.061,63.25,-15.200000000000001,-66.26,-0.2164,0.35700000000000004,0.6339,0.651,0.006,-0.001,-0.002
2025-11-06 18:37:40.242,312.76,-0.001,0.001,0.006,-0.197,-0.979,0.062,63.25,-15.200000000000001,-66.26,-0.21610000000000001,0.3573,0.6338,0.6509,0.006,0.0,-0.003
2025-11-06 18:37:40.242,312.765,-0.005,0.006,0.006,-0.197,-0.979,0.062,62.49,-15.14,-65.88,-0.2159,0.35750000000000004,0.6338,0.6509,0.005,0.0,-0.002
2025-11-06 18:37:40.242,312.77,-0.005,0.001,0.005,-0.197,-0.981,0.062,62.49,-15.14,-65.88,-0.2157,0.3577,0.6338,0.6509,0.004,0.001,-0.003
2025-11-06 18:37:40.242,312.775,-0.006,0.004,0.005,-0.192,-0.982,0.062,62.49,-15.14,-65.88,-0.2157,0.3577,0.6339,0.6508,0.0,0.002,-0.003
2025-11-06 18:37:40.242,312.78,-0.008,0.006,0.005,-0.19,-0.984,0.06,63.25,-15.17,-66.0,-0.21580000000000002,0.3577,0.6339,0.6508,-0.001,0.004,-0.001
2025-11-06 18:37:40.242,312.785,-0.011,0.007,0.003,-0.19,-0.983,0.059000000000000004,63.25,-15.17,-66.0,-0.21580000000000002,0.35760000000000003,0.6339,0.6508,-0.001,0.004,0.0
2025-11-06 18:37:40.242,312.79,-0.01,0.009000000000000001,0.003,-0.189,-0.983,0.057,62.61,-15.08,-66.85,-0.2159,0.35750000000000004,0.6339,0.6508,-0.002,0.004,0.001
2025-11-06 18:37:40.242,312.795,-0.009000000000000001,0.01,0.003,-0.188,-0.982,0.053,62.61,-15.08,-66.85,-0.21610000000000001,0.3573,0.6338,0.651,-0.003,0.003,0.005
2025-11-06 18:37:40.243,312.8,-0.007,0.015,0.001,-0.188,-0.98,0.054,62.2,-14.99,-65.94,-0.2162,0.35710000000000003,0.6337,0.6511,-0.002,0.0,0.004
2025-11-06 18:37:40.243,312.805,-0.004,0.014,0.005,-0.189,-0.981,0.055,62.2,-14.99,-65.94,-0.2162,0.35700000000000004,0.6337,0.6512,-0.001,0.001,0.002
2025-11-06 18:37:40.243,312.81,-0.003,0.017,0.005,-0.192,-0.978,0.055,62.2,-14.99,-65.94,-0.2162,0.3569,0.6336,0.6513,0.001,-0.001,0.001
2025-11-06 18:37:40.243,312.815,-0.001,0.021,0.006,-0.193,-0.979,0.057,62.35,-15.22,-65.68,-0.21610000000000001,0.35700000000000004,0.6335000000000001,0.6514,0.001,0.0,0.0
2025-11-06 18:37:40.243,312.82,-0.004,0.018000000000000002,0.002,-0.193,-0.977,0.059000000000000004,62.35,-15.22,-65.68,-0.216,0.35700000000000004,0.6336,0.6514,0.001,-0.002,-0.001
2025-11-06 18:37:40.243,312.825,-0.01,0.017,0.0,-0.195,-0.976,0.062,64.25,-14.84,-65.85,-0.21580000000000002,0.3572,0.6336,0.6513,0.003,-0.003,-0.004
2025-11-06 18:37:40.243,312.83,-0.013000000000000001,0.014,0.0,-0.193,-0.979,0.064,64.25,-14.84,-65.85,-0.2157,0.3573,0.6337,0.6512,0.001,0.0,-0.006
2025-11-06 18:37:40.243,312.835,-0.017,0.011,0.0,-0.191,-0.979,0.062,64.25,-14.84,-65.85,-0.2157,0.3573,0.6338,0.6511,0.0,0.0,-0.004
2025-11-06 18:37:40.243,312.84,-0.022,0.014,-0.002,-0.191,-0.98,0.063,62.46,-15.02,-66.44,-0.2157,0.3574,0.6339,0.651,0.0,0.001,-0.004
2025-11-06 18:37:40.243,312.845,-0.022,0.021,-0.005,-0.19,-0.982,0.061,62.46,-15.02,-66.44,-0.2157,0.3573,0.634,0.6509,-0.001,0.002,-0.001
2025-11-06 18:37:40.243,312.85,-0.022,0.023,-0.005,-0.187,-0.983,0.061,61.940000000000005,-15.200000000000001,-66.55,-0.21580000000000002,0.35710000000000003,0.6341,0.6509,-0.004,0.003,-0.001
2025-11-06 18:37:40.243,312.855,-0.019,0.028,-0.004,-0.187,-0.982,0.061,61.940000000000005,-15.200000000000001,-66.55,-0.2159,0.35700000000000004,0.6342,0.6508,-0.003,0.002,-0.001
2025-11-06 18:37:40.243,312.86,-0.019,0.035,-0.005,-0.187,-0.984,0.059000000000000004,61.940000000000005,-15.200000000000001,-65.56,-0.216,0.3568,0.6342,0.6509,-0.003,0.004,0.0
2025-11-06 18:37:40.243,312.865,-0.018000000000000002,0.037,-0.003,-0.185,-0.985,0.057,61.940000000000005,-15.200000000000001,-65.56,-0.2162,0.35650000000000004,0.6342,0.6509,-0.004,0.005,0.001
2025-11-06 18:37:40.243,312.87,-0.016,0.034,-0.001,-0.185,-0.984,0.057,61.940000000000005,-15.200000000000001,-65.56,-0.21630000000000002,0.3563,0.6343,0.651,-0.004,0.004,0.001
2025-11-06 18:37:40.243,312.875,-0.014,0.034,-0.002,-0.185,-0.983,0.058,61.99,-15.280000000000001,-66.41,-0.2164,0.3561,0.6343,0.651,-0.003,0.003,0.0
2025-11-06 18:37:40.243,312.88,-0.014,0.032,0.0,-0.185,-0.982,0.058,61.99,-15.280000000000001,-66.41,-0.2165,0.35600000000000004,0.6344000000000001,0.651,-0.003,0.002,0.0
2025-11-06 18:37:40.243,312.885,-0.011,0.032,0.001,-0.186,-0.981,0.058,62.2,-15.17,-66.35,-0.21660000000000001,0.3558,0.6344000000000001,0.651,-0.002,0.001,0.0
2025-11-06 18:37:40.243,312.89,-0.01,0.025,0.001,-0.185,-0.981,0.058,62.2,-15.17,-66.35,-0.21660000000000001,0.3557,0.6344000000000001,0.651,-0.002,0.001,0.0
2025-11-06 18:37:40.243,312.895,-0.009000000000000001,0.023,0.003,-0.186,-0.982,0.056,62.2,-15.17,-66.35,-0.21660000000000001,0.3556,0.6344000000000001,0.6511,-0.001,0.002,0.001
2025-11-06 18:37:40.243,312.9,-0.006,0.021,0.005,-0.188,-0.98,0.057,62.14,-15.370000000000001,-66.41,-0.21660000000000001,0.3556,0.6344000000000001,0.6511,0.0,0.0,0.0
2025-11-06 18:37:40.243,312.905,-0.004,0.018000000000000002,0.006,-0.189,-0.98,0.055,62.14,-15.370000000000001,-66.41,-0.21660000000000001,0.3556,0.6343,0.6513,0.001,0.0,0.002
2025-11-06 18:37:40.243,312.91,-0.003,0.013000000000000001,0.006,-0.188,-0.981,0.056,62.14,-14.76,-65.82000000000001,-0.2165,0.35550000000000004,0.6343,0.6513,0.0,0.0,0.001
2025-11-06 18:37:40.244,312.915,-0.006,0.009000000000000001,0.006,-0.189,-0.981,0.054,62.14,-14.76,-65.82000000000001,-0.2165,0.35550000000000004,0.6342,0.6514,0.0,0.001,0.002
2025-11-06 18:37:40.244,312.92,-0.01,-0.003,0.006,-0.189,-0.979,0.058,62.050000000000004,-15.05,-66.06,-0.2165,0.35550000000000004,0.6342,0.6514,0.0,0.0,0.0
2025-11-06 18:37:40.244,312.925,-0.01,-0.006,0.004,-0.188,-0.981,0.059000000000000004,62.050000000000004,-15.05,-66.06,-0.2165,0.3556,0.6342,0.6514,0.0,0.001,-0.002
2025-11-06 18:37:40.244,312.93,-0.014,-0.007,0.006,-0.187,-0.979,0.058,62.050000000000004,-15.05,-66.06,-0.2165,0.3556,0.6342,0.6514,0.0,0.0,0.0
2025-11-06 18:37:40.244,312.935,-0.017,-0.006,0.005,-0.187,-0.979,0.059000000000000004,62.02,-15.08,-65.74,-0.21660000000000001,0.3556,0.6342,0.6513,-0.001,-0.001,-0.002
2025-11-06 18:37:40.244,312.94,-0.021,-0.004,0.003,-0.186,-0.982,0.059000000000000004,62.02,-15.08,-65.74,-0.21660000000000001,0.3556,0.6343,0.6513,-0.001,0.002,-0.001
2025-11-06 18:37:40.244,312.945,-0.02,0.003,0.004,-0.185,-0.984,0.058,62.08,-15.08,-67.14,-0.2167,0.35550000000000004,0.6343,0.6512,-0.003,0.003,-0.001
2025-11-06 18:37:40.244,312.95,-0.022,0.007,0.001,-0.185,-0.982,0.06,62.08,-15.08,-67.14,-0.21680000000000002,0.3554,0.6344000000000001,0.6512,-0.002,0.002,-0.002
2025-11-06 18:37:40.244,312.955,-0.024,0.016,0.001,-0.186,-0.984,0.059000000000000004,62.08,-15.08,-67.14,-0.21680000000000002,0.3553,0.6344000000000001,0.6512,-0.001,0.004,-0.001
2025-11-06 18:37:40.244,312.96,-0.022,0.018000000000000002,0.001,-0.184,-0.983,0.057,61.53,-15.25,-66.2,-0.2169,0.3552,0.6344000000000001,0.6512,-0.002,0.002,0.0
2025-11-06 18:37:40.244,312.965,-0.024,0.019,0.003,-0.184,-0.984,0.059000000000000004,61.53,-15.25,-66.2,-0.217,0.3551,0.6345000000000001,0.6512,-0.003,0.003,-0.001
2025-11-06 18:37:40.244,312.97,-0.025,0.013000000000000001,0.001,-0.182,-0.985,0.057,62.11,-15.34,-66.5,-0.2172,0.3549,0.6346,0.6512,-0.004,0.004,0.0
2025-11-06 18:37:40.244,312.975,-0.026000000000000002,0.021,0.003,-0.179,-0.985,0.057,62.11,-15.34,-66.5,-0.2174,0.3547,0.6346,0.6511,-0.006,0.004,0.0
2025-11-06 18:37:40.244,312.98,-0.022,0.022,0.003,-0.18,-0.983,0.053,62.2,-14.41,-67.17,-0.21760000000000002,0.3544,0.6346,0.6512,-0.005,0.002,0.003
2025-11-06 18:37:40.244,312.985,-0.019,0.028,0.002,-0.181,-0.984,0.051000000000000004,62.2,-14.41,-67.17,-0.21780000000000002,0.3542,0.6345000000000001,0.6514,-0.004,0.003,0.005
2025-11-06 18:37:40.244,312.99,-0.014,0.029,0.004,-0.182,-0.982,0.05,62.2,-14.41,-67.17,-0.2179,0.35400000000000004,0.6344000000000001,0.6516000000000001,-0.002,0.001,0.005
2025-11-06 18:37:40.244,312.995,-0.012,0.024,0.003,-0.184,-0.982,0.05,62.26,-14.73,-67.23,-0.218,0.3539,0.6342,0.6518,0.0,0.001,0.004
2025-11-06 18:37:40.244,313.0,-0.011,0.02,0.003,-0.184,-0.982,0.05,62.26,-14.73,-67.23,-0.218,0.3538,0.6341,0.6519,0.0,0.001,0.004
2025-11-06 18:37:40.244,313.005,-0.01,0.019,0.001,-0.185,-0.98,0.052000000000000005,62.230000000000004,-14.790000000000001,-66.44,-0.218,0.3537,0.634,0.652,0.0,-0.001,0.001
2025-11-06 18:37:40.244,313.01,-0.009000000000000001,0.013000000000000001,0.001,-0.185,-0.98,0.053,62.230000000000004,-14.790000000000001,-66.44,-0.218,0.3537,0.634,0.6521,0.0,-0.001,0.0
2025-11-06 18:37:40.244,313.015,-0.01,0.007,0.001,-0.184,-0.98,0.056,62.230000000000004,-14.790000000000001,-66.44,-0.2179,0.3537,0.634,0.6521,0.0,0.0,-0.001
2025-11-06 18:37:40.244,313.02,-0.011,0.003,0.0,-0.185,-0.982,0.056,63.4,-14.790000000000001,-66.88,-0.2179,0.3538,0.6341,0.652,0.0,0.0,-0.001
2025-11-06 18:37:40.244,313.025,-0.014,-0.003,0.0,-0.183,-0.982,0.055,63.4,-14.790000000000001,-66.88,-0.218,0.3537,0.6341,0.652,0.0,0.0,0.0
2025-11-06 18:37:40.244,313.03,-0.014,-0.007,0.003,-0.183,-0.981,0.057,62.050000000000004,-15.05,-66.79,-0.218,0.3537,0.6342,0.6519,-0.001,0.0,-0.002
2025-11-06 18:37:40.244,313.035,-0.014,-0.012,0.002,-0.183,-0.982,0.059000000000000004,62.050000000000004,-15.05,-66.79,-0.218,0.3538,0.6343,0.6518,-0.001,0.001,-0.004
2025-11-06 18:37:40.244,313.04,-0.015,-0.012,0.003,-0.181,-0.982,0.056,62.58,-15.11,-66.32000000000001,-0.21810000000000002,0.3537,0.6343,0.6517000000000001,-0.002,0.001,-0.001
2025-11-06 18:37:40.244,313.045,-0.016,-0.015,0.005,-0.181,-0.982,0.056,62.58,-15.11,-66.32000000000001,-0.2182,0.3537,0.6343,0.6517000000000001,-0.002,0.001,-0.001
2025-11-06 18:37:40.244,313.05,-0.014,-0.018000000000000002,0.005,-0.183,-0.981,0.055,62.58,-15.11,-66.32000000000001,-0.21830000000000002,0.3537,0.6343,0.6517000000000001,0.0,0.0,0.0
2025-11-06 18:37:40.244,313.055,-0.014,-0.016,0.008,-0.183,-0.981,0.052000000000000005,62.67,-14.84,-65.47,-0.21830000000000002,0.3537,0.6342,0.6518,0.0,0.0,0.002
2025-11-06 18:37:40.244,313.06,-0.013000000000000001,-0.018000000000000002,0.007,-0.185,-0.982,0.052000000000000005,62.67,-14.84,-65.47,-0.2184,0.3537,0.6341,0.6519,0.0,0.0,0.002
2025-11-06 18:37:40.244,313.065,-0.008,-0.02,0.011,-0.185,-0.983,0.05,62.050000000000004,-14.9,-66.29,-0.2184,0.3537,0.6339,0.652,0.0,0.002,0.003
2025-11-06 18:37:40.244,313.07,-0.009000000000000001,-0.017,0.011,-0.188,-0.983,0.05,62.050000000000004,-14.9,-66.29,-0.2184,0.3538,0.6338,0.6521,0.003,0.001,0.003
2025-11-06 18:37:40.244,313.075,-0.003,-0.015,0.013000000000000001,-0.188,-0.982,0.049,62.96,-14.700000000000001,-65.79,-0.21830000000000002,0.3539,0.6336,0.6523,0.003,0.0,0.004
2025-11-06 18:37:40.244,313.08,-0.003,-0.013000000000000001,0.015,-0.19,-0.981,0.049,62.96,-14.700000000000001,-65.79,-0.2182,0.35400000000000004,0.6333000000000001,0.6525000000000001,0.004,0.0,0.004
2025-11-06 18:37:40.244,313.085,-0.005,-0.012,0.011,-0.193,-0.98,0.049,62.96,-14.700000000000001,-65.79,-0.218,0.3542,0.6331,0.6527000000000001,0.007,0.0,0.003
2025-11-06 18:37:40.244,313.09,-0.002,-0.011,0.009000000000000001,-0.195,-0.979,0.05,62.370000000000005,-15.34,-66.7,-0.21780000000000002,0.35450000000000004,0.6329,0.6528,0.008,-0.001,0.002
2025-11-06 18:37:40.244,313.095,-0.002,-0.012,0.011,-0.194,-0.98,0.05,62.370000000000005,-15.34,-66.7,-0.21760000000000002,0.3547,0.6327,0.653,0.006,0.0,0.002
2025-11-06 18:37:40.244,313.1,-0.005,-0.012,0.009000000000000001,-0.195,-0.98,0.05,62.78,-15.11,-65.97,-0.2174,0.3549,0.6325000000000001,0.6531,0.007,0.0,0.001
2025-11-06 18:37:40.244,313.105,-0.006,-0.014,0.006,-0.196,-0.98,0.053,62.78,-15.11,-65.97,-0.2172,0.3551,0.6324000000000001,0.6531,0.007,0.0,-0.001
2025-11-06 18:37:40.244,313.11,-0.01,-0.012,0.003,-0.194,-0.982,0.053,62.78,-15.11,-65.97,-0.21710000000000002,0.3553,0.6323000000000001,0.6532,0.005,0.001,-0.001
2025-11-06 18:37:40.244,313.115,-0.013000000000000001,-0.008,0.003,-0.194,-0.981,0.052000000000000005,62.17,-14.82,-66.32000000000001,-0.217,0.35550000000000004,0.6322,0.6532,0.004,0.001,0.0
2025-11-06 18:37:40.245,313.12,-0.016,-0.002,0.003,-0.194,-0.981,0.052000000000000005,62.17,-14.82,-66.32000000000001,-0.2169,0.3556,0.6321,0.6533,0.003,0.001,0.0
2025-11-06 18:37:40.245,313.125,-0.017,0.002,0.001,-0.194,-0.978,0.051000000000000004,62.35,-14.870000000000001,-66.76,-0.21680000000000002,0.3557,0.632,0.6534,0.004,-0.001,0.0
2025-11-06 18:37:40.245,313.13,-0.016,0.007,0.0,-0.193,-0.978,0.049,62.35,-14.870000000000001,-66.76,-0.2167,0.3557,0.6319,0.6535000000000001,0.002,-0.001,0.002
2025-11-06 18:37:40.245,313.135,-0.013000000000000001,0.01,0.002,-0.194,-0.981,0.05,62.2,-15.05,-66.93,-0.21660000000000001,0.3557,0.6318,0.6536000000000001,0.003,0.001,0.001
2025-11-06 18:37:40.245,313.14,-0.01,0.015,0.001,-0.194,-0.982,0.05,62.2,-15.05,-66.93,-0.2165,0.3558,0.6317,0.6537000000000001,0.002,0.002,0.001
2025-11-06 18:37:40.245,313.145,-0.01,0.016,0.005,-0.191,-0.983,0.051000000000000004,62.2,-15.05,-66.93,-0.2165,0.3557,0.6317,0.6537000000000001,0.0,0.003,0.0
2025-11-06 18:37:40.245,313.15,-0.008,0.019,0.003,-0.193,-0.985,0.051000000000000004,63.25,-15.780000000000001,-66.58,-0.2165,0.3557,0.6317,0.6538,0.001,0.005,0.0
2025-11-06 18:37:40.245,313.155,-0.014,0.012,0.006,-0.191,-0.985,0.053,63.25,-15.780000000000001,-66.58,-0.2165,0.3557,0.6317,0.6537000000000001,0.0,0.005,-0.002
2025-11-06 18:37:40.245,313.16,-0.013000000000000001,0.012,0.005,-0.189,-0.984,0.054,62.78,-14.67,-66.76,-0.2165,0.3556,0.6318,0.6537000000000001,-0.001,0.004,-0.003
2025-11-06 18:37:40.245,313.165,-0.014,0.012,0.006,-0.188,-0.983,0.054,62.78,-14.67,-66.76,-0.21660000000000001,0.3556,0.6319,0.6536000000000001,-0.002,0.003,-0.003
2025-11-06 18:37:40.245,313.17,-0.016,0.011,0.007,-0.186,-0.984,0.056,62.78,-14.67,-66.76,-0.2167,0.35550000000000004,0.6321,0.6534,-0.003,0.004,-0.004
2025-11-06 18:37:40.245,313.175,-0.018000000000000002,0.012,0.008,-0.181,-0.986,0.057,63.31,-14.790000000000001,-66.2,-0.2169,0.3553,0.6323000000000001,0.6532,-0.008,0.006,-0.004
2025-11-06 18:37:40.245,313.18,-0.017,0.015,0.005,-0.179,-0.988,0.057,63.31,-14.790000000000001,-66.2,-0.2172,0.35500000000000004,0.6326,0.653,-0.009000000000000001,0.007,-0.005
2025-11-06 18:37:40.245,313.185,-0.017,0.02,0.005,-0.178,-0.986,0.057,62.49,-15.34,-66.32000000000001,-0.2175,0.3548,0.6329,0.6528,-0.01,0.006,-0.004
2025-11-06 18:37:40.245,313.19,-0.016,0.02,0.006,-0.177,-0.986,0.057,62.49,-15.34,-66.32000000000001,-0.21780000000000002,0.35450000000000004,0.6331,0.6526000000000001,-0.009000000000000001,0.005,-0.004
2025-11-06 18:37:40.245,313.195,-0.012,0.017,0.006,-0.17400000000000002,-0.985,0.057,62.370000000000005,-14.99,-65.91,-0.21810000000000002,0.3542,0.6334000000000001,0.6524,-0.011,0.004,-0.004
2025-11-06 18:37:40.245,313.2,-0.014,0.022,0.005,-0.17200000000000001,-0.983,0.057,62.370000000000005,-14.99,-65.91,-0.2184,0.3539,0.6337,0.6522,-0.012,0.001,-0.003
2025-11-06 18:37:40.245,313.205,-0.013000000000000001,0.03,0.007,-0.17400000000000002,-0.983,0.057,62.370000000000005,-14.99,-65.91,-0.21860000000000002,0.3536,0.6339,0.652,-0.009000000000000001,0.002,-0.003
2025-11-06 18:37:40.245,313.21,-0.012,0.035,0.006,-0.17500000000000002,-0.983,0.057,63.46,-15.46,-66.26,-0.21880000000000002,0.3534,0.6341,0.6519,-0.007,0.002,-0.003
2025-11-06 18:37:40.245,313.215,-0.017,0.043000000000000003,0.005,-0.17300000000000001,-0.986,0.057,63.46,-15.46,-66.26,-0.219,0.3531,0.6343,0.6517000000000001,-0.008,0.004,-0.003
2025-11-06 18:37:40.245,313.22,-0.02,0.052000000000000005,0.005,-0.177,-0.988,0.06,62.35,-14.73,-66.53,-0.21910000000000002,0.35300000000000004,0.6346,0.6516000000000001,-0.004,0.007,-0.006
2025-11-06 18:37:40.245,313.225,-0.03,0.054,0.006,-0.17500000000000002,-0.992,0.064,62.35,-14.73,-66.53,-0.21910000000000002,0.3528,0.6349,0.6513,-0.005,0.01,-0.009000000000000001
2025-11-06 18:37:40.245,313.23,-0.035,0.057,0.005,-0.17500000000000002,-0.992,0.067,62.35,-14.73,-66.53,-0.21910000000000002,0.3526,0.6354000000000001,0.651,-0.005,0.01,-0.011
2025-11-06 18:37:40.245,313.235,-0.046,0.061,0.005,-0.17300000000000001,-0.994,0.066,62.370000000000005,-14.9,-66.64,-0.2192,0.3524,0.6357,0.6508,-0.006,0.012,-0.009000000000000001
2025-11-06 18:37:40.247,313.24,-0.053,0.069,0.006,-0.171,-0.997,0.065,62.370000000000005,-14.9,-66.64,-0.21930000000000002,0.3521,0.636,0.6506000000000001,-0.007,0.015,-0.008
2025-11-06 18:37:40.247,313.245,-0.061,0.08700000000000001,0.009000000000000001,-0.169,-0.994,0.062,62.35,-14.99,-66.44,-0.21960000000000002,0.3517,0.6362,0.6505000000000001,-0.009000000000000001,0.012,-0.005
2025-11-06 18:37:40.247,313.25,-0.064,0.107,0.008,-0.169,-0.994,0.059000000000000004,62.35,-14.99,-66.44,-0.21980000000000002,0.3513,0.6364000000000001,0.6505000000000001,-0.008,0.011,-0.002
2025-11-06 18:37:40.247,313.255,-0.066,0.129,0.01,-0.171,-0.999,0.056,61.940000000000005,-15.370000000000001,-66.2,-0.2199,0.3508,0.6364000000000001,0.6507000000000001,-0.005,0.017,0.0
2025-11-06 18:37:40.247,313.26,-0.069,0.14100000000000001,0.009000000000000001,-0.171,-1.0030000000000001,0.057,61.940000000000005,-15.370000000000001,-66.2,-0.22,0.3504,0.6365000000000001,0.6508,-0.004,0.02,-0.001
2025-11-06 18:37:40.247,313.265,-0.076,0.156,0.008,-0.17300000000000001,-1.01,0.062,61.940000000000005,-15.370000000000001,-66.2,-0.22,0.35000000000000003,0.6367,0.6508,-0.002,0.027,-0.006
2025-11-06 18:37:40.247,313.27,-0.082,0.163,0.009000000000000001,-0.17300000000000001,-1.014,0.068,62.730000000000004,-15.55,-66.15,-0.21980000000000002,0.3496,0.637,0.6507000000000001,-0.001,0.031,-0.012
2025-11-06 18:37:40.247,313.275,-0.088,0.163,0.008,-0.17,-1.0150000000000001,0.07200000000000001,62.730000000000004,-15.55,-66.15,-0.2197,0.3492,0.6375000000000001,0.6505000000000001,-0.003,0.032,-0.015
2025-11-06 18:37:40.247,313.28,-0.099,0.169,0.008,-0.17,-1.016,0.073,62.230000000000004,-15.55,-65.74,-0.21960000000000002,0.3488,0.638,0.6503,-0.003,0.033,-0.016
2025-11-06 18:37:40.247,313.285,-0.109,0.177,0.012,-0.167,-1.012,0.074,62.230000000000004,-15.55,-65.74,-0.2194,0.3483,0.6385000000000001,0.6501,-0.005,0.029,-0.016
2025-11-06 18:37:40.247,313.29,-0.11900000000000001,0.197,0.016,-0.164,-1.006,0.066,62.230000000000004,-15.55,-65.74,-0.2195,0.3478,0.6387,0.6501,-0.007,0.023,-0.008
2025-11-06 18:37:40.247,313.295,-0.125,0.20700000000000002,0.018000000000000002,-0.166,-1.0,0.06,62.61,-15.69,-66.47,-0.21960000000000002,0.3473,0.6388,0.6504,-0.005,0.016,-0.002
2025-11-06 18:37:40.247,313.3,-0.126,0.218,0.02,-0.168,-0.994,0.054,62.61,-15.69,-66.47,-0.2195,0.3468,0.6386000000000001,0.6508,-0.002,0.01,0.002
2025-11-06 18:37:40.247,313.305,-0.124,0.227,0.024,-0.168,-0.986,0.049,63.49,-15.69,-66.41,-0.2194,0.3463,0.6384000000000001,0.6513,-0.002,0.003,0.005
2025-11-06 18:37:40.247,313.31,-0.13,0.23600000000000002,0.022,-0.162,-0.991,0.046,63.49,-15.69,-66.41,-0.21960000000000002,0.3456,0.6381,0.6519,-0.007,0.007,0.006
2025-11-06 18:37:40.247,313.315,-0.14300000000000002,0.23800000000000002,0.019,-0.159,-0.996,0.049,63.160000000000004,-15.72,-66.12,-0.21980000000000002,0.34490000000000004,0.638,0.6523,-0.009000000000000001,0.011,0.003
2025-11-06 18:37:40.247,313.32,-0.159,0.23900000000000002,0.018000000000000002,-0.164,-1.0,0.054,63.160000000000004,-15.72,-66.12,-0.21980000000000002,0.3443,0.6381,0.6526000000000001,-0.004,0.016,-0.002
2025-11-06 18:37:40.247,313.325,-0.168,0.23500000000000001,0.016,-0.17200000000000001,-0.996,0.058,63.160000000000004,-15.72,-66.12,-0.21930000000000002,0.34390000000000004,0.6381,0.6529,0.003,0.011,-0.007
2025-11-06 18:37:40.247,313.33,-0.178,0.229,0.02,-0.17500000000000002,-0.989,0.061,63.050000000000004,-15.63,-66.41,-0.2187,0.3436,0.6382,0.6532,0.005,0.005,-0.01
2025-11-06 18:37:40.247,313.335,-0.196,0.217,0.019,-0.164,-0.997,0.06,63.050000000000004,-15.63,-66.41,-0.21860000000000002,0.3431,0.6383,0.6533,-0.005,0.013000000000000001,-0.009000000000000001
2025-11-06 18:37:40.247,313.34,-0.20700000000000002,0.211,0.022,-0.166,-0.997,0.058,62.17,-15.25,-66.5,-0.2184,0.3426,0.6384000000000001,0.6536000000000001,-0.002,0.013000000000000001,-0.008
2025-11-06 18:37:40.247,313.345,-0.213,0.215,0.027,-0.17,-0.984,0.05,62.17,-15.25,-66.5,-0.21810000000000002,0.3422,0.6382,0.6541,0.001,0.0,0.0
2025-11-06 18:37:40.247,313.35,-0.214,0.232,0.031,-0.157,-0.982,0.034,62.230000000000004,-15.02,-66.91,-0.21860000000000002,0.34140000000000004,0.6376000000000001,0.6549,-0.011,-0.002,0.012
2025-11-06 18:37:40.247,313.355,-0.223,0.241,0.028,-0.14200000000000002,-1.0010000000000001,0.019,62.230000000000004,-15.02,-66.91,-0.21980000000000002,0.3402,0.6369,0.6559,-0.024,0.016,0.024
2025-11-06 18:37:40.249,313.36,-0.226,0.253,0.031,-0.14300000000000002,-1.006,0.011,62.230000000000004,-15.02,-66.91,-0.221,0.339,0.636,0.657,-0.021,0.02,0.028
2025-11-06 18:37:40.249,313.365,-0.228,0.263,0.035,-0.14300000000000002,-1.0130000000000001,0.007,62.2,-14.76,-66.61,-0.22210000000000002,0.3377,0.6351,0.6581,-0.019,0.027,0.028
2025-11-06 18:37:40.249,313.37,-0.229,0.266,0.042,-0.154,-1.01,0.005,62.2,-14.76,-66.61,-0.2228,0.33680000000000004,0.634,0.6593,-0.007,0.024,0.026000000000000002
2025-11-06 18:37:40.249,313.375,-0.226,0.267,0.052000000000000005,-0.17400000000000002,-0.997,0.009000000000000001,62.14,-14.93,-67.05,-0.22260000000000002,0.3366,0.6329,0.6606000000000001,0.011,0.01,0.018000000000000002
2025-11-06 18:37:40.249,313.38,-0.228,0.256,0.058,-0.166,-1.0,0.014,62.14,-14.93,-67.05,-0.22260000000000002,0.3362,0.6322,0.6615,0.003,0.014,0.011
2025-11-06 18:37:40.249,313.385,-0.24,0.23,0.056,-0.17,-1.0130000000000001,0.026000000000000002,62.14,-14.93,-67.05,-0.2222,0.33580000000000004,0.6319,0.6621,0.006,0.027,-0.001
2025-11-06 18:37:40.249,313.39,-0.248,0.203,0.058,-0.179,-1.014,0.042,61.99,-15.17,-66.7,-0.2214,0.33580000000000004,0.6319,0.6623,0.014,0.028,-0.017
2025-11-06 18:37:40.249,313.395,-0.254,0.189,0.066,-0.183,-1.0,0.056,61.99,-15.17,-66.7,-0.2202,0.3361,0.6323000000000001,0.6622,0.016,0.014,-0.03
2025-11-06 18:37:40.249,313.4,-0.264,0.191,0.076,-0.188,-0.979,0.06,62.2,-15.17,-66.82000000000001,-0.21880000000000002,0.3366,0.6327,0.6621,0.02,-0.005,-0.033
2025-11-06 18:37:40.249,313.405,-0.28,0.213,0.077,-0.168,-0.978,0.055,62.2,-15.17,-66.82000000000001,-0.21810000000000002,0.3365,0.6331,0.6619,0.0,-0.006,-0.027
2025-11-06 18:37:40.249,313.41,-0.293,0.23600000000000002,0.081,-0.17200000000000001,-0.98,0.049,61.7,-14.84,-67.67,-0.21730000000000002,0.33630000000000004,0.6333000000000001,0.6621,0.002,-0.004,-0.021
2025-11-06 18:37:40.249,313.415,-0.3,0.273,0.082,-0.167,-0.979,0.038,61.7,-14.84,-67.67,-0.2169,0.33590000000000003,0.6333000000000001,0.6625,-0.002,-0.005,-0.01
2025-11-06 18:37:40.249,313.42,-0.292,0.312,0.088,-0.178,-0.971,0.024,61.7,-14.84,-67.67,-0.2162,0.3356,0.6327,0.6634,0.006,-0.013000000000000001,0.002
2025-11-06 18:37:40.249,313.425,-0.28200000000000003,0.375,0.085,-0.171,-0.971,0.017,62.08,-15.49,-66.93,-0.2157,0.33490000000000003,0.6322,0.6645,0.0,-0.013000000000000001,0.006
2025-11-06 18:37:40.249,313.43,-0.28200000000000003,0.40800000000000003,0.078,-0.17500000000000002,-0.973,0.018000000000000002,62.08,-15.49,-66.93,-0.2151,0.33430000000000004,0.6317,0.6655,0.002,-0.01,0.004
2025-11-06 18:37:40.249,313.435,-0.279,0.424,0.073,-0.17400000000000002,-0.988,0.02,61.82,-14.99,-66.93,-0.21450000000000002,0.3336,0.6314000000000001,0.6663,0.001,0.003,0.0
2025-11-06 18:37:40.249,313.44,-0.28700000000000003,0.43,0.07100000000000001,-0.179,-0.989,0.025,61.82,-14.99,-66.93,-0.2137,0.333,0.6312,0.667,0.005,0.004,-0.006
2025-11-06 18:37:40.249,313.445,-0.28300000000000003,0.443,0.074,-0.211,-0.976,0.032,61.82,-14.99,-66.93,-0.2117,0.33330000000000004,0.6308,0.6678000000000001,0.034,-0.007,-0.014
2025-11-06 18:37:40.249,313.45,-0.273,0.466,0.078,-0.222,-0.966,0.033,62.08,-14.73,-67.05,-0.2093,0.3337,0.6305000000000001,0.6687000000000001,0.04,-0.016,-0.015
2025-11-06 18:37:40.249,313.455,-0.28,0.489,0.08,-0.20800000000000002,-0.9590000000000001,0.028,62.08,-14.73,-67.05,-0.20750000000000002,0.3337,0.6302,0.6695,0.023,-0.022,-0.01
2025-11-06 18:37:40.250,313.46,-0.306,0.504,0.084,-0.20600000000000002,-0.964,0.015,61.82,-15.52,-66.85,-0.2059,0.33340000000000003,0.6296,0.6708000000000001,0.019,-0.017,0.0
2025-11-06 18:37:40.250,313.465,-0.316,0.514,0.08700000000000001,-0.211,-0.966,0.006,61.82,-15.52,-66.85,-0.2044,0.33290000000000003,0.6288,0.6722,0.02,-0.014,0.006
2025-11-06 18:37:40.250,313.47,-0.317,0.528,0.083,-0.192,-0.971,-0.003,63.72,-14.73,-67.43,-0.20350000000000001,0.3317,0.6281,0.6737000000000001,0.001,-0.01,0.013000000000000001
2025-11-06 18:37:40.250,313.475,-0.307,0.527,0.08,-0.189,-0.982,0.001,63.72,-14.73,-67.43,-0.2029,0.3306,0.6276,0.6748000000000001,-0.001,0.0,0.005
2025-11-06 18:37:40.250,313.48,-0.299,0.524,0.082,-0.182,-0.981,0.007,63.72,-14.73,-67.43,-0.2025,0.3295,0.6275000000000001,0.6756,-0.008,0.0,-0.002
2025-11-06 18:37:40.250,313.485,-0.27,0.517,0.092,-0.203,-0.965,0.015,63.54,-14.64,-67.14,-0.20120000000000002,0.32930000000000004,0.6274000000000001,0.6763,0.011,-0.016,-0.011
2025-11-06 18:37:40.250,313.49,-0.243,0.522,0.10200000000000001,-0.201,-0.9380000000000001,0.02,63.54,-14.64,-67.14,-0.1998,0.3292,0.6274000000000001,0.6767000000000001,0.006,-0.042,-0.016
2025-11-06 18:37:40.250,313.495,-0.232,0.508,0.108,-0.185,-0.935,0.021,62.52,-14.52,-66.61,-0.1991,0.32880000000000004,0.6276,0.6769000000000001,-0.01,-0.045,-0.017
2025-11-06 18:37:40.250,313.5,-0.242,0.47300000000000003,0.111,-0.184,-0.925,0.02,62.52,-14.52,-66.61,-0.19840000000000002,0.3285,0.6278,0.6771,-0.011,-0.054,-0.016
2025-11-06 18:37:40.250,313.505,-0.247,0.431,0.105,-0.162,-0.933,0.029,62.52,-14.52,-66.61,-0.1986,0.3279,0.6284000000000001,0.6767000000000001,-0.032,-0.047,-0.024
2025-11-06 18:37:40.250,313.51,-0.26,0.40900000000000003,0.1,-0.14,-0.9420000000000001,0.036000000000000004,62.17,-15.11,-65.97,-0.1998,0.327,0.6294000000000001,0.6759000000000001,-0.05,-0.039,-0.03
2025-11-06 18:37:40.250,313.515,-0.266,0.403,0.085,-0.129,-0.9510000000000001,0.035,62.17,-15.11,-65.97,-0.2013,0.3259,0.6304000000000001,0.6751,-0.057,-0.031,-0.027
2025-11-06 18:37:40.250,313.52,-0.261,0.41100000000000003,0.079,-0.14100000000000001,-0.9510000000000001,0.033,61.99,-15.08,-67.26,-0.2021,0.3249,0.6312,0.6745,-0.042,-0.031,-0.025
2025-11-06 18:37:40.250,313.525,-0.246,0.442,0.07200000000000001,-0.16,-0.9450000000000001,0.029,61.99,-15.08,-67.26,-0.2018,0.3241,0.6318,0.6744,-0.021,-0.037,-0.02
2025-11-06 18:37:40.250,313.53,-0.23500000000000001,0.485,0.059000000000000004,-0.159,-0.9450000000000001,0.017,61.940000000000005,-14.84,-66.73,-0.2018,0.32320000000000004,0.632,0.6747000000000001,-0.022,-0.037,-0.009000000000000001
2025-11-06 18:37:40.250,313.535,-0.23800000000000002,0.547,0.047,-0.161,-0.9470000000000001,-0.001,61.940000000000005,-14.84,-66.73,-0.2018,0.3219,0.6317,0.6756,-0.019,-0.035,0.008
2025-11-06 18:37:40.250,313.54,-0.243,0.596,0.039,-0.171,-0.9490000000000001,-0.008,61.940000000000005,-14.84,-66.73,-0.2013,0.32080000000000003,0.6311,0.6768000000000001,-0.008,-0.034,0.011
2025-11-06 18:37:40.250,313.545,-0.248,0.628,0.019,-0.17500000000000002,-0.9580000000000001,-0.013000000000000001,62.550000000000004,-15.46,-67.02,-0.20070000000000002,0.3195,0.6305000000000001,0.6782,-0.004,-0.024,0.014
2025-11-06 18:37:40.250,313.55,-0.265,0.655,0.0,-0.179,-0.9570000000000001,-0.011,62.550000000000004,-15.46,-67.02,-0.19990000000000002,0.31820000000000004,0.6301,0.6794,0.0,-0.025,0.008
2025-11-06 18:37:40.250,313.555,-0.28400000000000003,0.677,-0.028,-0.184,-0.987,-0.013000000000000001,61.730000000000004,-14.99,-67.29,-0.1991,0.3169,0.6297,0.6807000000000001,0.004,0.003,0.008
2025-11-06 18:37:40.250,313.56,-0.35000000000000003,0.6900000000000001,-0.043000000000000003,-0.189,-1.0070000000000001,-0.023,61.730000000000004,-14.99,-67.29,-0.1983,0.3154,0.6289,0.6822,0.009000000000000001,0.023,0.014
2025-11-06 18:37:40.251,313.565,-0.367,0.682,-0.038,-0.214,-0.987,-0.039,61.730000000000004,-14.99,-67.29,-0.1968,0.3145,0.6275000000000001,0.6844,0.032,0.004,0.026000000000000002
2025-11-06 18:37:40.251,313.57,-0.357,0.681,-0.03,-0.246,-0.998,-0.062,62.2,-14.67,-66.96000000000001,-0.19460000000000002,0.3138,0.6253000000000001,0.6873,0.059000000000000004,0.016,0.043000000000000003
2025-11-06 18:37:40.251,313.575,-0.369,0.654,-0.018000000000000002,-0.245,-1.006,-0.084,62.2,-14.67,-66.96000000000001,-0.1927,0.3129,0.6228,0.6906,0.054,0.025,0.057
2025-11-06 18:37:40.251,313.58,-0.356,0.59,0.012,-0.263,-0.997,-0.079,62.64,-15.08,-68.07000000000001,-0.1905,0.3128,0.6203000000000001,0.6935,0.066,0.017,0.046
2025-11-06 18:37:40.251,313.585,-0.337,0.515,0.034,-0.256,-1.0030000000000001,-0.066,62.64,-15.08,-68.07000000000001,-0.1887,0.3129,0.6184000000000001,0.6956,0.055,0.024,0.028
2025-11-06 18:37:40.251,313.59,-0.324,0.462,0.049,-0.262,-0.996,-0.058,62.2,-14.44,-66.5,-0.1869,0.3134,0.6168,0.6973,0.056,0.018000000000000002,0.016
2025-11-06 18:37:40.251,313.595,-0.306,0.41500000000000004,0.066,-0.262,-0.98,-0.058,62.2,-14.44,-66.5,-0.1852,0.3141,0.6151,0.6989000000000001,0.052000000000000005,0.003,0.013000000000000001
2025-11-06 18:37:40.251,313.6,-0.306,0.365,0.078,-0.249,-0.991,-0.06,62.2,-14.44,-66.5,-0.1839,0.31420000000000003,0.6139,0.7003,0.035,0.015,0.012
2025-11-06 18:37:40.251,313.605,-0.302,0.28300000000000003,0.10200000000000001,-0.217,-0.979,-0.065,62.230000000000004,-14.9,-66.88,-0.18330000000000002,0.3133,0.6131,0.7016,0.002,0.004,0.014
2025-11-06 18:37:40.251,313.61,-0.294,0.227,0.117,-0.21,-0.972,-0.076,62.230000000000004,-14.9,-66.88,-0.1827,0.3121,0.6122000000000001,0.7030000000000001,-0.003,-0.002,0.021
2025-11-06 18:37:40.251,313.615,-0.278,0.176,0.135,-0.212,-0.966,-0.075,61.910000000000004,-14.76,-66.96000000000001,-0.1822,0.31120000000000003,0.6113000000000001,0.7043,-0.002,-0.008,0.017
2025-11-06 18:37:40.251,313.62,-0.254,0.136,0.14400000000000002,-0.198,-0.962,-0.08,61.910000000000004,-14.76,-66.96000000000001,-0.182,0.3098,0.6107,0.7056,-0.016,-0.011,0.019
2025-11-06 18:37:40.251,313.625,-0.216,0.145,0.149,-0.213,-0.934,-0.077,61.910000000000004,-14.76,-67.08,-0.1814,0.3094,0.6097,0.7067,-0.002,-0.039,0.013000000000000001
2025-11-06 18:37:40.251,313.63,-0.185,0.155,0.14,-0.219,-0.922,-0.09,62.26,-14.26,-67.08,-0.1806,0.30910000000000004,0.6085,0.7081000000000001,0.002,-0.051000000000000004,0.022
2025-11-06 18:37:40.251,313.635,-0.176,0.169,0.121,-0.221,-0.929,-0.106,62.26,-14.26,-67.08,-0.1797,0.30820000000000003,0.607,0.7100000000000001,0.002,-0.044,0.034
2025-11-06 18:37:40.251,313.64,-0.176,0.179,0.1,-0.227,-0.934,-0.114,61.910000000000004,-14.84,-66.64,-0.17880000000000001,0.3074,0.6054,0.7120000000000001,0.006,-0.037,0.037
2025-11-06 18:37:40.251,313.645,-0.162,0.193,0.07,-0.211,-0.9510000000000001,-0.106,61.910000000000004,-14.84,-66.64,-0.1782,0.3059,0.6046,0.7134,-0.009000000000000001,-0.02,0.025
2025-11-06 18:37:40.251,313.65,-0.153,0.211,0.042,-0.222,-0.966,-0.105,62.29,-14.9,-66.7,-0.1777,0.305,0.6038,0.7146,0.001,-0.004,0.022
2025-11-06 18:37:40.251,313.655,-0.16,0.229,0.027,-0.223,-0.989,-0.097,62.29,-14.9,-66.7,-0.1774,0.3042,0.6034,0.7153,0.002,0.017,0.011
2025-11-06 18:37:40.251,313.66,-0.171,0.24,0.017,-0.20800000000000002,-1.0010000000000001,-0.093,62.29,-14.9,-66.7,-0.1772,0.3027,0.6036,0.7159,-0.011,0.029,0.005
2025-11-06 18:37:40.251,313.665,-0.163,0.225,0.017,-0.215,-1.0,-0.089,61.910000000000004,-14.67,-66.93,-0.17700000000000002,0.3018,0.6037,0.7162000000000001,-0.003,0.028,0.0
2025-11-06 18:37:40.251,313.67,-0.14200000000000002,0.211,0.022,-0.217,-1.004,-0.093,61.910000000000004,-14.67,-66.93,-0.1768,0.301,0.6037,0.7166,-0.001,0.032,0.003
2025-11-06 18:37:40.251,313.675,-0.113,0.215,0.027,-0.218,-0.99,-0.101,62.17,-14.52,-67.17,-0.17650000000000002,0.3002,0.6034,0.7172000000000001,0.0,0.018000000000000002,0.01
2025-11-06 18:37:40.251,313.68,-0.08600000000000001,0.214,0.026000000000000002,-0.225,-0.988,-0.098,62.17,-14.52,-67.17,-0.1762,0.2999,0.6031000000000001,0.7177,0.007,0.016,0.006
2025-11-06 18:37:40.251,313.685,-0.065,0.221,0.026000000000000002,-0.216,-0.987,-0.096,63.22,-14.84,-66.99,-0.1759,0.2992,0.6031000000000001,0.7181000000000001,-0.001,0.015,0.003
2025-11-06 18:37:40.251,313.69,-0.057,0.209,0.025,-0.203,-0.983,-0.088,63.22,-14.84,-66.99,-0.1757,0.2983,0.6036,0.7181000000000001,-0.013000000000000001,0.011,-0.005
2025-11-06 18:37:40.251,313.695,-0.064,0.17500000000000002,0.02,-0.2,-0.987,-0.082,63.22,-14.84,-66.99,-0.1756,0.2974,0.6043000000000001,0.7179,-0.014,0.015,-0.01
2025-11-06 18:37:40.251,313.7,-0.07200000000000001,0.145,0.02,-0.195,-0.985,-0.081,62.08,-14.82,-66.85,-0.1757,0.2964,0.605,0.7177,-0.018000000000000002,0.012,-0.011
2025-11-06 18:37:40.251,313.705,-0.076,0.126,0.024,-0.189,-0.963,-0.07100000000000001,62.08,-14.82,-66.85,-0.1757,0.2957,0.6059,0.7173,-0.022,-0.009000000000000001,-0.019
2025-11-06 18:37:40.251,313.71,-0.083,0.10400000000000001,0.022,-0.185,-0.972,-0.08,62.730000000000004,-15.11,-66.64,-0.1759,0.29460000000000003,0.6065,0.7171000000000001,-0.024,-0.001,-0.01
2025-11-06 18:37:40.251,313.715,-0.085,0.089,0.024,-0.18,-0.961,-0.093,62.730000000000004,-15.11,-66.64,-0.1763,0.2934,0.6067,0.7173,-0.027,-0.012,0.002
2025-11-06 18:37:40.251,313.72,-0.083,0.094,0.021,-0.17300000000000001,-0.9570000000000001,-0.109,62.730000000000004,-15.11,-66.64,-0.1769,0.2919,0.6066,0.7179,-0.031,-0.017,0.016
2025-11-06 18:37:40.251,313.725,-0.073,0.10400000000000001,0.012,-0.17200000000000001,-0.9550000000000001,-0.128,62.75,-14.700000000000001,-66.96000000000001,-0.1777,0.2902,0.6058,0.7190000000000001,-0.03,-0.019,0.032
2025-11-06 18:37:40.251,313.73,-0.053,0.109,-0.002,-0.188,-0.9440000000000001,-0.135,62.75,-14.700000000000001,-66.96000000000001,-0.17830000000000001,0.2894,0.6046,0.7203,-0.012,-0.029,0.035
2025-11-06 18:37:40.251,313.735,-0.024,0.11,-0.02,-0.197,-0.9420000000000001,-0.137,62.61,-14.76,-68.19,-0.1787,0.28900000000000003,0.6033000000000001,0.7214,-0.003,-0.031,0.033
2025-11-06 18:37:40.251,313.74,-0.003,0.083,-0.037,-0.22,-0.9420000000000001,-0.131,62.61,-14.76,-68.19,-0.1789,0.2897,0.6018,0.7223,0.017,-0.03,0.024
2025-11-06 18:37:40.251,313.745,0.008,0.047,-0.048,-0.226,-0.9440000000000001,-0.11800000000000001,62.29,-15.14,-68.02,-0.17880000000000001,0.2908,0.6008,0.7227,0.021,-0.028,0.01
2025-11-06 18:37:40.251,313.75,0.019,0.019,-0.06,-0.23600000000000002,-0.9480000000000001,-0.107,62.29,-15.14,-68.02,-0.1786,0.2923,0.6,0.7228,0.028,-0.023,-0.001
2025-11-06 18:37:40.251,313.755,0.023,-0.001,-0.07200000000000001,-0.23700000000000002,-0.9490000000000001,-0.101,62.29,-15.14,-68.02,-0.1784,0.2939,0.5995,0.7226,0.027,-0.021,-0.007
2025-11-06 18:37:40.251,313.76,0.019,-0.02,-0.082,-0.222,-0.968,-0.088,62.370000000000005,-15.31,-67.81,-0.1784,0.2947,0.5999,0.7220000000000001,0.01,-0.003,-0.018000000000000002
2025-11-06 18:37:40.251,313.765,0.016,-0.028,-0.091,-0.228,-0.973,-0.078,62.370000000000005,-15.31,-67.81,-0.17830000000000001,0.2959,0.6004,0.7211000000000001,0.016,0.002,-0.026000000000000002
2025-11-06 18:37:40.251,313.77,0.013000000000000001,-0.009000000000000001,-0.089,-0.231,-0.983,-0.07100000000000001,62.14,-14.61,-67.78,-0.1782,0.29700000000000004,0.601,0.7201000000000001,0.018000000000000002,0.011,-0.029
2025-11-06 18:37:40.251,313.775,0.01,0.017,-0.085,-0.213,-0.993,-0.07200000000000001,62.14,-14.61,-67.78,-0.17850000000000002,0.2973,0.602,0.7192000000000001,0.0,0.021,-0.025
2025-11-06 18:37:40.251,313.78,-0.006,0.013000000000000001,-0.081,-0.20600000000000002,-0.994,-0.088,62.14,-14.61,-67.78,-0.1787,0.29700000000000004,0.6025,0.7188,-0.004,0.021,-0.008
2025-11-06 18:37:40.251,313.785,-0.023,0.046,-0.059000000000000004,-0.266,-0.989,-0.096,63.84,-14.32,-67.46000000000001,-0.1777,0.2985,0.6018,0.7190000000000001,0.051000000000000004,0.017,0.0
2025-11-06 18:37:40.251,313.79,-0.021,0.061,-0.037,-0.259,-0.984,-0.109,63.84,-14.32,-67.46000000000001,-0.1768,0.2995,0.6009,0.7196,0.041,0.013000000000000001,0.011
2025-11-06 18:37:40.251,313.795,-0.011,0.092,-0.034,-0.216,-0.965,-0.094,63.72,-14.76,-67.37,-0.1767,0.2993,0.601,0.7195,0.0,-0.005,-0.003
2025-11-06 18:37:40.251,313.8,-0.011,0.066,-0.023,-0.307,-0.963,-0.134,63.72,-14.76,-67.37,-0.1746,0.3013,0.5988,0.7211000000000001,0.083,-0.005,0.033
2025-11-06 18:37:40.251,313.805,-0.025,0.051000000000000004,-0.005,-0.309,-0.9570000000000001,-0.14,63.54,-14.99,-67.43,-0.1724,0.303,0.5965,0.7228,0.079,-0.009000000000000001,0.036000000000000004
2025-11-06 18:37:40.251,313.81,-0.018000000000000002,0.085,-0.003,-0.313,-0.9530000000000001,-0.10200000000000001,63.54,-14.99,-67.43,-0.171,0.306,0.595,0.7231000000000001,0.076,-0.011,-0.002
2025-11-06 18:37:40.251,313.815,-0.001,0.105,0.002,-0.316,-0.9460000000000001,-0.14100000000000001,63.54,-14.99,-67.43,-0.1685,0.3073,0.5929,0.7248,0.07200000000000001,-0.017,0.034
2025-11-06 18:37:40.251,313.82,0.004,0.075,0.005,-0.312,-0.936,-0.14200000000000002,63.28,-15.22,-66.96000000000001,-0.1663,0.3085,0.5910000000000001,0.7264,0.062,-0.025,0.032
2025-11-06 18:37:40.251,313.825,0.006,0.07200000000000001,0.009000000000000001,-0.27,-0.9420000000000001,-0.129,63.28,-15.22,-66.96000000000001,-0.1652,0.3083,0.5903,0.7273000000000001,0.016,-0.017,0.017
2025-11-06 18:37:40.251,313.83,0.005,0.055,-0.008,-0.277,-0.919,-0.146,62.64,-14.82,-67.75,-0.1637,0.3079,0.5891000000000001,0.7288,0.024,-0.041,0.031
2025-11-06 18:37:40.251,313.835,0.009000000000000001,0.08600000000000001,-0.009000000000000001,-0.306,-0.9460000000000001,-0.108,62.64,-14.82,-67.75,-0.1633,0.3104,0.5881000000000001,0.7287,0.046,-0.012,-0.006
2025-11-06 18:37:40.251,313.84,-0.008,0.1,-0.015,-0.291,-0.96,-0.101,62.64,-14.82,-67.75,-0.1633,0.3121,0.5877,0.7283000000000001,0.029,0.001,-0.012
2025-11-06 18:37:40.251,313.845,-0.026000000000000002,0.138,-0.021,-0.271,-0.977,-0.033,62.870000000000005,-14.290000000000001,-67.84,-0.16590000000000002,0.3159,0.5886,0.7253000000000001,0.008,0.019,-0.076
2025-11-06 18:37:40.251,313.85,-0.035,0.2,-0.025,-0.281,-0.986,-0.056,62.870000000000005,-14.290000000000001,-67.84,-0.1671,0.3184,0.5891000000000001,0.7236,0.018000000000000002,0.027,-0.047
2025-11-06 18:37:40.251,313.855,-0.052000000000000005,0.191,-0.017,-0.294,-0.977,-0.051000000000000004,62.58,-14.290000000000001,-67.67,-0.16790000000000002,0.32120000000000004,0.5893,0.7219,0.029,0.018000000000000002,-0.048
2025-11-06 18:37:40.251,313.86,-0.07,0.21,-0.014,-0.291,-0.973,-0.045,62.58,-14.290000000000001,-67.67,-0.1688,0.32380000000000003,0.5897,0.7202000000000001,0.024,0.014,-0.05
2025-11-06 18:37:40.251,313.865,-0.077,0.241,-0.009000000000000001,-0.291,-0.963,-0.036000000000000004,62.64,-15.31,-68.34,-0.1696,0.3265,0.5901000000000001,0.7185,0.022,0.004,-0.054
2025-11-06 18:37:40.251,313.87,-0.079,0.293,-0.007,-0.276,-0.9590000000000001,-0.038,62.64,-15.31,-68.34,-0.1705,0.3285,0.5906,0.7169,0.007,0.0,-0.049
2025-11-06 18:37:40.251,313.875,-0.083,0.356,-0.015,-0.266,-0.96,-0.046,62.64,-15.31,-68.34,-0.1714,0.3296,0.5911000000000001,0.7158,-0.002,0.0,-0.037
2025-11-06 18:37:40.251,313.88,-0.101,0.406,-0.023,-0.247,-0.968,-0.06,62.67,-15.200000000000001,-66.85,-0.1726,0.3295,0.5916,0.7151000000000001,-0.02,0.008,-0.022
2025-11-06 18:37:40.251,313.885,-0.131,0.453,-0.035,-0.20600000000000002,-1.0070000000000001,-0.066,62.67,-15.200000000000001,-66.85,-0.1757,0.3284,0.5925,0.7142000000000001,-0.056,0.046,-0.015
2025-11-06 18:37:40.251,313.89,-0.16,0.484,-0.034,-0.185,-0.986,-0.07200000000000001,62.7,-14.82,-66.96000000000001,-0.17880000000000001,0.3267,0.5932000000000001,0.7136,-0.07,0.023,-0.009000000000000001
2025-11-06 18:37:40.251,313.895,-0.243,0.463,-0.041,-0.188,-1.0230000000000001,-0.063,62.7,-14.82,-66.96000000000001,-0.182,0.32530000000000003,0.5941000000000001,0.7127,-0.06,0.058,-0.019
2025-11-06 18:37:40.251,313.9,-0.263,0.452,-0.032,-0.187,-1.0130000000000001,-0.055,62.7,-14.82,-66.96000000000001,-0.18480000000000002,0.3241,0.595,0.7117,-0.055,0.047,-0.025
2025-11-06 18:37:40.251,313.905,-0.308,0.462,-0.024,-0.202,-0.997,-0.079,63.02,-14.38,-67.34,-0.1865,0.32270000000000004,0.5952000000000001,0.7118,-0.035,0.03,-0.003
2025-11-06 18:37:40.251,313.91,-0.328,0.452,-0.021,-0.197,-0.978,-0.069,63.02,-14.38,-67.34,-0.188,0.3214,0.5955,0.7117,-0.037,0.01,-0.014
2025-11-06 18:37:40.251,313.915,-0.35000000000000003,0.46900000000000003,-0.035,-0.164,-0.976,-0.088,62.78,-14.64,-67.64,-0.19090000000000001,0.3194,0.5955,0.7118,-0.064,0.006,0.002
2025-11-06 18:37:40.251,313.92,-0.378,0.456,-0.04,-0.13,-0.983,-0.094,62.78,-14.64,-67.64,-0.195,0.3168,0.5956,0.7117,-0.09,0.012,0.005
2025-11-06 18:37:40.251,313.925,-0.4,0.426,-0.038,-0.17,-0.97,-0.101,62.81,-14.32,-67.58,-0.1971,0.3151,0.5951000000000001,0.7124,-0.044,-0.001,0.009000000000000001
2025-11-06 18:37:40.251,313.93,-0.437,0.422,-0.045,-0.199,-0.971,-0.109,62.81,-14.32,-67.58,-0.19790000000000002,0.3138,0.5942000000000001,0.7135,-0.014,-0.001,0.013000000000000001
2025-11-06 18:37:40.251,313.935,-0.444,0.406,-0.057,-0.203,-0.9580000000000001,-0.099,62.81,-14.32,-67.58,-0.198,0.31270000000000003,0.5936,0.7145,-0.008,-0.013000000000000001,0.0
2025-11-06 18:37:40.251,313.94,-0.447,0.393,-0.074,-0.2,-0.973,-0.081,63.51,-14.26,-67.61,-0.19790000000000002,0.3114,0.5939,0.7148,-0.01,0.0,-0.018000000000000002
2025-11-06 18:37:40.251,313.945,-0.468,0.40800000000000003,-0.084,-0.193,-0.992,-0.07,63.51,-14.26,-67.61,-0.1978,0.31,0.5947,0.7148,-0.015,0.019,-0.029
2025-11-06 18:37:40.251,313.95,-0.506,0.432,-0.08700000000000001,-0.17500000000000002,-0.997,-0.078,63.78,-14.23,-67.72,-0.1986,0.3083,0.5953,0.7148,-0.029,0.023,-0.022
2025-11-06 18:37:40.251,313.955,-0.545,0.41200000000000003,-0.084,-0.17400000000000002,-0.991,-0.085,63.78,-14.23,-67.72,-0.19940000000000002,0.30660000000000004,0.5955,0.7151000000000001,-0.027,0.017,-0.016
2025-11-06 18:37:40.251,313.96,-0.5720000000000001,0.369,-0.078,-0.19,-0.982,-0.082,62.81,-14.61,-68.02,-0.1993,0.3053,0.5957,0.7156,-0.009000000000000001,0.008,-0.02
2025-11-06 18:37:40.251,313.965,-0.597,0.332,-0.075,-0.192,-0.969,-0.076,62.81,-14.61,-68.02,-0.1988,0.3042,0.596,0.7160000000000001,-0.006,-0.005,-0.027
2025-11-06 18:37:40.251,313.97,-0.629,0.309,-0.078,-0.2,-0.964,-0.064,62.81,-14.61,-68.02,-0.1975,0.30310000000000004,0.5966,0.7162000000000001,0.001,-0.009000000000000001,-0.04
2025-11-06 18:37:40.251,313.975,-0.663,0.314,-0.08600000000000001,-0.20400000000000001,-0.97,-0.055,62.64,-14.58,-67.61,-0.196,0.30210000000000004,0.5975,0.7163,0.005,-0.003,-0.047
2025-11-06 18:37:40.251,313.98,-0.6930000000000001,0.352,-0.096,-0.178,-0.966,-0.065,62.64,-14.58,-67.61,-0.1961,0.3008,0.5981000000000001,0.7164,-0.018000000000000002,-0.008,-0.038
2025-11-06 18:37:40.251,313.985,-0.738,0.403,-0.113,-0.162,-0.984,-0.066,63.22,-14.93,-67.49,-0.197,0.2993,0.5986,0.7163,-0.031,0.008,-0.037
2025-11-06 18:37:40.251,313.99,-0.776,0.395,-0.114,-0.17400000000000002,-0.979,-0.052000000000000005,63.22,-14.93,-67.49,-0.1967,0.2978,0.5996,0.7162000000000001,-0.016,0.003,-0.051000000000000004
2025-11-06 18:37:40.251,313.995,-0.803,0.387,-0.114,-0.193,-0.982,-0.039,63.22,-14.93,-67.49,-0.1948,0.2963,0.601,0.7162000000000001,0.002,0.006,-0.062
2025-11-06 18:37:40.251,314.0,-0.8200000000000001,0.383,-0.107,-0.212,-0.9540000000000001,-0.042,62.99,-13.91,-67.87,-0.1915,0.2949,0.602,0.7167,0.021,-0.021,-0.058
2025-11-06 18:37:40.251,314.005,-0.843,0.39,-0.094,-0.22,-0.9480000000000001,-0.058,62.99,-13.91,-67.87,-0.1884,0.2936,0.6024,0.7178,0.026000000000000002,-0.027,-0.042
2025-11-06 18:37:40.251,314.01,-0.885,0.397,-0.083,-0.179,-0.964,-0.078,63.25,-13.94,-68.57000000000001,-0.1889,0.29250000000000004,0.6019,0.7185,-0.014,-0.011,-0.024
2025-11-06 18:37:40.251,314.015,-0.929,0.401,-0.085,-0.17300000000000001,-0.969,-0.10400000000000001,63.25,-13.94,-68.57000000000001,-0.1904,0.2913,0.6005,0.7198,-0.017,-0.005,-0.002
2025-11-06 18:37:40.251,314.02,-0.978,0.421,-0.08700000000000001,-0.17,-0.987,-0.136,63.4,-13.82,-68.13,-0.1925,0.2899,0.5982000000000001,0.7217,-0.018000000000000002,0.011,0.022
2025-11-06 18:37:40.251,314.025,-1.03,0.468,-0.079,-0.164,-0.979,-0.168,63.4,-13.82,-68.13,-0.1952,0.2883,0.595,0.7243,-0.021,0.005,0.045
2025-11-06 18:37:40.251,314.03,-1.075,0.505,-0.046,-0.157,-0.963,-0.187,63.4,-13.82,-68.13,-0.1981,0.28650000000000003,0.5912000000000001,0.7273000000000001,-0.025,-0.01,0.053
2025-11-06 18:37:40.251,314.035,-1.059,0.494,-0.02,-0.133,-0.9540000000000001,-0.165,63.49,-13.73,-68.75,-0.20120000000000002,0.2846,0.5887,0.7292000000000001,-0.045,-0.019,0.022
2025-11-06 18:37:40.251,314.04,-1.033,0.451,-0.002,-0.14,-0.9460000000000001,-0.155,63.49,-13.73,-68.75,-0.20320000000000002,0.2828,0.5868,0.7309,-0.034,-0.026000000000000002,0.006
2025-11-06 18:37:40.251,314.045,-1.028,0.41500000000000004,0.005,-0.147,-0.931,-0.163,63.25,-13.24,-69.36,-0.20470000000000002,0.2813,0.5847,0.7328,-0.025,-0.04,0.007
2025-11-06 18:37:40.251,314.05,-1.062,0.4,0.0,-0.14400000000000002,-0.9410000000000001,-0.201,63.25,-13.24,-69.36,-0.2073,0.2797,0.5814,0.7353000000000001,-0.026000000000000002,-0.029,0.036000000000000004
2025-11-06 18:37:40.251,314.055,-1.099,0.387,-0.007,-0.147,-0.919,-0.199,63.25,-13.24,-69.36,-0.2092,0.2783,0.5782,0.7378,-0.021,-0.05,0.025
2025-11-06 18:37:40.251,314.06,-1.102,0.36,-0.021,-0.158,-0.893,-0.186,64.57000000000001,-13.21,-69.65,-0.21000000000000002,0.2772,0.5755,0.7401,-0.01,-0.075,0.004
2025-11-06 18:37:40.251,314.065,-1.088,0.334,-0.032,-0.168,-0.871,-0.171,64.57000000000001,-13.21,-69.65,-0.20980000000000001,0.27640000000000003,0.5734,0.7421,0.0,-0.096,-0.016
2025-11-06 18:37:40.251,314.07,-1.072,0.316,-0.053,-0.165,-0.872,-0.162,63.72,-13.3,-70.59,-0.2093,0.2755,0.5720000000000001,0.7436,-0.004,-0.094,-0.029
2025-11-06 18:37:40.251,314.075,-1.066,0.326,-0.073,-0.201,-0.876,-0.17400000000000002,63.72,-13.3,-70.59,-0.2078,0.27540000000000003,0.5699000000000001,0.7457,0.028,-0.088,-0.023
2025-11-06 18:37:40.251,314.08,-1.071,0.34500000000000003,-0.097,-0.213,-0.884,-0.20400000000000001,64.1,-13.15,-70.73,-0.20650000000000002,0.27540000000000003,0.5669000000000001,0.7483000000000001,0.035,-0.078,0.0
2025-11-06 18:37:40.251,314.085,-1.094,0.364,-0.137,-0.22,-0.912,-0.216,64.1,-13.15,-70.73,-0.20550000000000002,0.2751,0.5639000000000001,0.7509,0.039,-0.047,0.005
2025-11-06 18:37:40.251,314.09,-1.1260000000000001,0.371,-0.167,-0.189,-0.916,-0.234,64.1,-13.15,-70.73,-0.2058,0.2737,0.5611,0.7535000000000001,0.007,-0.042,0.015
2025-11-06 18:37:40.251,314.095,-1.178,0.37,-0.187,-0.219,-0.936,-0.226,63.870000000000005,-13.59,-70.79,-0.2053,0.2733,0.5584,0.7557,0.035,-0.02,0.001
2025-11-06 18:37:40.251,314.1,-1.209,0.362,-0.19,-0.24,-0.9380000000000001,-0.199,63.870000000000005,-13.59,-70.79,-0.2041,0.274,0.5565,0.7572,0.054,-0.016,-0.03
2025-11-06 18:37:40.251,314.105,-1.207,0.354,-0.19,-0.23900000000000002,-0.9550000000000001,-0.166,63.660000000000004,-13.06,-71.55,-0.2031,0.2751,0.5558000000000001,0.7576,0.049,0.001,-0.063
2025-11-06 18:37:40.251,314.11,-1.209,0.324,-0.188,-0.211,-0.962,-0.159,63.660000000000004,-13.06,-71.55,-0.2033,0.2757,0.5557,0.7574000000000001,0.019,0.008,-0.07100000000000001
2025-11-06 18:37:40.251,314.115,-1.232,0.259,-0.184,-0.192,-0.976,-0.16,63.660000000000004,-13.06,-71.55,-0.20450000000000002,0.2761,0.5557,0.7569,0.001,0.021,-0.069
2025-11-06 18:37:40.251,314.12,-1.298,0.228,-0.168,-0.178,-0.964,-0.18,63.75,-12.83,-72.11,-0.20620000000000002,0.2757,0.5551,0.7571,-0.01,0.009000000000000001,-0.05
2025-11-06 18:37:40.251,314.125,-1.327,0.257,-0.151,-0.183,-0.962,-0.20500000000000002,63.75,-12.83,-72.11,-0.2074,0.27490000000000003,0.5537000000000001,0.758,-0.003,0.008,-0.029
2025-11-06 18:37:40.251,314.13,-1.319,0.276,-0.127,-0.171,-0.96,-0.211,64.74,-12.39,-72.25,-0.20900000000000002,0.274,0.5524,0.7589,-0.014,0.007,-0.027
2025-11-06 18:37:40.251,314.135,-1.282,0.271,-0.112,-0.183,-0.9590000000000001,-0.219,64.74,-12.39,-72.25,-0.20980000000000001,0.2731,0.5509000000000001,0.7601,0.0,0.007,-0.023
2025-11-06 18:37:40.251,314.14,-1.234,0.23,-0.095,-0.19,-0.9400000000000001,-0.198,63.870000000000005,-11.950000000000001,-72.28,-0.2099,0.27290000000000003,0.5501,0.7607,0.006,-0.011,-0.047
2025-11-06 18:37:40.251,314.145,-1.206,0.17200000000000001,-0.081,-0.162,-0.9380000000000001,-0.182,63.870000000000005,-11.950000000000001,-72.28,-0.2116,0.2728,0.5498000000000001,0.7604000000000001,-0.02,-0.012,-0.063
2025-11-06 18:37:40.251,314.15,-1.188,0.133,-0.075,-0.145,-0.926,-0.185,63.870000000000005,-11.950000000000001,-72.28,-0.2141,0.2726,0.5495,0.76,-0.034,-0.025,-0.061
2025-11-06 18:37:40.251,314.155,-1.192,0.133,-0.077,-0.15,-0.921,-0.226,64.71000000000001,-11.69,-72.55,-0.2162,0.2718,0.5479,0.7609,-0.026000000000000002,-0.03,-0.024
2025-11-06 18:37:40.251,314.16,-1.212,0.165,-0.075,-0.153,-0.923,-0.272,64.71000000000001,-11.69,-72.55,-0.21830000000000002,0.27030000000000004,0.545,0.7629,-0.021,-0.026000000000000002,0.014
2025-11-06 18:37:40.251,314.165,-1.2610000000000001,0.189,-0.083,-0.162,-0.93,-0.292,63.84,-11.370000000000001,-73.31,-0.2199,0.2686,0.5418000000000001,0.7654000000000001,-0.01,-0.017,0.026000000000000002
2025-11-06 18:37:40.251,314.17,-1.276,0.187,-0.095,-0.193,-0.931,-0.297,63.84,-11.370000000000001,-73.31,-0.21960000000000002,0.26730000000000004,0.5385,0.7682,0.02,-0.014,0.022
2025-11-06 18:37:40.251,314.175,-1.281,0.17400000000000002,-0.10400000000000001,-0.216,-0.922,-0.28800000000000003,63.84,-11.370000000000001,-73.31,-0.21810000000000002,0.2665,0.5356000000000001,0.7709,0.039,-0.02,0.006
2025-11-06 18:37:40.251,314.18,-1.2650000000000001,0.163,-0.109,-0.221,-0.909,-0.271,64.3,-10.78,-73.31,-0.2164,0.26630000000000004,0.5332,0.7731,0.041,-0.031,-0.016
2025-11-06 18:37:40.251,314.185,-1.246,0.151,-0.129,-0.20400000000000001,-0.901,-0.251,64.3,-10.78,-73.31,-0.2157,0.26630000000000004,0.5317000000000001,0.7744000000000001,0.022,-0.037,-0.039
2025-11-06 18:37:40.251,314.19,-1.243,0.153,-0.15,-0.211,-0.901,-0.25,66.15,-11.13,-74.62,-0.21480000000000002,0.2665,0.5302,0.7756000000000001,0.026000000000000002,-0.035,-0.044
2025-11-06 18:37:40.251,314.195,-1.242,0.166,-0.16,-0.214,-0.889,-0.269,66.15,-11.13,-74.62,-0.2137,0.2662,0.5282,0.7773,0.027,-0.045,-0.029
2025-11-06 18:37:40.251,314.2,-1.242,0.196,-0.156,-0.224,-0.878,-0.275,64.89,-11.07,-75.44,-0.2121,0.266,0.5261,0.7793,0.033,-0.054,-0.028
2025-11-06 18:37:40.251,314.205,-1.264,0.244,-0.156,-0.133,-0.881,-0.33,64.89,-11.07,-75.44,-0.2149,0.26280000000000003,0.5231,0.7816000000000001,-0.055,-0.05,0.019
2025-11-06 18:37:40.251,314.21,-1.329,0.243,-0.18,-0.187,-0.861,-0.363,64.89,-11.07,-75.44,-0.2146,0.26,0.5189,0.7855000000000001,0.001,-0.066,0.039
2025-11-06 18:37:40.251,314.215,-1.3940000000000001,0.28800000000000003,-0.17500000000000002,-0.176,-0.859,-0.36,64.83,-10.81,-75.32000000000001,-0.21480000000000002,0.25730000000000003,0.5149,0.7889,-0.008,-0.064,0.026000000000000002
2025-11-06 18:37:40.259,314.22,-1.424,0.338,-0.159,-0.169,-0.85,-0.358,64.83,-10.81,-75.32000000000001,-0.21530000000000002,0.2546,0.5112,0.792,-0.013000000000000001,-0.07,0.013000000000000001
2025-11-06 18:37:40.259,314.225,-1.416,0.34,-0.14,-0.164,-0.841,-0.38,66.5,-10.200000000000001,-75.41,-0.2157,0.2515,0.5071,0.7955,-0.016,-0.075,0.024
2025-11-06 18:37:40.259,314.23,-1.3960000000000001,0.255,-0.11800000000000001,-0.14300000000000002,-0.8310000000000001,-0.372,66.5,-10.200000000000001,-75.41,-0.21680000000000002,0.2484,0.5037,0.7984,-0.035,-0.081,0.005
2025-11-06 18:37:40.259,314.235,-1.3940000000000001,0.17300000000000001,-0.109,-0.147,-0.8180000000000001,-0.368,64.6,-10.200000000000001,-76.03,-0.21780000000000002,0.2459,0.5003000000000001,0.801,-0.029,-0.09,-0.007
2025-11-06 18:37:40.259,314.24,-1.426,0.17200000000000001,-0.114,-0.136,-0.8260000000000001,-0.375,64.6,-9.0,-76.03,-0.21910000000000002,0.2432,0.49720000000000003,0.8034,-0.037,-0.08,-0.009000000000000001
2025-11-06 18:37:40.259,314.245,-1.468,0.176,-0.116,-0.108,-0.8260000000000001,-0.376,64.6,-9.0,-76.03,-0.2209,0.2396,0.49470000000000003,0.8056000000000001,-0.059000000000000004,-0.076,-0.017
2025-11-06 18:37:40.259,314.25,-1.479,0.161,-0.112,-0.101,-0.8310000000000001,-0.367,64.8,-9.23,-76.49,-0.2227,0.23620000000000002,0.4928,0.8072,-0.061,-0.07,-0.033
2025-11-06 18:37:40.259,314.255,-1.433,0.094,-0.114,-0.097,-0.807,-0.389,64.8,-9.23,-76.49,-0.2248,0.23270000000000002,0.49000000000000005,0.8093,-0.06,-0.09,-0.019
2025-11-06 18:37:40.259,314.26,-1.4040000000000001,0.051000000000000004,-0.13,-0.134,-0.8220000000000001,-0.396,65.41,-8.71,-76.41,-0.22610000000000002,0.23120000000000002,0.4869,0.8113,-0.02,-0.07200000000000001,-0.02
2025-11-06 18:37:40.259,314.265,-1.389,0.037,-0.147,-0.192,-0.864,-0.392,65.41,-8.71,-76.41,-0.22640000000000002,0.2321,0.48400000000000004,0.8127000000000001,0.035,-0.028,-0.029
2025-11-06 18:37:40.259,314.27,-1.385,0.055,-0.153,-0.2,-0.881,-0.38,65.41,-8.71,-76.41,-0.22640000000000002,0.2333,0.48200000000000004,0.8135,0.04,-0.009000000000000001,-0.045
2025-11-06 18:37:40.259,314.275,-1.366,0.095,-0.163,-0.21,-0.876,-0.371,65.53,-8.5,-77.31,-0.22610000000000002,0.2349,0.4802,0.8142,0.046,-0.012,-0.056
2025-11-06 18:37:40.259,314.28,-1.333,0.131,-0.169,-0.213,-0.877,-0.359,65.53,-8.5,-77.31,-0.22590000000000002,0.2366,0.47900000000000004,0.8145,0.045,-0.009000000000000001,-0.069
2025-11-06 18:37:40.259,314.285,-1.303,0.181,-0.182,-0.209,-0.884,-0.337,64.8,-7.92,-78.01,-0.22590000000000002,0.23850000000000002,0.4788,0.8141,0.038,-0.002,-0.09
2025-11-06 18:37:40.259,314.29,-1.283,0.27,-0.199,-0.191,-0.877,-0.34800000000000003,64.8,-7.92,-78.01,-0.22640000000000002,0.2393,0.47840000000000005,0.8139000000000001,0.018000000000000002,-0.009000000000000001,-0.078
2025-11-06 18:37:40.259,314.295,-1.284,0.381,-0.209,-0.158,-0.878,-0.40900000000000003,65.21000000000001,-7.95,-77.81,-0.2277,0.23770000000000002,0.4767,0.8150000000000001,-0.012,-0.007,-0.021
2025-11-06 18:37:40.259,314.3,-1.264,0.461,-0.209,-0.147,-0.879,-0.449,65.21000000000001,-7.95,-77.81,-0.22920000000000001,0.2351,0.4743,0.8168000000000001,-0.02,-0.003,0.011
2025-11-06 18:37:40.259,314.305,-1.2550000000000001,0.495,-0.198,-0.149,-0.872,-0.448,65.21000000000001,-7.95,-77.81,-0.2303,0.2326,0.47200000000000003,0.8185,-0.014,-0.008,0.003
2025-11-06 18:37:40.259,314.31,-1.2690000000000001,0.554,-0.185,-0.121,-0.867,-0.432,66.47,-7.48,-78.31,-0.23220000000000002,0.22970000000000002,0.4706,0.8196,-0.038,-0.01,-0.017
2025-11-06 18:37:40.259,314.315,-1.299,0.596,-0.16,-0.105,-0.856,-0.401,66.47,-7.48,-78.31,-0.23440000000000003,0.22710000000000002,0.4701,0.8199000000000001,-0.048,-0.021,-0.052000000000000005
2025-11-06 18:37:40.259,314.32,-1.355,0.621,-0.14400000000000002,-0.061,-0.8190000000000001,-0.352,65.03,-6.69,-78.54,-0.2379,0.224,0.4711,0.8193,-0.083,-0.058,-0.10200000000000001
2025-11-06 18:37:40.259,314.325,-1.395,0.656,-0.137,-0.053,-0.797,-0.34500000000000003,65.03,-6.69,-78.54,-0.2411,0.22080000000000002,0.47190000000000004,0.8187000000000001,-0.082,-0.081,-0.111
2025-11-06 18:37:40.259,314.33,-1.425,0.71,-0.14400000000000002,-0.015,-0.769,-0.398,65.03,-6.69,-78.54,-0.2472,0.21630000000000002,0.4703,0.8190000000000001,-0.109,-0.108,-0.062
2025-11-06 18:37:40.259,314.335,-1.434,0.742,-0.156,-0.017,-0.74,-0.47800000000000004,65.01,-5.84,-78.60000000000001,-0.25470000000000004,0.2117,0.4652,0.8208000000000001,-0.095,-0.132,0.004
2025-11-06 18:37:40.259,314.34,-1.4060000000000001,0.766,-0.17400000000000002,-0.033,-0.716,-0.558,65.01,-5.84,-78.60000000000001,-0.2629,0.2076,0.45690000000000003,0.8239000000000001,-0.07,-0.148,0.067
2025-11-06 18:37:40.259,314.345,-1.363,0.769,-0.20400000000000001,-0.059000000000000004,-0.682,-0.618,65.65,-6.0200000000000005,-78.71000000000001,-0.2712,0.2043,0.44620000000000004,0.8279000000000001,-0.038,-0.17,0.105
2025-11-06 18:37:40.259,314.35,-1.368,0.723,-0.23600000000000002,-0.081,-0.677,-0.645,65.65,-6.0200000000000005,-78.71000000000001,-0.2787,0.20170000000000002,0.43520000000000003,0.8319000000000001,-0.012,-0.162,0.111
2025-11-06 18:37:40.259,314.355,-1.3880000000000001,0.629,-0.276,-0.117,-0.6960000000000001,-0.612,65.79,-5.67,-79.33,-0.2844,0.2011,0.42610000000000003,0.8348,0.024,-0.131,0.06
2025-11-06 18:37:40.259,314.36,-1.43,0.488,-0.308,-0.075,-0.6950000000000001,-0.557,65.79,-5.67,-79.33,-0.2874,0.1983,0.42050000000000004,0.8373,-0.015,-0.124,-0.007
2025-11-06 18:37:40.259,314.365,-1.439,0.359,-0.378,-0.156,-0.6980000000000001,-0.437,65.79,-5.67,-79.33,-0.2891,0.2018,0.4177,0.8373,0.061,-0.117,-0.131
2025-11-06 18:37:40.259,314.37,-1.418,0.34600000000000003,-0.432,-0.166,-0.736,-0.38,65.65,-4.88,-79.09,-0.2883,0.2056,0.4183,0.8363,0.065,-0.081,-0.185
2025-11-06 18:37:40.259,314.375,-1.421,0.383,-0.47000000000000003,-0.194,-0.753,-0.38,65.65,-4.88,-79.09,-0.2871,0.2101,0.4187,0.8354,0.085,-0.066,-0.18
2025-11-06 18:37:40.259,314.38,-1.459,0.375,-0.493,-0.20600000000000002,-0.772,-0.41000000000000003,66.03,-4.15,-80.06,-0.2862,0.2141,0.4182,0.8349000000000001,0.09,-0.048,-0.148
2025-11-06 18:37:40.259,314.385,-1.496,0.358,-0.497,-0.201,-0.787,-0.392,66.03,-4.15,-80.06,-0.2857,0.21810000000000002,0.4186,0.8339000000000001,0.078,-0.035,-0.163
2025-11-06 18:37:40.259,314.39,-1.52,0.41100000000000003,-0.47400000000000003,-0.16,-0.804,-0.387,66.03,-4.15,-80.06,-0.2869,0.2207,0.4199,0.8321000000000001,0.034,-0.02,-0.163
2025-11-06 18:37:40.259,314.395,-1.532,0.46,-0.436,-0.138,-0.805,-0.4,66.17,-3.62,-80.06,-0.2889,0.222,0.42100000000000004,0.8306,0.012,-0.022,-0.147
2025-11-06 18:37:40.259,314.4,-1.567,0.47500000000000003,-0.397,-0.128,-0.804,-0.396,66.17,-3.62,-80.06,-0.2909,0.22310000000000002,0.42210000000000003,0.8290000000000001,0.004,-0.024,-0.148
2025-11-06 18:37:40.259,314.405,-1.609,0.506,-0.357,-0.111,-0.792,-0.396,66.17,-3.36,-80.82000000000001,-0.2936,0.22360000000000002,0.4229,0.8275,-0.01,-0.038,-0.145
2025-11-06 18:37:40.259,314.41,-1.647,0.613,-0.316,-0.069,-0.763,-0.538,66.17,-3.36,-80.82000000000001,-0.29710000000000003,0.2194,0.4194,0.8292,-0.046,-0.064,-0.01
2025-11-06 18:37:40.259,314.415,-1.6540000000000001,0.729,-0.266,-0.09,-0.737,-0.622,66.64,-2.89,-81.4,-0.2972,0.2134,0.4136,0.8336,-0.02,-0.081,0.06
2025-11-06 18:37:40.259,314.42,-1.6480000000000001,0.759,-0.21,-0.07100000000000001,-0.708,-0.672,66.64,-2.89,-81.4,-0.29700000000000004,0.20600000000000002,0.4066,0.8389000000000001,-0.033,-0.098,0.092
2025-11-06 18:37:40.260,314.425,-1.6520000000000001,0.709,-0.186,-0.145,-0.671,-0.603,66.64,-2.89,-81.4,-0.29400000000000004,0.2024,0.4001,0.8440000000000001,0.04,-0.125,0.009000000000000001
2025-11-06 18:37:40.260,314.43,-1.7,0.709,-0.186,-0.14300000000000002,-0.646,-0.579,67.05,-2.33,-81.17,-0.2914,0.1993,0.394,0.8485,0.035,-0.14,-0.027
2025-11-06 18:37:40.261,314.435,-1.76,0.7020000000000001,-0.217,-0.117,-0.632,-0.55,67.05,-2.33,-81.17,-0.2903,0.1962,0.389,0.8519,0.008,-0.146,-0.067
2025-11-06 18:37:40.261,314.44,-1.786,0.756,-0.274,-0.10400000000000001,-0.622,-0.552,66.91,-1.57,-81.7,-0.2897,0.1925,0.38430000000000003,0.8551000000000001,-0.003,-0.147,-0.075
2025-11-06 18:37:40.261,314.445,-1.801,0.836,-0.327,-0.085,-0.634,-0.58,66.91,-1.57,-81.7,-0.28950000000000004,0.1877,0.3798,0.8582000000000001,-0.017,-0.128,-0.057
2025-11-06 18:37:40.261,314.45,-1.83,0.876,-0.376,-0.127,-0.633,-0.589,66.91,-1.57,-81.7,-0.28900000000000003,0.185,0.37460000000000004,0.8613000000000001,0.026000000000000002,-0.121,-0.058
2025-11-06 18:37:40.261,314.455,-1.868,0.836,-0.428,-0.157,-0.642,-0.5740000000000001,67.08,-0.7000000000000001,-81.67,-0.2892,0.1845,0.3698,0.8634000000000001,0.053,-0.10400000000000001,-0.082
2025-11-06 18:37:40.261,314.46,-1.881,0.747,-0.47200000000000003,-0.151,-0.64,-0.523,67.08,-0.7000000000000001,-81.67,-0.2911,0.1857,0.3665,0.8639,0.044,-0.101,-0.138
2025-11-06 18:37:40.261,314.465,-1.867,0.6960000000000001,-0.501,-0.107,-0.647,-0.449,68.07000000000001,0.11,-81.81,-0.2962,0.1875,0.36660000000000004,0.8617,0.0,-0.094,-0.212
2025-11-06 18:37:40.261,314.47,-1.858,0.6920000000000001,-0.523,-0.079,-0.656,-0.395,68.07000000000001,0.11,-81.81,-0.3033,0.1898,0.369,0.8577,-0.023,-0.089,-0.261
2025-11-06 18:37:40.261,314.475,-1.851,0.6890000000000001,-0.541,-0.031,-0.67,-0.418,67.87,0.64,-82.08,-0.3115,0.18960000000000002,0.3715,0.8538,-0.063,-0.08,-0.234
2025-11-06 18:37:40.261,314.48,-1.845,0.712,-0.514,0.015,-0.669,-0.47100000000000003,67.87,0.64,-82.08,-0.32020000000000004,0.1864,0.37260000000000004,0.8507,-0.097,-0.083,-0.181
2025-11-06 18:37:40.261,314.485,-1.837,0.739,-0.47500000000000003,0.036000000000000004,-0.656,-0.5710000000000001,67.87,0.64,-82.08,-0.3279,0.1806,0.37060000000000004,0.8499,-0.10400000000000001,-0.093,-0.08600000000000001
2025-11-06 18:37:40.261,314.49,-1.853,0.747,-0.425,0.028,-0.663,-0.6880000000000001,68.4,1.4000000000000001,-81.58,-0.3335,0.17370000000000002,0.36560000000000004,0.8513000000000001,-0.083,-0.077,0.019
2025-11-06 18:37:40.261,314.495,-1.891,0.682,-0.341,0.021,-0.66,-0.751,68.4,1.4000000000000001,-81.58,-0.3378,0.16690000000000002,0.3592,0.8537,-0.065,-0.069,0.068
2025-11-06 18:37:40.261,314.5,-1.953,0.611,-0.29,-0.036000000000000004,-0.642,-0.593,68.75,1.95,-83.10000000000001,-0.33840000000000003,0.16390000000000002,0.3564,0.8552000000000001,-0.004,-0.079,-0.097
2025-11-06 18:37:40.261,314.505,-1.988,0.588,-0.251,-0.012,-0.613,-0.545,68.75,1.95,-83.10000000000001,-0.33940000000000003,0.1607,0.3548,0.8561000000000001,-0.022,-0.10300000000000001,-0.15
2025-11-06 18:37:40.261,314.51,-1.993,0.671,-0.258,-0.001,-0.578,-0.548,68.75,1.95,-82.98,-0.341,0.1568,0.3523,0.8572000000000001,-0.028,-0.133,-0.152
2025-11-06 18:37:40.261,314.515,-2.0380000000000003,0.75,-0.28700000000000003,-0.019,-0.543,-0.595,68.69,2.8000000000000003,-82.98,-0.34240000000000004,0.1526,0.34690000000000004,0.8596,-0.005,-0.16,-0.114
2025-11-06 18:37:40.261,314.52,-2.1,0.765,-0.321,-0.056,-0.512,-0.621,68.69,2.8000000000000003,-82.98,-0.34240000000000004,0.1492,0.3396,0.8631000000000001,0.031,-0.179,-0.1
2025-11-06 18:37:40.261,314.525,-2.184,0.675,-0.363,-0.06,-0.51,-0.632,68.72,3.59,-83.45,-0.34240000000000004,0.1462,0.3322,0.8665,0.035,-0.168,-0.101
2025-11-06 18:37:40.261,314.53,-2.259,0.709,-0.39,-0.047,-0.514,-0.623,68.72,3.59,-83.45,-0.34290000000000004,0.14300000000000002,0.3259,0.8693000000000001,0.021,-0.152,-0.12
2025-11-06 18:37:40.261,314.535,-2.293,0.789,-0.40900000000000003,-0.032,-0.48,-0.624,68.69,4.12,-83.25,-0.3436,0.1386,0.31920000000000004,0.8722000000000001,0.009000000000000001,-0.17400000000000002,-0.13
2025-11-06 18:37:40.261,314.54,-2.295,0.867,-0.438,-0.03,-0.448,-0.643,68.69,4.12,-83.25,-0.3441,0.13340000000000002,0.3114,0.8756,0.009000000000000001,-0.192,-0.123
2025-11-06 18:37:40.261,314.545,-2.297,0.913,-0.506,0.045,-0.422,-0.739,68.69,4.12,-83.25,-0.34440000000000004,0.12300000000000001,0.3025,0.8801,-0.057,-0.2,-0.042
2025-11-06 18:37:40.261,314.55,-2.2640000000000002,0.924,-0.594,0.088,-0.439,-0.719,69.71000000000001,5.23,-82.75,-0.3446,0.11180000000000001,0.2964,0.8836,-0.085,-0.165,-0.076
2025-11-06 18:37:40.261,314.555,-2.1710000000000003,0.922,-0.634,0.083,-0.439,-0.709,69.71000000000001,5.23,-82.75,-0.3451,0.10200000000000001,0.2911,0.8863000000000001,-0.066,-0.15,-0.097
2025-11-06 18:37:40.262,314.56,-2.058,0.867,-0.652,0.115,-0.47300000000000003,-0.763,69.62,6.3100000000000005,-83.27,-0.3451,0.09190000000000001,0.2869,0.8888,-0.084,-0.10300000000000001,-0.052000000000000005
2025-11-06 18:37:40.262,314.565,-1.975,0.772,-0.649,0.123,-0.505,-0.851,69.62,6.3100000000000005,-83.27,-0.3458,0.083,0.2822,0.8909,-0.079,-0.057,0.026000000000000002
2025-11-06 18:37:40.262,314.57,-1.956,0.659,-0.601,0.076,-0.547,-0.856,69.97,7.6000000000000005,-83.86,-0.34690000000000004,0.0781,0.2782,0.8922,-0.024,-0.005,0.024
2025-11-06 18:37:40.262,314.575,-1.97,0.644,-0.5700000000000001,0.039,-0.549,-0.8230000000000001,69.97,7.6000000000000005,-83.86,-0.3482,0.0755,0.2746,0.893,0.016,0.004,-0.012
2025-11-06 18:37:40.262,314.58,-1.962,0.65,-0.534,0.002,-0.541,-0.788,69.97,7.6000000000000005,-83.86,-0.34990000000000004,0.0751,0.2713,0.8934000000000001,0.053,0.002,-0.052000000000000005
2025-11-06 18:37:40.262,314.585,-1.915,0.687,-0.493,-0.027,-0.537,-0.745,70.85000000000001,7.92,-83.98,-0.3512,0.07640000000000001,0.2687,0.8935000000000001,0.08,0.002,-0.097
2025-11-06 18:37:40.262,314.59,-1.868,0.732,-0.464,-0.023,-0.518,-0.833,70.85000000000001,7.92,-83.98,-0.35350000000000004,0.0766,0.2639,0.8941,0.073,-0.009000000000000001,-0.013000000000000001
2025-11-06 18:37:40.262,314.595,-1.824,0.776,-0.43,-0.01,-0.525,-0.994,70.03,9.14,-84.21000000000001,-0.3559,0.0751,0.2571,0.8952,0.059000000000000004,0.008,0.14
2025-11-06 18:37:40.262,314.6,-1.814,0.767,-0.418,0.003,-0.516,-1.156,70.03,9.14,-84.21000000000001,-0.35810000000000003,0.0721,0.2485,0.897,0.045,0.014,0.293
2025-11-06 18:37:40.262,314.605,-1.78,0.715,-0.41300000000000003,0.021,-0.522,-1.2530000000000001,70.03,9.14,-84.21000000000001,-0.3599,0.0685,0.24000000000000002,0.8989,0.028,0.038,0.38
2025-11-06 18:37:40.262,314.61,-1.7550000000000001,0.6890000000000001,-0.393,0.025,-0.528,-1.258,70.09,9.38,-83.65,-0.36150000000000004,0.0651,0.2323,0.9005000000000001,0.024,0.059000000000000004,0.377
2025-11-06 18:37:40.262,314.615,-1.722,0.758,-0.365,0.067,-0.542,-1.282,70.09,9.38,-83.65,-0.3619,0.060500000000000005,0.22610000000000002,0.9023,-0.014,0.08700000000000001,0.393
2025-11-06 18:37:40.262,314.62,-1.72,0.8140000000000001,-0.333,0.065,-0.542,-1.276,70.73,10.26,-83.74,-0.36250000000000004,0.056400000000000006,0.2204,0.9037000000000001,-0.008,0.099,0.381
2025-11-06 18:37:40.262,314.625,-1.723,0.839,-0.292,0.101,-0.558,-1.2550000000000001,70.73,10.26,-83.74,-0.36210000000000003,0.051500000000000004,0.2164,0.9051,-0.039,0.126,0.355
2025-11-06 18:37:40.262,314.63,-1.685,0.8170000000000001,-0.29,0.095,-0.56,-1.2,70.73,11.370000000000001,-83.57000000000001,-0.3623,0.0476,0.2134,0.906,-0.028,0.137,0.296
2025-11-06 18:37:40.262,314.635,-1.653,0.834,-0.275,0.08600000000000001,-0.5740000000000001,-1.206,70.73,11.370000000000001,-83.57000000000001,-0.36300000000000004,0.044700000000000004,0.2109,0.9064000000000001,-0.015,0.157,0.299
2025-11-06 18:37:40.262,314.64,-1.612,0.8200000000000001,-0.253,0.10300000000000001,-0.5630000000000001,-1.223,70.73,11.370000000000001,-83.57000000000001,-0.3633,0.0413,0.2084,0.907,-0.027,0.154,0.314
2025-11-06 18:37:40.262,314.645,-1.554,0.75,-0.257,0.134,-0.579,-1.241,71.32000000000001,11.31,-83.8,-0.3629,0.0375,0.20670000000000002,0.9078,-0.054,0.17500000000000002,0.33
2025-11-06 18:37:40.262,314.65,-1.49,0.6880000000000001,-0.247,0.193,-0.589,-1.256,71.32000000000001,11.31,-83.8,-0.36110000000000003,0.032100000000000004,0.20600000000000002,0.9088,-0.105,0.19,0.343
2025-11-06 18:37:40.264,314.655,-1.397,0.612,-0.225,0.29,-0.5630000000000001,-1.242,71.0,12.16,-83.89,-0.3572,0.023700000000000002,0.2061,0.9106000000000001,-0.19,0.169,0.328
2025-11-06 18:37:40.264,314.66,-1.195,0.49,-0.18,0.401,-0.521,-1.236,71.0,12.16,-83.89,-0.3518,0.012400000000000001,0.2066,0.9128000000000001,-0.28300000000000003,0.133,0.322
2025-11-06 18:37:40.264,314.665,-1.066,0.395,-0.137,0.47900000000000004,-0.493,-1.284,71.0,12.16,-83.89,-0.34690000000000004,0.0002,0.2066,0.9148000000000001,-0.341,0.112,0.37
2025-11-06 18:37:40.264,314.67,-0.992,0.293,-0.101,0.507,-0.493,-1.343,71.47,12.540000000000001,-83.36,-0.34340000000000004,-0.0108,0.20600000000000002,0.9162,-0.35000000000000003,0.121,0.428
2025-11-06 18:37:40.264,314.675,-0.9390000000000001,0.224,-0.054,0.49,-0.5,-1.368,71.47,12.540000000000001,-83.36,-0.3407,-0.0198,0.20520000000000002,0.9172,-0.317,0.135,0.453
2025-11-06 18:37:40.264,314.68,-0.843,0.178,0.029,0.386,-0.496,-1.361,71.38,12.59,-83.19,-0.33990000000000004,-0.024900000000000002,0.2036,0.9177000000000001,-0.20400000000000001,0.138,0.446
2025-11-06 18:37:40.264,314.685,-0.719,0.148,0.077,0.342,-0.47700000000000004,-1.364,71.38,12.59,-83.19,-0.3407,-0.0279,0.20140000000000002,0.9178000000000001,-0.154,0.125,0.448
2025-11-06 18:37:40.264,314.69,-0.628,0.136,0.106,0.28700000000000003,-0.467,-1.383,71.32000000000001,13.030000000000001,-82.98,-0.3431,-0.028800000000000003,0.19870000000000002,0.9175000000000001,-0.097,0.121,0.464
2025-11-06 18:37:40.264,314.695,-0.557,0.107,0.125,0.219,-0.463,-1.3960000000000001,71.32000000000001,13.030000000000001,-82.98,-0.34700000000000003,-0.0273,0.19540000000000002,0.9168000000000001,-0.033,0.122,0.47500000000000003
2025-11-06 18:37:40.264,314.7,-0.502,0.053,0.14300000000000002,0.15,-0.447,-1.399,71.32000000000001,13.030000000000001,-82.98,-0.35250000000000004,-0.0236,0.19140000000000001,0.9156000000000001,0.03,0.112,0.47400000000000003
2025-11-06 18:37:40.264,314.705,-0.41600000000000004,-0.02,0.152,0.1,-0.423,-1.3780000000000001,71.55,13.030000000000001,-82.57000000000001,-0.35900000000000004,-0.018500000000000003,0.187,0.9142,0.07,0.093,0.449
2025-11-06 18:37:40.264,314.71,-0.342,-0.051000000000000004,0.155,0.096,-0.397,-1.335,71.55,13.030000000000001,-82.57000000000001,-0.3648,-0.014,0.1827,0.9128000000000001,0.065,0.07200000000000001,0.403
2025-11-06 18:37:40.264,314.715,-0.261,-0.094,0.151,0.097,-0.379,-1.296,71.23,12.97,-83.16,-0.36970000000000003,-0.01,0.17880000000000001,0.9117000000000001,0.054,0.059000000000000004,0.361
2025-11-06 18:37:40.264,314.72,-0.178,-0.121,0.137,0.09,-0.359,-1.258,71.23,12.97,-83.16,-0.37410000000000004,-0.0063,0.17500000000000002,0.9106000000000001,0.054,0.043000000000000003,0.32
2025-11-06 18:37:40.264,314.725,-0.105,-0.111,0.11800000000000001,0.067,-0.334,-1.179,71.23,12.97,-83.16,-0.3785,-0.0022,0.1714,0.9095000000000001,0.068,0.023,0.23900000000000002
2025-11-06 18:37:40.264,314.73,-0.058,-0.059000000000000004,0.113,0.065,-0.326,-1.1300000000000001,71.2,13.5,-82.84,-0.3821,0.0012000000000000001,0.1685,0.9085000000000001,0.062,0.018000000000000002,0.187
2025-11-06 18:37:40.264,314.735,-0.028,0.005,0.108,0.07,-0.317,-1.087,71.2,13.5,-82.84,-0.38480000000000003,0.0039000000000000003,0.16620000000000001,0.9078,0.051000000000000004,0.012,0.14200000000000002
2025-11-06 18:37:40.264,314.74,0.005,0.061,0.111,0.092,-0.323,-1.051,71.38,13.620000000000001,-82.75,-0.38620000000000004,0.0054,0.1651,0.9074000000000001,0.025,0.018000000000000002,0.105
2025-11-06 18:37:40.264,314.745,0.048,0.1,0.11,0.095,-0.314,-1.0030000000000001,71.38,13.620000000000001,-82.75,-0.387,0.006500000000000001,0.1646,0.9072,0.02,0.01,0.058
2025-11-06 18:37:40.264,314.75,0.095,0.121,0.113,0.098,-0.312,-0.9510000000000001,71.09,13.5,-83.27,-0.3876,0.0074,0.1648,0.9069,0.016,0.007,0.005
2025-11-06 18:37:40.264,314.755,0.112,0.13,0.114,0.11,-0.306,-0.901,71.09,13.5,-83.27,-0.3874,0.007500000000000001,0.1658,0.9068,0.004,0.0,-0.043000000000000003
2025-11-06 18:37:40.264,314.76,0.121,0.145,0.111,0.11900000000000001,-0.306,-0.847,71.09,13.5,-83.27,-0.38670000000000004,0.007200000000000001,0.1678,0.9067000000000001,-0.003,-0.002,-0.096
2025-11-06 18:37:40.265,314.765,0.128,0.176,0.1,0.134,-0.302,-0.804,70.97,13.21,-82.78,-0.38530000000000003,0.0059,0.1705,0.9068,-0.014,-0.01,-0.138
2025-11-06 18:37:40.265,314.77,0.123,0.23,0.078,0.159,-0.275,-0.778,70.97,13.21,-82.78,-0.383,0.0026000000000000003,0.1728,0.9073,-0.033,-0.039,-0.161
2025-11-06 18:37:40.265,314.775,0.124,0.276,0.055,0.177,-0.255,-0.783,71.35000000000001,13.3,-82.84,-0.3806,-0.0018000000000000002,0.1743,0.9081,-0.043000000000000003,-0.059000000000000004,-0.155
2025-11-06 18:37:40.265,314.78,0.126,0.316,0.041,0.185,-0.241,-0.799,71.35000000000001,13.3,-82.84,-0.3786,-0.0066,0.17500000000000002,0.9088,-0.043000000000000003,-0.07200000000000001,-0.139
2025-11-06 18:37:40.265,314.785,0.12,0.34600000000000003,0.032,0.194,-0.228,-0.8160000000000001,71.35000000000001,13.3,-82.84,-0.377,-0.0115,0.1749,0.9094000000000001,-0.043000000000000003,-0.081,-0.122
2025-11-06 18:37:40.265,314.79,0.101,0.367,0.019,0.213,-0.218,-0.8260000000000001,71.38,13.35,-82.57000000000001,-0.3754,-0.0172,0.17450000000000002,0.91,-0.053,-0.08700000000000001,-0.112
2025-11-06 18:37:40.265,314.795,0.078,0.363,0.002,0.23800000000000002,-0.214,-0.833,71.38,13.35,-82.57000000000001,-0.3735,-0.0236,0.1743,0.9107000000000001,-0.067,-0.08600000000000001,-0.105
2025-11-06 18:37:40.265,314.8,0.064,0.332,-0.01,0.265,-0.216,-0.834,72.4,13.24,-82.57000000000001,-0.371,-0.0307,0.1744,0.9115000000000001,-0.082,-0.08,-0.10300000000000001
2025-11-06 18:37:40.265,314.805,0.058,0.309,-0.023,0.275,-0.22,-0.8260000000000001,72.4,13.24,-82.57000000000001,-0.3682,-0.037700000000000004,0.17500000000000002,0.9123,-0.08,-0.07100000000000001,-0.109
2025-11-06 18:37:40.265,314.81,0.06,0.303,-0.028,0.28500000000000003,-0.23,-0.8300000000000001,72.08,12.59,-82.51,-0.3652,-0.0443,0.1759,0.913,-0.078,-0.058,-0.10400000000000001
2025-11-06 18:37:40.265,314.815,0.053,0.293,-0.031,0.28800000000000003,-0.262,-0.853,72.08,12.59,-82.51,-0.3614,-0.049800000000000004,0.1776,0.9139,-0.07100000000000001,-0.026000000000000002,-0.078
2025-11-06 18:37:40.265,314.82,0.04,0.254,-0.026000000000000002,0.279,-0.28200000000000003,-0.863,72.08,12.59,-82.51,-0.35760000000000003,-0.054,0.1796,0.9148000000000001,-0.054,-0.007,-0.066
2025-11-06 18:37:40.265,314.825,0.029,0.223,-0.019,0.276,-0.292,-0.86,72.72,13.06,-82.98,-0.3538,-0.057600000000000005,0.1816,0.9156000000000001,-0.043000000000000003,0.001,-0.067
2025-11-06 18:37:40.265,314.83,0.026000000000000002,0.188,-0.009000000000000001,0.28600000000000003,-0.296,-0.848,72.72,13.06,-82.98,-0.3497,-0.0613,0.1839,0.9165000000000001,-0.046,0.002,-0.076
2025-11-06 18:37:40.265,314.835,0.035,0.139,0.0,0.274,-0.305,-0.834,74.3,12.92,-82.87,-0.3452,-0.0641,0.1864,0.9175000000000001,-0.029,0.008,-0.08700000000000001
2025-11-06 18:37:40.265,314.84,0.044,0.084,0.005,0.26,-0.316,-0.835,74.3,12.92,-82.87,-0.34090000000000004,-0.0659,0.1889,0.9185000000000001,-0.011,0.015,-0.085
2025-11-06 18:37:40.265,314.845,0.051000000000000004,0.07,0.003,0.246,-0.33,-0.837,71.96000000000001,13.030000000000001,-82.66,-0.33630000000000004,-0.06670000000000001,0.19140000000000001,0.9196000000000001,0.004,0.025,-0.08
2025-11-06 18:37:40.265,314.85,0.06,0.066,0.002,0.225,-0.34900000000000003,-0.8320000000000001,71.96000000000001,13.030000000000001,-82.66,-0.3311,-0.0664,0.1942,0.9209,0.025,0.037,-0.083
2025-11-06 18:37:40.265,314.855,0.069,0.077,0.001,0.224,-0.35100000000000003,-0.8290000000000001,71.96000000000001,13.030000000000001,-82.66,-0.32630000000000003,-0.06620000000000001,0.19690000000000002,0.9221,0.026000000000000002,0.033,-0.084
2025-11-06 18:37:40.265,314.86,0.075,0.081,-0.007,0.209,-0.366,-0.8300000000000001,71.87,12.71,-81.4,-0.32120000000000004,-0.06520000000000001,0.1998,0.9233,0.039,0.04,-0.081
2025-11-06 18:37:40.265,314.865,0.073,0.064,-0.014,0.2,-0.36,-0.839,71.87,12.71,-81.4,-0.31720000000000004,-0.06380000000000001,0.2018,0.9244,0.046,0.029,-0.07
2025-11-06 18:37:40.265,314.87,0.059000000000000004,0.051000000000000004,-0.03,0.196,-0.352,-0.856,72.02,12.94,-82.13,-0.3144,-0.0623,0.203,0.9252,0.047,0.017,-0.053
2025-11-06 18:37:40.265,314.875,0.035,0.029,-0.049,0.178,-0.34500000000000003,-0.865,72.02,12.94,-82.13,-0.31220000000000003,-0.060200000000000004,0.2034,0.926,0.06,0.006,-0.044
2025-11-06 18:37:40.265,314.88,0.008,-0.012,-0.073,0.157,-0.329,-0.858,72.02,12.94,-82.13,-0.3106,-0.0574,0.2028,0.9268000000000001,0.076,-0.01,-0.052000000000000005
2025-11-06 18:37:40.265,314.885,-0.009000000000000001,-0.06,-0.099,0.14100000000000001,-0.315,-0.85,72.08,12.92,-82.54,-0.3094,-0.0543,0.20170000000000002,0.9276000000000001,0.08600000000000001,-0.025,-0.061
2025-11-06 18:37:40.266,314.89,-0.025,-0.064,-0.117,0.147,-0.305,-0.871,72.08,12.92,-82.54,-0.30910000000000004,-0.051800000000000006,0.19990000000000002,0.9283,0.073,-0.034,-0.042
2025-11-06 18:37:40.266,314.895,-0.039,-0.069,-0.14200000000000002,0.151,-0.31,-0.902,71.67,12.97,-82.63,-0.309,-0.0494,0.1981,0.9288000000000001,0.063,-0.026000000000000002,-0.013000000000000001
2025-11-06 18:37:40.266,314.9,-0.047,-0.077,-0.164,0.153,-0.309,-0.911,71.67,12.97,-82.63,-0.30910000000000004,-0.047400000000000005,0.1961,0.9293,0.056,-0.026000000000000002,-0.006
2025-11-06 18:37:40.266,314.905,-0.049,-0.08,-0.192,0.179,-0.299,-0.898,72.23,13.27,-82.69,-0.30960000000000004,-0.046700000000000005,0.19460000000000002,0.9295,0.027,-0.034,-0.021
2025-11-06 18:37:40.266,314.91,-0.053,-0.10200000000000001,-0.20800000000000002,0.18,-0.303,-0.883,72.23,13.27,-82.69,-0.31010000000000004,-0.046,0.1935,0.9296000000000001,0.026000000000000002,-0.028,-0.037
2025-11-06 18:37:40.266,314.915,-0.058,-0.133,-0.224,0.183,-0.303,-0.873,72.23,13.27,-82.69,-0.31070000000000003,-0.0455,0.1927,0.9296000000000001,0.021,-0.026000000000000002,-0.047
2025-11-06 18:37:40.266,314.92,-0.074,-0.158,-0.23900000000000002,0.178,-0.314,-0.866,71.76,13.27,-82.28,-0.31120000000000003,-0.044700000000000004,0.19240000000000002,0.9295,0.024,-0.014,-0.055
2025-11-06 18:37:40.266,314.925,-0.083,-0.171,-0.258,0.179,-0.324,-0.86,71.76,13.27,-82.28,-0.31170000000000003,-0.0438,0.19260000000000002,0.9294,0.022,-0.005,-0.061
2025-11-06 18:37:40.266,314.93,-0.09,-0.17500000000000002,-0.269,0.17500000000000002,-0.332,-0.857,71.9,13.97,-82.43,-0.3121,-0.0427,0.19310000000000002,0.9292,0.024,0.0,-0.063
2025-11-06 18:37:40.266,314.935,-0.095,-0.168,-0.274,0.17,-0.337,-0.861,71.9,13.97,-82.43,-0.3125,-0.0415,0.19360000000000002,0.929,0.028,0.004,-0.059000000000000004
2025-11-06 18:37:40.266,314.94,-0.094,-0.161,-0.277,0.164,-0.35100000000000003,-0.87,71.9,13.97,-82.43,-0.3128,-0.0398,0.19440000000000002,0.9288000000000001,0.031,0.015,-0.051000000000000004
2025-11-06 18:37:40.266,314.945,-0.085,-0.14200000000000002,-0.278,0.17500000000000002,-0.342,-0.879,71.96000000000001,13.85,-83.63,-0.3133,-0.038900000000000004,0.1947,0.9286000000000001,0.018000000000000002,0.005,-0.041
2025-11-06 18:37:40.266,314.95,-0.07,-0.097,-0.271,0.186,-0.321,-0.896,71.96000000000001,13.85,-83.63,-0.3139,-0.038900000000000004,0.1942,0.9285,0.007,-0.015,-0.025
2025-11-06 18:37:40.266,314.955,-0.062,-0.07100000000000001,-0.27,0.19,-0.333,-0.909,71.64,14.32,-82.54,-0.3145,-0.0388,0.194,0.9283,0.003,-0.002,-0.011
2025-11-06 18:37:40.266,314.96,-0.049,-0.061,-0.263,0.199,-0.328,-0.921,71.64,14.32,-82.54,-0.3153,-0.0391,0.19360000000000002,0.9281,-0.004,-0.006,0.0
2025-11-06 18:37:40.266,314.965,-0.039,-0.069,-0.258,0.20500000000000002,-0.326,-0.934,71.58,14.08,-83.16,-0.3161,-0.0396,0.19310000000000002,0.928,-0.01,-0.007,0.012
2025-11-06 18:37:40.266,314.97,-0.04,-0.082,-0.257,0.213,-0.327,-0.9380000000000001,71.58,14.08,-83.16,-0.3169,-0.0403,0.1927,0.9277000000000001,-0.017,-0.005,0.016
2025-11-06 18:37:40.266,314.975,-0.037,-0.092,-0.257,0.20400000000000001,-0.329,-0.937,71.58,14.08,-83.16,-0.3176,-0.0405,0.1922,0.9276000000000001,-0.006,-0.001,0.015
2025-11-06 18:37:40.266,314.98,-0.033,-0.099,-0.26,0.19,-0.324,-0.9430000000000001,71.79,14.35,-82.81,-0.31820000000000004,-0.0402,0.19140000000000001,0.9275,0.006,-0.005,0.02
2025-11-06 18:37:40.266,314.985,-0.024,-0.106,-0.26,0.17300000000000001,-0.318,-0.9560000000000001,71.79,14.35,-82.81,-0.31870000000000004,-0.0392,0.19010000000000002,0.9277000000000001,0.021,-0.009000000000000001,0.031
2025-11-06 18:37:40.266,314.99,-0.005,-0.106,-0.263,0.149,-0.323,-0.962,71.58,14.290000000000001,-82.72,-0.319,-0.0373,0.1887,0.9279000000000001,0.041,-0.003,0.037
2025-11-06 18:37:40.266,314.995,0.026000000000000002,-0.08,-0.261,0.14300000000000002,-0.313,-0.978,71.58,14.290000000000001,-82.72,-0.31930000000000003,-0.035500000000000004,0.18680000000000002,0.9283,0.043000000000000003,-0.011,0.051000000000000004
2025-11-06 18:37:40.266,315.0,0.06,-0.053,-0.26,0.15,-0.307,-0.978,71.58,14.290000000000001,-82.72,-0.3196,-0.034300000000000004,0.18510000000000001,0.9286000000000001,0.032,-0.015,0.049
2025-11-06 18:37:40.266,315.005,0.095,-0.021,-0.26,0.152,-0.301,-0.978,71.58,14.790000000000001,-82.25,-0.3199,-0.0333,0.1834,0.9288000000000001,0.027,-0.018000000000000002,0.048
2025-11-06 18:37:40.266,315.01,0.113,0.007,-0.263,0.15,-0.307,-0.982,71.58,14.790000000000001,-82.25,-0.32030000000000003,-0.0324,0.1821,0.929,0.026000000000000002,-0.01,0.05
2025-11-06 18:37:40.266,315.015,0.14400000000000002,0.029,-0.269,0.15,-0.31,-0.982,71.41,14.290000000000001,-82.4,-0.32080000000000003,-0.031400000000000004,0.1811,0.9291,0.024,-0.006,0.05
2025-11-06 18:37:40.266,315.02,0.178,0.053,-0.273,0.155,-0.313,-0.965,71.41,14.290000000000001,-82.4,-0.32130000000000003,-0.0307,0.1807,0.929,0.017,-0.002,0.032
2025-11-06 18:37:40.266,315.025,0.198,0.08700000000000001,-0.273,0.164,-0.318,-0.9400000000000001,71.82000000000001,14.46,-82.49,-0.3219,-0.030500000000000003,0.18100000000000002,0.9287000000000001,0.008,0.001,0.008
2025-11-06 18:37:40.266,315.03,0.202,0.132,-0.277,0.18,-0.315,-0.92,71.82000000000001,14.46,-82.49,-0.3225,-0.031100000000000003,0.18180000000000002,0.9283,-0.006,-0.001,-0.011
2025-11-06 18:37:40.266,315.035,0.192,0.17,-0.28,0.181,-0.312,-0.91,71.82000000000001,14.46,-82.49,-0.3231,-0.0318,0.1825,0.928,-0.004,-0.005,-0.021
2025-11-06 18:37:40.266,315.04,0.171,0.181,-0.28500000000000003,0.189,-0.328,-0.922,71.9,14.64,-82.66,-0.32380000000000003,-0.0325,0.1837,0.9275,-0.011,0.009000000000000001,-0.007
2025-11-06 18:37:40.266,315.045,0.156,0.183,-0.28,0.201,-0.333,-0.921,71.9,14.64,-82.66,-0.3245,-0.033600000000000005,0.18510000000000001,0.9269000000000001,-0.019,0.012,-0.007
2025-11-06 18:37:40.266,315.05,0.132,0.241,-0.274,0.216,-0.343,-0.917,71.93,14.64,-82.22,-0.32530000000000003,-0.0352,0.1869,0.9262,-0.03,0.02,-0.01
2025-11-06 18:37:40.266,315.055,0.121,0.326,-0.271,0.227,-0.339,-0.904,71.93,14.64,-82.22,-0.326,-0.0374,0.1889,0.9255,-0.036000000000000004,0.014,-0.021
2025-11-06 18:37:40.266,315.06,0.13,0.453,-0.28500000000000003,0.223,-0.326,-0.881,71.93,14.64,-82.22,-0.3266,-0.0398,0.1907,0.9248000000000001,-0.027,0.0,-0.043000000000000003
2025-11-06 18:37:40.266,315.065,0.14100000000000001,0.538,-0.303,0.212,-0.309,-0.878,71.85000000000001,14.93,-82.49,-0.3272,-0.042,0.19160000000000002,0.9243,-0.01,-0.017,-0.045
2025-11-06 18:37:40.266,315.07,0.157,0.519,-0.311,0.188,-0.304,-0.891,71.85000000000001,14.93,-82.49,-0.3277,-0.043000000000000003,0.1918,0.924,0.016,-0.022,-0.03
2025-11-06 18:37:40.266,315.075,0.178,0.461,-0.316,0.178,-0.301,-0.903,72.2,14.67,-82.13,-0.3282,-0.043300000000000005,0.1915,0.9239,0.027,-0.024,-0.018000000000000002
2025-11-06 18:37:40.266,315.08,0.203,0.41400000000000003,-0.318,0.17200000000000001,-0.295,-0.903,72.2,14.67,-82.13,-0.3287,-0.043300000000000005,0.191,0.9238000000000001,0.033,-0.029,-0.019
2025-11-06 18:37:40.266,315.085,0.22,0.404,-0.326,0.184,-0.297,-0.892,72.4,14.96,-82.43,-0.32930000000000004,-0.0438,0.19090000000000001,0.9236000000000001,0.022,-0.026000000000000002,-0.03
2025-11-06 18:37:40.266,315.09,0.223,0.417,-0.334,0.196,-0.3,-0.897,72.4,14.96,-82.43,-0.3299,-0.044700000000000004,0.19110000000000002,0.9233,0.011,-0.023,-0.025
2025-11-06 18:37:40.267,315.095,0.23,0.398,-0.341,0.219,-0.304,-0.927,72.4,14.96,-82.43,-0.3305,-0.0463,0.1912,0.923,-0.008,-0.017,0.004
2025-11-06 18:37:40.267,315.1,0.245,0.35100000000000003,-0.342,0.233,-0.308,-0.9530000000000001,73.39,14.9,-82.11,-0.3312,-0.048,0.1912,0.9227000000000001,-0.019,-0.012,0.031
2025-11-06 18:37:40.267,315.105,0.265,0.28200000000000003,-0.342,0.25,-0.326,-0.985,73.39,14.9,-82.11,-0.33180000000000004,-0.0495,0.19160000000000002,0.9223,-0.032,0.005,0.064
2025-11-06 18:37:40.267,315.11,0.271,0.233,-0.34,0.268,-0.34700000000000003,-0.999,72.34,15.22,-81.93,-0.33240000000000003,-0.0511,0.1927,0.9217000000000001,-0.046,0.026000000000000002,0.078
2025-11-06 18:37:40.267,315.115,0.263,0.23600000000000002,-0.341,0.28500000000000003,-0.366,-0.999,72.34,15.22,-81.93,-0.33290000000000003,-0.053000000000000005,0.1945,0.9211,-0.059000000000000004,0.044,0.08
2025-11-06 18:37:40.267,315.12,0.255,0.255,-0.34800000000000003,0.289,-0.384,-0.991,73.04,15.370000000000001,-82.57000000000001,-0.33330000000000004,-0.054700000000000006,0.19690000000000002,0.9203,-0.058,0.058,0.074
2025-11-06 18:37:40.267,315.125,0.243,0.273,-0.358,0.29,-0.393,-0.977,73.04,15.370000000000001,-82.57000000000001,-0.3336,-0.0562,0.1996,0.9195000000000001,-0.055,0.064,0.062
2025-11-06 18:37:40.267,315.13,0.231,0.266,-0.371,0.28200000000000003,-0.397,-0.9590000000000001,73.04,15.370000000000001,-82.57000000000001,-0.33390000000000003,-0.057300000000000004,0.2024,0.9188000000000001,-0.042,0.064,0.047
2025-11-06 18:37:40.267,315.135,0.228,0.251,-0.373,0.266,-0.406,-0.936,72.99,15.870000000000001,-81.84,-0.33380000000000004,-0.0577,0.2054,0.9181,-0.023,0.068,0.027
2025-11-06 18:37:40.267,315.14,0.226,0.249,-0.375,0.257,-0.40700000000000003,-0.907,72.99,15.870000000000001,-81.84,-0.3337,-0.0579,0.2087,0.9174,-0.012,0.064,0.0
2025-11-06 18:37:40.267,315.145,0.222,0.27,-0.384,0.258,-0.406,-0.879,73.34,15.43,-81.4,-0.3336,-0.0582,0.2122,0.9166000000000001,-0.01,0.058,-0.024
2025-11-06 18:37:40.267,315.15,0.225,0.296,-0.399,0.259,-0.396,-0.8170000000000001,73.34,15.43,-81.4,-0.3337,-0.0591,0.21630000000000002,0.9155000000000001,-0.007,0.041,-0.083
2025-11-06 18:37:40.267,315.155,0.223,0.317,-0.41200000000000003,0.261,-0.381,-0.772,73.34,15.43,-81.4,-0.3341,-0.0604,0.22060000000000002,0.9143,-0.004,0.02,-0.123
2025-11-06 18:37:40.267,315.16,0.203,0.305,-0.422,0.248,-0.368,-0.755,73.42,15.84,-81.61,-0.33440000000000003,-0.0614,0.2242,0.9132,0.013000000000000001,0.001,-0.136
2025-11-06 18:37:40.267,315.165,0.19,0.28,-0.425,0.23800000000000002,-0.352,-0.763,73.42,15.84,-81.61,-0.3347,-0.0621,0.22640000000000002,0.9125000000000001,0.025,-0.018000000000000002,-0.126
2025-11-06 18:37:40.267,315.17,0.192,0.227,-0.427,0.227,-0.34800000000000003,-0.807,73.13,15.93,-82.16,-0.33480000000000004,-0.0621,0.2272,0.9123,0.037,-0.023,-0.081
2025-11-06 18:37:40.267,315.175,0.20800000000000002,0.14300000000000002,-0.425,0.243,-0.343,-0.841,73.13,15.93,-82.16,-0.3356,-0.0623,0.2272,0.912,0.022,-0.029,-0.047
2025-11-06 18:37:40.267,315.18,0.202,0.113,-0.424,0.252,-0.338,-0.846,73.63,16.07,-81.52,-0.33680000000000004,-0.06280000000000001,0.22710000000000002,0.9115000000000001,0.014,-0.033,-0.042
2025-11-06 18:37:40.267,315.185,0.194,0.108,-0.43,0.272,-0.327,-0.852,73.63,16.07,-81.52,-0.33890000000000003,-0.064,0.2267,0.9108,-0.003,-0.042,-0.036000000000000004
2025-11-06 18:37:40.267,315.19,0.191,0.106,-0.443,0.27,-0.314,-0.867,73.63,16.07,-81.52,-0.3411,-0.0651,0.2255,0.9102,0.002,-0.052000000000000005,-0.022
2025-11-06 18:37:40.267,315.195,0.20600000000000002,0.10300000000000001,-0.463,0.261,-0.307,-0.904,73.66,16.07,-81.29,-0.3431,-0.06570000000000001,0.2235,0.9099,0.011,-0.055,0.013000000000000001
2025-11-06 18:37:40.268,315.2,0.215,0.091,-0.487,0.254,-0.316,-0.926,73.66,16.07,-81.29,-0.34490000000000004,-0.06570000000000001,0.2215,0.9097000000000001,0.018000000000000002,-0.042,0.033
2025-11-06 18:37:40.268,315.205,0.20400000000000001,0.075,-0.502,0.261,-0.326,-0.9380000000000001,74.8,16.42,-81.61,-0.34650000000000003,-0.06570000000000001,0.2199,0.9094000000000001,0.01,-0.029,0.044
2025-11-06 18:37:40.268,315.21,0.194,0.031,-0.506,0.262,-0.333,-0.936,74.8,16.42,-81.61,-0.3481,-0.0656,0.2187,0.9092,0.009000000000000001,-0.019,0.04
2025-11-06 18:37:40.268,315.215,0.184,-0.023,-0.509,0.257,-0.332,-0.916,74.8,16.42,-81.61,-0.34950000000000003,-0.06520000000000001,0.21780000000000002,0.9088,0.013000000000000001,-0.017,0.02
2025-11-06 18:37:40.268,315.22,0.189,-0.08700000000000001,-0.499,0.258,-0.314,-0.893,73.25,16.54,-80.79,-0.3511,-0.06520000000000001,0.21660000000000001,0.9085000000000001,0.012,-0.033,-0.003
2025-11-06 18:37:40.268,315.225,0.20400000000000001,-0.133,-0.497,0.261,-0.291,-0.883,73.25,16.54,-80.79,-0.3529,-0.0656,0.2149,0.9082,0.009000000000000001,-0.053,-0.015
2025-11-06 18:37:40.268,315.23,0.225,-0.18,-0.493,0.258,-0.27,-0.887,74.04,16.45,-81.11,-0.3549,-0.066,0.21250000000000002,0.908,0.012,-0.069,-0.012
2025-11-06 18:37:40.268,315.235,0.247,-0.222,-0.49,0.252,-0.249,-0.896,74.04,16.45,-81.11,-0.35710000000000003,-0.0663,0.2093,0.9078,0.017,-0.084,-0.006
2025-11-06 18:37:40.268,315.24,0.249,-0.259,-0.489,0.25,-0.247,-0.9,72.87,16.69,-81.58,-0.3593,-0.0663,0.2061,0.9077000000000001,0.018000000000000002,-0.08,-0.004
2025-11-06 18:37:40.268,315.245,0.23800000000000002,-0.296,-0.47900000000000004,0.245,-0.242,-0.905,72.87,16.69,-81.58,-0.36160000000000003,-0.0661,0.2029,0.9075000000000001,0.021,-0.079,-0.002
2025-11-06 18:37:40.268,315.25,0.231,-0.319,-0.466,0.23700000000000002,-0.248,-0.906,72.87,16.69,-81.58,-0.3639,-0.0654,0.2,0.9073,0.027,-0.068,-0.003
2025-11-06 18:37:40.268,315.255,0.226,-0.34,-0.45,0.227,-0.25,-0.913,73.16,16.31,-81.43,-0.3663,-0.0641,0.19720000000000001,0.907,0.034,-0.061,0.0
2025-11-06 18:37:40.269,315.26,0.233,-0.343,-0.439,0.20400000000000001,-0.266,-0.916,73.16,16.31,-81.43,-0.36920000000000003,-0.061500000000000006,0.19490000000000002,0.9065000000000001,0.052000000000000005,-0.042,0.0
2025-11-06 18:37:40.269,315.265,0.243,-0.34,-0.428,0.179,-0.28700000000000003,-0.906,73.28,17.150000000000002,-81.7,-0.37270000000000003,-0.0575,0.1935,0.9056000000000001,0.07100000000000001,-0.02,-0.011
2025-11-06 18:37:40.269,315.27,0.248,-0.353,-0.429,0.158,-0.308,-0.89,73.28,17.150000000000002,-81.7,-0.3766,-0.0524,0.19310000000000002,0.9044000000000001,0.084,0.0,-0.029
2025-11-06 18:37:40.269,315.275,0.259,-0.367,-0.435,0.14300000000000002,-0.312,-0.87,73.28,17.150000000000002,-81.7,-0.3805,-0.047,0.19290000000000002,0.9031,0.09,0.0,-0.05
2025-11-06 18:37:40.269,315.28,0.292,-0.379,-0.451,0.125,-0.307,-0.845,73.22,17.18,-82.22,-0.3844,-0.0413,0.1928,0.9018,0.099,-0.008,-0.076
2025-11-06 18:37:40.269,315.285,0.34700000000000003,-0.381,-0.489,0.111,-0.318,-0.8270000000000001,73.22,17.18,-82.22,-0.38870000000000005,-0.035,0.1933,0.9001,0.10400000000000001,-0.001,-0.095
2025-11-06 18:37:40.269,315.29,0.397,-0.398,-0.541,0.088,-0.343,-0.8260000000000001,72.9,16.69,-81.84,-0.3937,-0.0275,0.1945,0.8979,0.116,0.017,-0.096
2025-11-06 18:37:40.269,315.295,0.423,-0.405,-0.5750000000000001,0.07100000000000001,-0.359,-0.8310000000000001,72.9,16.69,-81.84,-0.3986,-0.0194,0.1958,0.8957,0.122,0.026000000000000002,-0.09
2025-11-06 18:37:40.269,315.3,0.436,-0.403,-0.604,0.058,-0.369,-0.841,74.13,16.8,-81.9,-0.4031,-0.0114,0.197,0.8935000000000001,0.123,0.028,-0.08
2025-11-06 18:37:40.269,315.305,0.434,-0.403,-0.611,0.059000000000000004,-0.35000000000000003,-0.865,74.13,16.8,-81.9,-0.4055,-0.005,0.1968,0.8925000000000001,0.111,0.003,-0.057
2025-11-06 18:37:40.271,315.31,0.41300000000000003,-0.41400000000000003,-0.604,0.085,-0.306,-0.879,74.13,16.8,-81.9,-0.405,-0.0018000000000000002,0.195,0.8932,0.077,-0.04,-0.043000000000000003
2025-11-06 18:37:40.271,315.315,0.403,-0.436,-0.596,0.11900000000000001,-0.269,-0.882,72.61,17.36,-81.75,-0.4026,-0.0015,0.1923,0.8949,0.039,-0.074,-0.043000000000000003
2025-11-06 18:37:40.271,315.32,0.405,-0.454,-0.588,0.149,-0.251,-0.883,72.61,17.36,-81.75,-0.39940000000000003,-0.003,0.1895,0.8969,0.007,-0.08700000000000001,-0.043000000000000003
2025-11-06 18:37:40.271,315.325,0.427,-0.452,-0.578,0.166,-0.23800000000000002,-0.878,73.10000000000001,17.36,-81.93,-0.39590000000000003,-0.0055000000000000005,0.187,0.8989,-0.008,-0.094,-0.05
2025-11-06 18:37:40.271,315.33,0.467,-0.426,-0.56,0.185,-0.23700000000000002,-0.863,73.10000000000001,17.36,-81.93,-0.3929,-0.0086,0.1852,0.9006000000000001,-0.024,-0.09,-0.067
2025-11-06 18:37:40.271,315.335,0.5,-0.391,-0.537,0.184,-0.241,-0.855,73.10000000000001,17.36,-81.93,-0.3906,-0.0112,0.184,0.9018,-0.02,-0.082,-0.075
2025-11-06 18:37:40.271,315.34,0.519,-0.363,-0.517,0.179,-0.256,-0.849,72.2,17.68,-81.64,-0.3895,-0.0129,0.1837,0.9024000000000001,-0.014,-0.065,-0.083
2025-11-06 18:37:40.271,315.345,0.545,-0.35000000000000003,-0.503,0.17200000000000001,-0.278,-0.845,72.2,17.68,-81.64,-0.3896,-0.013300000000000001,0.18430000000000002,0.9022,-0.005,-0.043000000000000003,-0.08600000000000001
2025-11-06 18:37:40.271,315.35,0.5690000000000001,-0.335,-0.498,0.16,-0.304,-0.84,72.49,17.5,-82.75,-0.3911,-0.012400000000000001,0.1859,0.9012,0.007,-0.02,-0.09
2025-11-06 18:37:40.271,315.355,0.603,-0.313,-0.495,0.137,-0.308,-0.8300000000000001,72.49,17.5,-82.75,-0.3932,-0.0102,0.1874,0.9,0.029,-0.019,-0.098
2025-11-06 18:37:40.271,315.36,0.622,-0.301,-0.5,0.133,-0.292,-0.8190000000000001,72.14,17.36,-82.54,-0.3947,-0.0085,0.1883,0.8992,0.031,-0.038,-0.109
2025-11-06 18:37:40.271,315.365,0.633,-0.292,-0.499,0.123,-0.267,-0.803,72.14,17.36,-82.54,-0.3957,-0.007200000000000001,0.18810000000000002,0.8988,0.038,-0.065,-0.125
2025-11-06 18:37:40.271,315.37,0.645,-0.273,-0.498,0.139,-0.23700000000000002,-0.771,72.14,17.36,-82.54,-0.3955,-0.0077,0.18760000000000002,0.899,0.022,-0.093,-0.158
2025-11-06 18:37:40.271,315.375,0.671,-0.229,-0.497,0.181,-0.211,-0.719,72.61,17.68,-82.84,-0.3937,-0.0115,0.1877,0.8997,-0.014,-0.11800000000000001,-0.209
2025-11-06 18:37:40.271,315.38,0.7020000000000001,-0.225,-0.485,0.20500000000000002,-0.186,-0.6890000000000001,72.61,17.68,-82.84,-0.3911,-0.0172,0.1877,0.9007000000000001,-0.029,-0.139,-0.23900000000000002
2025-11-06 18:37:40.271,315.385,0.733,-0.198,-0.492,0.20600000000000002,-0.166,-0.673,72.52,17.71,-82.75,-0.38870000000000005,-0.0233,0.1872,0.9018,-0.021,-0.154,-0.255
2025-11-06 18:37:40.271,315.39,0.779,-0.183,-0.494,0.213,-0.139,-0.663,72.52,17.71,-82.75,-0.3865,-0.030000000000000002,0.1857,0.9028,-0.018000000000000002,-0.17400000000000002,-0.265
2025-11-06 18:37:40.271,315.395,0.836,-0.181,-0.47900000000000004,0.21,-0.11900000000000001,-0.665,72.55,17.71,-82.22,-0.3855,-0.0362,0.18330000000000002,0.9035000000000001,-0.006,-0.185,-0.264
2025-11-06 18:37:40.271,315.4,0.929,-0.177,-0.458,0.229,-0.08700000000000001,-0.685,72.55,18.26,-82.22,-0.3854,-0.0432,0.1797,0.904,-0.015,-0.20700000000000002,-0.245
2025-11-06 18:37:40.271,315.405,0.991,-0.16,-0.445,0.244,-0.067,-0.711,72.55,18.26,-82.22,-0.3861,-0.0502,0.1756,0.9041,-0.02,-0.214,-0.221
2025-11-06 18:37:40.271,315.41,1.049,-0.133,-0.429,0.256,-0.066,-0.726,73.77,17.830000000000002,-82.31,-0.3869,-0.057,0.1719,0.9041,-0.023,-0.203,-0.20700000000000002
2025-11-06 18:37:40.271,315.415,1.101,-0.115,-0.425,0.264,-0.067,-0.722,73.77,17.830000000000002,-82.31,-0.38720000000000004,-0.0637,0.169,0.904,-0.02,-0.191,-0.211
2025-11-06 18:37:40.271,315.42,1.165,-0.065,-0.425,0.27,-0.07,-0.7030000000000001,72.66,17.830000000000002,-82.54,-0.3864,-0.0707,0.16690000000000002,0.9042,-0.016,-0.178,-0.231
2025-11-06 18:37:40.271,315.425,1.226,-0.009000000000000001,-0.439,0.262,-0.083,-0.679,72.66,17.830000000000002,-82.54,-0.3855,-0.07680000000000001,0.166,0.9043,0.002,-0.159,-0.254
2025-11-06 18:37:40.271,315.43,1.289,0.037,-0.442,0.274,-0.12,-0.684,72.66,17.830000000000002,-82.54,-0.3816,-0.0826,0.16720000000000002,0.9052,0.0,-0.11900000000000001,-0.247
2025-11-06 18:37:40.271,315.435,1.368,0.034,-0.434,0.273,-0.14100000000000001,-0.6910000000000001,71.9,17.330000000000002,-82.84,-0.3781,-0.08710000000000001,0.1693,0.9059,0.01,-0.099,-0.23600000000000002
2025-11-06 18:37:40.271,315.44,1.438,0.042,-0.426,0.257,-0.17,-0.683,71.9,17.330000000000002,-82.84,-0.3749,-0.0897,0.17270000000000002,0.9063,0.033,-0.074,-0.241
2025-11-06 18:37:40.271,315.445,1.52,0.029,-0.406,0.243,-0.224,-0.678,72.23,16.95,-82.02,-0.3699,-0.09040000000000001,0.1784,0.9072,0.052000000000000005,-0.029,-0.243
2025-11-06 18:37:40.271,315.45,1.568,0.012,-0.385,0.23900000000000002,-0.255,-0.681,72.23,16.95,-82.02,-0.3647,-0.0901,0.1849,0.908,0.058,-0.011,-0.234
2025-11-06 18:37:40.271,315.455,1.62,-0.003,-0.362,0.228,-0.277,-0.687,73.95,16.48,-81.99,-0.36060000000000003,-0.08850000000000001,0.1917,0.9084000000000001,0.07,-0.003,-0.224
2025-11-06 18:37:40.271,315.46,1.689,-0.029,-0.334,0.224,-0.28600000000000003,-0.683,73.95,16.48,-81.99,-0.35710000000000003,-0.08650000000000001,0.1985,0.9085000000000001,0.074,-0.009000000000000001,-0.224
2025-11-06 18:37:40.271,315.465,1.774,-0.048,-0.297,0.222,-0.28800000000000003,-0.664,73.95,16.48,-81.99,-0.3537,-0.08460000000000001,0.2054,0.9085000000000001,0.076,-0.021,-0.23700000000000002
2025-11-06 18:37:40.271,315.47,1.839,-0.067,-0.254,0.221,-0.295,-0.65,72.31,16.13,-81.55,-0.3503,-0.08270000000000001,0.21250000000000002,0.9083,0.078,-0.029,-0.247
2025-11-06 18:37:40.271,315.475,1.867,-0.088,-0.219,0.229,-0.296,-0.639,72.31,16.13,-81.55,-0.3471,-0.0814,0.2195,0.908,0.07,-0.042,-0.252
2025-11-06 18:37:40.271,315.48,1.8920000000000001,-0.11900000000000001,-0.186,0.23500000000000001,-0.28400000000000003,-0.63,72.66,15.870000000000001,-82.19,-0.34500000000000003,-0.0806,0.2257,0.9074000000000001,0.066,-0.066,-0.255
2025-11-06 18:37:40.272,315.485,1.93,-0.157,-0.155,0.24,-0.274,-0.622,72.66,15.870000000000001,-82.19,-0.34390000000000004,-0.08020000000000001,0.2313,0.9064000000000001,0.063,-0.08700000000000001,-0.258
2025-11-06 18:37:40.272,315.49,2.008,-0.224,-0.111,0.234,-0.26,-0.616,72.66,15.870000000000001,-82.19,-0.3443,-0.07930000000000001,0.2359,0.9052,0.07100000000000001,-0.109,-0.26
2025-11-06 18:37:40.272,315.495,2.074,-0.268,-0.081,0.227,-0.25,-0.611,72.49,15.22,-81.23,-0.34590000000000004,-0.0779,0.2399,0.9037000000000001,0.078,-0.127,-0.261
2025-11-06 18:37:40.272,315.5,2.142,-0.289,-0.055,0.227,-0.243,-0.599,72.49,15.22,-81.23,-0.34790000000000004,-0.0767,0.2436,0.902,0.079,-0.14100000000000001,-0.27
2025-11-06 18:37:40.272,315.505,2.199,-0.277,-0.033,0.223,-0.243,-0.598,72.75,14.38,-81.2,-0.3502,-0.0751,0.24710000000000001,0.9003,0.084,-0.147,-0.268
2025-11-06 18:37:40.272,315.51,2.271,-0.256,-0.007,0.201,-0.26,-0.616,72.75,14.38,-81.2,-0.3528,-0.0717,0.2505,0.8986000000000001,0.10400000000000001,-0.137,-0.248
2025-11-06 18:37:40.272,315.515,2.319,-0.23700000000000002,0.02,0.178,-0.279,-0.629,72.14,14.14,-81.9,-0.3554,-0.0665,0.254,0.897,0.122,-0.126,-0.233
2025-11-06 18:37:40.272,315.52,2.344,-0.232,0.038,0.152,-0.34600000000000003,-0.631,72.14,14.14,-81.9,-0.35600000000000004,-0.0591,0.2599,0.8956000000000001,0.14100000000000001,-0.07200000000000001,-0.227
2025-11-06 18:37:40.273,315.525,2.37,-0.224,0.053,0.17500000000000002,-0.308,-0.627,72.14,14.14,-81.9,-0.3574,-0.0543,0.264,0.8941,0.112,-0.122,-0.227
2025-11-06 18:37:40.273,315.53,2.396,-0.219,0.079,0.17300000000000001,-0.334,-0.612,72.2,13.030000000000001,-81.81,-0.3577,-0.0494,0.26940000000000003,0.8927,0.108,-0.108,-0.23800000000000002
2025-11-06 18:37:40.273,315.535,2.474,-0.203,0.089,0.182,-0.376,-0.586,72.2,13.030000000000001,-81.81,-0.3563,-0.0448,0.27740000000000004,0.891,0.096,-0.081,-0.257
2025-11-06 18:37:40.273,315.54,2.531,-0.169,0.1,0.177,-0.40900000000000003,-0.592,72.25,12.92,-81.17,-0.3547,-0.0397,0.2859,0.8892,0.097,-0.066,-0.242
2025-11-06 18:37:40.273,315.545,2.585,-0.135,0.11,0.161,-0.46,-0.605,72.25,12.92,-81.17,-0.3526,-0.0332,0.2953,0.8873000000000001,0.107,-0.035,-0.22
2025-11-06 18:37:40.273,315.55,2.623,-0.131,0.132,0.14100000000000001,-0.512,-0.619,72.25,12.92,-81.17,-0.3501,-0.025400000000000002,0.305,0.8852000000000001,0.11900000000000001,-0.004,-0.195
2025-11-06 18:37:40.273,315.555,2.657,-0.213,0.167,0.134,-0.577,-0.59,72.43,12.36,-80.67,-0.3473,-0.0164,0.317,0.8823000000000001,0.117,0.036000000000000004,-0.211
2025-11-06 18:37:40.273,315.56,2.69,-0.326,0.201,0.14200000000000002,-0.607,-0.553,72.43,12.36,-80.67,-0.3452,-0.007500000000000001,0.33030000000000004,0.8784000000000001,0.1,0.039,-0.232
2025-11-06 18:37:40.273,315.565,2.73,-0.398,0.218,0.155,-0.641,-0.522,72.02,11.370000000000001,-80.29,-0.3441,0.0012000000000000001,0.3446,0.8733000000000001,0.08,0.045,-0.244
2025-11-06 18:37:40.273,315.57,2.775,-0.451,0.233,0.182,-0.669,-0.519,72.02,11.370000000000001,-80.29,-0.3443,0.009000000000000001,0.3588,0.8675,0.049,0.047,-0.227
2025-11-06 18:37:40.273,315.575,2.803,-0.47700000000000004,0.254,0.20500000000000002,-0.6980000000000001,-0.5640000000000001,72.11,10.08,-80.82000000000001,-0.3448,0.015700000000000002,0.371,0.862,0.023,0.052000000000000005,-0.164
2025-11-06 18:37:40.273,315.58,2.806,-0.447,0.29,0.221,-0.732,-0.628,72.11,10.08,-80.82000000000001,-0.3446,0.0213,0.3811,0.8575,0.005,0.068,-0.084
2025-11-06 18:37:40.273,315.585,2.799,-0.40900000000000003,0.316,0.226,-0.757,-0.669,72.11,10.08,-80.82000000000001,-0.34400000000000003,0.0262,0.3896,0.8538,-0.002,0.077,-0.028
2025-11-06 18:37:40.273,315.59,2.786,-0.379,0.355,0.215,-0.749,-0.6890000000000001,71.93,9.03,-80.5,-0.3423,0.030500000000000003,0.3965,0.8512000000000001,0.005,0.056,0.002
2025-11-06 18:37:40.273,315.595,2.779,-0.35100000000000003,0.384,0.211,-0.746,-0.684,71.93,9.03,-80.5,-0.3407,0.0346,0.40280000000000005,0.8487,0.005,0.041,0.009000000000000001
2025-11-06 18:37:40.273,315.6,2.7760000000000002,-0.331,0.4,0.181,-0.734,-0.672,71.85000000000001,8.620000000000001,-79.33,-0.3373,0.0386,0.40840000000000004,0.8472000000000001,0.03,0.019,0.007
2025-11-06 18:37:40.273,315.605,2.77,-0.28600000000000003,0.41600000000000004,0.165,-0.756,-0.704,71.85000000000001,8.620000000000001,-79.33,-0.3327,0.0424,0.41290000000000004,0.8467,0.039,0.03,0.047
2025-11-06 18:37:40.273,315.61,2.7640000000000002,-0.306,0.443,0.138,-0.778,-0.7010000000000001,71.85000000000001,8.620000000000001,-79.33,-0.327,0.0466,0.4174,0.8465,0.057,0.043000000000000003,0.052000000000000005
2025-11-06 18:37:40.273,315.615,2.749,-0.34800000000000003,0.484,0.11,-0.8300000000000001,-0.6940000000000001,71.52,7.890000000000001,-79.77,-0.32030000000000003,0.051800000000000006,0.42250000000000004,0.8462000000000001,0.075,0.085,0.053
2025-11-06 18:37:40.273,315.62,2.736,-0.37,0.527,0.135,-0.8230000000000001,-0.661,71.52,7.890000000000001,-79.77,-0.3161,0.056600000000000004,0.42810000000000004,0.8447,0.041,0.067,0.032
2025-11-06 18:37:40.273,315.625,2.738,-0.357,0.605,0.154,-0.806,-0.633,71.67,6.46,-78.98,-0.3136,0.0608,0.4338,0.8424,0.015,0.039,0.014
2025-11-06 18:37:40.273,315.63,2.741,-0.312,0.614,0.159,-0.81,-0.622,71.67,6.46,-78.98,-0.3116,0.06470000000000001,0.4395,0.8399000000000001,0.006,0.034,0.014
2025-11-06 18:37:40.276,315.635,2.747,-0.25,0.614,0.145,-0.8290000000000001,-0.613,71.38,5.87,-78.89,-0.3089,0.0688,0.44520000000000004,0.8375,0.015,0.043000000000000003,0.016
2025-11-06 18:37:40.276,315.64,2.738,-0.217,0.608,0.13,-0.864,-0.605,71.38,5.87,-78.89,-0.3058,0.0732,0.45120000000000005,0.8351000000000001,0.025,0.068,0.02
2025-11-06 18:37:40.276,315.645,2.716,-0.23700000000000002,0.603,0.116,-0.919,-0.5630000000000001,71.38,5.87,-78.89,-0.303,0.07880000000000001,0.4587,0.8315,0.031,0.111,-0.006
2025-11-06 18:37:40.276,315.65,2.6790000000000003,-0.279,0.585,0.127,-0.9530000000000001,-0.511,71.58,4.8500000000000005,-78.16,-0.30210000000000004,0.0852,0.46740000000000004,0.8263,0.015,0.132,-0.041
2025-11-06 18:37:40.276,315.655,2.608,-0.251,0.5630000000000001,0.14400000000000002,-1.0010000000000001,-0.47100000000000003,71.58,4.8500000000000005,-78.16,-0.3027,0.09190000000000001,0.4771,0.8198000000000001,-0.005,0.166,-0.061
2025-11-06 18:37:40.276,315.66,2.5140000000000002,-0.161,0.527,0.153,-1.052,-0.448,71.87,4.09,-77.84,-0.3038,0.0985,0.48700000000000004,0.8128000000000001,-0.016,0.20400000000000001,-0.063
2025-11-06 18:37:40.276,315.665,2.426,-0.016,0.5,0.14200000000000002,-1.1,-0.45,71.87,4.09,-77.84,-0.3032,0.1043,0.4963,0.8066,-0.008,0.23900000000000002,-0.039
2025-11-06 18:37:40.276,315.67,2.2960000000000003,0.20700000000000002,0.47700000000000004,0.11800000000000001,-1.139,-0.459,71.87,4.09,-77.84,-0.3004,0.1092,0.5048,0.8018000000000001,0.011,0.266,-0.012
2025-11-06 18:37:40.276,315.675,2.219,0.28200000000000003,0.47200000000000003,0.124,-1.1500000000000001,-0.48,71.44,3.33,-77.34,-0.2975,0.1129,0.512,0.7978000000000001,0.0,0.267,0.026000000000000002
2025-11-06 18:37:40.276,315.68,2.178,0.28700000000000003,0.465,0.152,-1.145,-0.47200000000000003,71.44,3.33,-77.34,-0.29660000000000003,0.1163,0.5187,0.7933,-0.028,0.255,0.034
